"rt","response_timestamp","stimulus","response","trial_type","trial_index","time_elapsed","internal_node_id","run_id","condition","recorded_at","source_code_version","ip","user_agent","device","browser","browser_version","platform","platform_version","referer","accept_language","PROLIFIC_PID","STUDY_ID","SESSION_ID","WEEK","BATCH","prolific_id","week","batch","realtime","success","responses","item_order","radio_event_ids","radio_event_times","key_event_times","mouse_event_times","straightlining","zigzagging","honeypot","eventType","view_history","slider_start","which_type","canvas_config","goals_layout","control_level","trial_number","tutorial_trial_number","trial_start_time","phase1_start_time","phase2_start_time","phase3_start_time","goal_1_value","goal_1_distance","goal_2_value","goal_2_distance","goal_selected","outcome","outcome_total","participant_final_score","participant_initial_score","participant_final_score_prop","goal_choice_rt","allocated_time","allocated_time_remaining","goal_direction","counts","mouse_movements","key_presses","question_order","question_id"
"3233","1752875123428","<p style='font-size:40px;line-height:1.25'><strong>Welcome to the experiment!</strong></p><p style='font-size:1.1em;line-height:1.25'>Thank you for participanting in our experiment again! You will be asked to play the Dysfunctional Ball Game again. We will briefly recap the rules before we start.</p><p style='font-size:1.1em;line-height:1.25'>Press <strong>Next</strong> to continue.</p>","0","custom-html-button-response","0","3239","0.0-0.0","133","1","2025-07-18 21:45:19","1f75c3e559b7213887762d5229550c2b","78.137.213.1","Mozilla/5.0 (Windows NT 10.0; Win64; x64) AppleWebKit/537.36 (KHTML, like Gecko) Chrome/138.0.0.0 Safari/537.36","WebKit","Chrome","138.0.0.0","Windows","10.0","https://app.prolific.com/","pt-PT,pt;q=0.9,en-US;q=0.8,en;q=0.7,es;q=0.6,de;q=0.5,it;q=0.4","66aea8fcd9cd711541bf63e5","686e379bc37a29ffa5cdc956","687ac06410040bee26691cb3","1","1","66aea8fcd9cd711541bf63e5","1","1","2025-07-18T21:45:23.431Z","","","","","","","","","","","","","","","","","","","","","","","","","","","","","","","","","","","","","","","","","",""
"3139","","","","fullscreen","1","7389","0.0-1.0","133","1","2025-07-18 21:45:19","1f75c3e559b7213887762d5229550c2b","78.137.213.1","Mozilla/5.0 (Windows NT 10.0; Win64; x64) AppleWebKit/537.36 (KHTML, like Gecko) Chrome/138.0.0.0 Safari/537.36","WebKit","Chrome","138.0.0.0","Windows","10.0","https://app.prolific.com/","pt-PT,pt;q=0.9,en-US;q=0.8,en;q=0.7,es;q=0.6,de;q=0.5,it;q=0.4","66aea8fcd9cd711541bf63e5","686e379bc37a29ffa5cdc956","687ac06410040bee26691cb3","1","1","66aea8fcd9cd711541bf63e5","1","1","","true","","","","","","","","","","","","","","","","","","","","","","","","","","","","","","","","","","","","","","","","",""
"1584","1752875129166","<p style='font-size:1.1em;line-height:1.25'>In the following, we will ask you a few questions relating to your feelings in the last 24 hours.<br></p><p style='font-size:1.1em;line-height:1.25'>Press the <strong>Next</strong> button to continue.</p>","0","custom-html-button-response","2","8974","0.0-2.0-0.0","133","1","2025-07-18 21:45:19","1f75c3e559b7213887762d5229550c2b","78.137.213.1","Mozilla/5.0 (Windows NT 10.0; Win64; x64) AppleWebKit/537.36 (KHTML, like Gecko) Chrome/138.0.0.0 Safari/537.36","WebKit","Chrome","138.0.0.0","Windows","10.0","https://app.prolific.com/","pt-PT,pt;q=0.9,en-US;q=0.8,en;q=0.7,es;q=0.6,de;q=0.5,it;q=0.4","66aea8fcd9cd711541bf63e5","686e379bc37a29ffa5cdc956","687ac06410040bee26691cb3","1","1","66aea8fcd9cd711541bf63e5","1","1","2025-07-18T21:45:29.166Z","","","","","","","","","","","","","","","","","","","","","","","","","","","","","","","","","","","","","","","","","",""
"80217.10000002384","","","","survey-template","3","89200","0.0-2.0-1.0","133","1","2025-07-18 21:45:19","1f75c3e559b7213887762d5229550c2b","78.137.213.1","Mozilla/5.0 (Windows NT 10.0; Win64; x64) AppleWebKit/537.36 (KHTML, like Gecko) Chrome/138.0.0.0 Safari/537.36","WebKit","Chrome","138.0.0.0","Windows","10.0","https://app.prolific.com/","pt-PT,pt;q=0.9,en-US;q=0.8,en;q=0.7,es;q=0.6,de;q=0.5,it;q=0.4","66aea8fcd9cd711541bf63e5","686e379bc37a29ffa5cdc956","687ac06410040bee26691cb3","1","1","66aea8fcd9cd711541bf63e5","1","1","2025-07-18T21:46:49.392Z","","{""Q01"":""3"",""Q02"":""3"",""Q03"":""4"",""Q04"":""4"",""Q05"":""4"",""Q06"":""5"",""Q07"":""5"",""Q08"":""2"",""Q09"":""2"",""Q10"":""4"",""Q11"":""2"",""Q12"":""0"",""Q13"":""5"",""Q14"":""0"",""Q15"":""3"",""Q16"":""1"",""Q17"":""4"",""Q18"":""3"",""Q19"":""3"",""Q20"":""3"",""Q21"":""3"",""Q22"":""3""}","[0,1,2,3,4,5,6,7,8,9,10,11,12,13,14,15,16,17,18,19,20,21]","[""Q01"",""Q02"",""Q03"",""Q04"",""Q05"",""Q06"",""Q07"",""Q08"",""Q09"",""Q11"",""Q12"",""Q13"",""Q14"",""Q15"",""Q16"",""Q17"",""Q18"",""Q19"",""Q20"",""Q21"",""Q22"",""Q10""]","[3352.8000000715256,5009.900000095367,7334.800000071526,8681.700000047684,9589.100000023842,15946.200000047684,17003.200000047684,21897.600000023842,23891.600000023842,36487,40128.40000009537,41155.200000047684,46517.700000047684,50648.10000002384,51623.40000009537,56579.5,59142.700000047684,64432.60000002384,68756.30000007153,69488.40000009537,71695,78197]","[]","[0.20000004768371582,3352.8000000715256,5009.900000095367,6404.700000047684,7334.800000071526,8681.700000047684,9589.100000023842,15946.200000047684,17003.200000047684,19070.100000023842,21897.600000023842,23891.600000023842,25997.900000095367,34807.5,36487,39029.90000009537,40128.40000009537,41155.200000047684,46517.700000047684,48389.60000002384,49121.60000002384,50648.10000002384,51623.40000009537,55073.40000009537,56579.5,58391.10000002384,59142.700000047684,64432.60000002384,67086.80000007153,68756.30000007153,69488.40000009537,70760.90000009537,71695,72551.5,77524.70000004768,78197,80210.30000007153]","0.36363636363636365","0.23809523809523808","0","drsp","","","","","","","","","","","","","","","","","","","","","","","","","","","","","","",""
"13121.899999976158","","","","survey-template","4","102326","0.0-2.0-2.0","133","1","2025-07-18 21:45:19","1f75c3e559b7213887762d5229550c2b","78.137.213.1","Mozilla/5.0 (Windows NT 10.0; Win64; x64) AppleWebKit/537.36 (KHTML, like Gecko) Chrome/138.0.0.0 Safari/537.36","WebKit","Chrome","138.0.0.0","Windows","10.0","https://app.prolific.com/","pt-PT,pt;q=0.9,en-US;q=0.8,en;q=0.7,es;q=0.6,de;q=0.5,it;q=0.4","66aea8fcd9cd711541bf63e5","686e379bc37a29ffa5cdc956","687ac06410040bee26691cb3","1","1","66aea8fcd9cd711541bf63e5","1","1","2025-07-18T21:47:02.518Z","","{""Q01"":""3"",""Q02"":""2"",""Q03"":""3""}","[0,1,2]","[""Q01"",""Q02"",""Q03""]","[3599.2000000476837,7291.5,12072.899999976158]","[]","[3090.100000023842,3599.2000000476837,7291.5,10933.799999952316,12072.899999976158,13120.600000023842]","1","0","0","stress","","","","","","","","","","","","","","","","","","","","","","","","","","","","","","",""
"34447","","","","instructions","5","136775","0.0-3.0-0.0","133","1","2025-07-18 21:45:19","1f75c3e559b7213887762d5229550c2b","78.137.213.1","Mozilla/5.0 (Windows NT 10.0; Win64; x64) AppleWebKit/537.36 (KHTML, like Gecko) Chrome/138.0.0.0 Safari/537.36","WebKit","Chrome","138.0.0.0","Windows","10.0","https://app.prolific.com/","pt-PT,pt;q=0.9,en-US;q=0.8,en;q=0.7,es;q=0.6,de;q=0.5,it;q=0.4","66aea8fcd9cd711541bf63e5","686e379bc37a29ffa5cdc956","687ac06410040bee26691cb3","1","1","66aea8fcd9cd711541bf63e5","1","1","","","","","","","","","","","","","[{""page_index"":0,""viewing_time"":34447}]","","","","","","","","","","","","","","","","","","","","","","","","","","","","","",""
"3507","","<p>Before you start with this game please answer the following three questions yourself. </p>
  <p>Through this game, we measure several aspects of your cognitive performance, such as reaction times, multi-tasking capabilities </p>
  <p>and the ability to assess the situation you are in.</p>
  <p></p>
  <p><b>How good do you usually are in such tasks?</b></p>","58","html-slider-response","6","140285","0.0-4.0-0.0","133","1","2025-07-18 21:45:19","1f75c3e559b7213887762d5229550c2b","78.137.213.1","Mozilla/5.0 (Windows NT 10.0; Win64; x64) AppleWebKit/537.36 (KHTML, like Gecko) Chrome/138.0.0.0 Safari/537.36","WebKit","Chrome","138.0.0.0","Windows","10.0","https://app.prolific.com/","pt-PT,pt;q=0.9,en-US;q=0.8,en;q=0.7,es;q=0.6,de;q=0.5,it;q=0.4","66aea8fcd9cd711541bf63e5","686e379bc37a29ffa5cdc956","687ac06410040bee26691cb3","1","1","66aea8fcd9cd711541bf63e5","1","1","2025-07-18T21:47:40.477Z","","","","","","","","","","","PreSkillQ","","50","","","","","","","","","","","","","","","","","","","","","","","","","","","","",""
"3161","","<div style=""width:500px;"">
  <p>How well do you think you will perform in this task compared to other participants?</p>
  </div>","23","html-slider-response","7","143448","0.0-4.0-1.0","133","1","2025-07-18 21:45:19","1f75c3e559b7213887762d5229550c2b","78.137.213.1","Mozilla/5.0 (Windows NT 10.0; Win64; x64) AppleWebKit/537.36 (KHTML, like Gecko) Chrome/138.0.0.0 Safari/537.36","WebKit","Chrome","138.0.0.0","Windows","10.0","https://app.prolific.com/","pt-PT,pt;q=0.9,en-US;q=0.8,en;q=0.7,es;q=0.6,de;q=0.5,it;q=0.4","66aea8fcd9cd711541bf63e5","686e379bc37a29ffa5cdc956","687ac06410040bee26691cb3","1","1","66aea8fcd9cd711541bf63e5","1","1","2025-07-18T21:47:43.640Z","","","","","","","","","","","PrePerfQ","","50","","","","","","","","","","","","","","","","","","","","","","","","","","","","",""
"3875","","<div style=""width:500px;"">
  <p>What best describes how you currently feel?</p>
  </div>","30","html-slider-response","8","147324","0.0-4.0-2.0","133","1","2025-07-18 21:45:19","1f75c3e559b7213887762d5229550c2b","78.137.213.1","Mozilla/5.0 (Windows NT 10.0; Win64; x64) AppleWebKit/537.36 (KHTML, like Gecko) Chrome/138.0.0.0 Safari/537.36","WebKit","Chrome","138.0.0.0","Windows","10.0","https://app.prolific.com/","pt-PT,pt;q=0.9,en-US;q=0.8,en;q=0.7,es;q=0.6,de;q=0.5,it;q=0.4","66aea8fcd9cd711541bf63e5","686e379bc37a29ffa5cdc956","687ac06410040bee26691cb3","1","1","66aea8fcd9cd711541bf63e5","1","1","2025-07-18T21:47:47.516Z","","","","","","","","","","","PreMotivationQ","","50","","","","","","","","","","","","","","","","","","","","","","","","","","","","",""
"","","","","ctl-task-cpt","9","168453","0.0-5.0-0.0","133","1","2025-07-18 21:45:19","1f75c3e559b7213887762d5229550c2b","78.137.213.1","Mozilla/5.0 (Windows NT 10.0; Win64; x64) AppleWebKit/537.36 (KHTML, like Gecko) Chrome/138.0.0.0 Safari/537.36","WebKit","Chrome","138.0.0.0","Windows","10.0","https://app.prolific.com/","pt-PT,pt;q=0.9,en-US;q=0.8,en;q=0.7,es;q=0.6,de;q=0.5,it;q=0.4","66aea8fcd9cd711541bf63e5","686e379bc37a29ffa5cdc956","687ac06410040bee26691cb3","1","1","66aea8fcd9cd711541bf63e5","1","1","2025-07-18T21:48:08.645Z","","","","","","","","","","","","","","win-only","0","g1:NW,g2:SE","1","1","0","149750.7","2045.1","7047.2","18122.4","1","4","4","6","1","1","1","1","0","0.007575757575757576","5002.1","3000","1730","[""left"",""up""]","{""num_key_presses"":4,""num_perfect"":4,""num_errors"":0,""num_randdir"":0,""num_randdir_good_moves"":0,""num_whilered"":0,""num_whileblue"":0,""num_blue"":0,""num_good_moves"":4}","[412.8214133126395,419.07142761775424,0.5,412.8214133126395,419.07142761775424,109,522.8214133126395,376.57142761775424,211.4,1070.3214133126396,261.57142761775424,312,1095.3214133126396,251.57142761775424,419,1095.3214133126396,251.57142761775424,524.1,1095.3214133126396,251.57142761775424,629.9,1095.3214133126396,251.57142761775424,734.1,1095.3214133126396,251.57142761775424,839.2,1095.3214133126396,251.57142761775424,946.6,1095.3214133126396,251.57142761775424,1047,1095.3214133126396,251.57142761775424,1153.6,1095.3214133126396,251.57142761775424,1254,1095.3214133126396,251.57142761775424,1360.6,1095.3214133126396,251.57142761775424,1461,1095.3214133126396,251.57142761775424,1562.2,1095.3214133126396,251.57142761775424,1669.1,1095.3214133126396,251.57142761775424,1778.9,1095.3214133126396,251.57142761775424,1881.1,1095.3214133126396,251.57142761775424,1987.9,1095.3214133126396,251.57142761775424,2088.9,1095.3214133126396,251.57142761775424,2193.2,1095.3214133126396,251.57142761775424,2293.2,1095.3214133126396,251.57142761775424,2403.8,1095.3214133126396,251.57142761775424,2507.7,1095.3214133126396,251.57142761775424,2626.3,1095.3214133126396,251.57142761775424,2739.1,1095.3214133126396,251.57142761775424,2841.3,1095.3214133126396,251.57142761775424,2954,1095.3214133126396,251.57142761775424,3057.5,1095.3214133126396,251.57142761775424,3168.7,1095.3214133126396,251.57142761775424,3269,1095.3214133126396,251.57142761775424,3369,1095.3214133126396,251.57142761775424,3473.8,1095.3214133126396,251.57142761775424,3573.8,1095.3214133126396,251.57142761775424,3674.2,1095.3214133126396,251.57142761775424,3775.3,1095.3214133126396,251.57142761775424,3875.4,1095.3214133126396,251.57142761775424,3975.7,1095.3214133126396,251.57142761775424,4075.7,1095.3214133126396,251.57142761775424,4183.4,1095.3214133126396,251.57142761775424,4283.5,1095.3214133126396,251.57142761775424,4388.6,1095.3214133126396,251.57142761775424,4489,1095.3214133126396,251.57142761775424,4595.8,1095.3214133126396,251.57142761775424,4703.8,1095.3214133126396,251.57142761775424,4806.5,1095.3214133126396,251.57142761775424,4907.3]","[1551.2,1551.1,1000,0.1,551.1,""smooth"",""left"",""left"",""good_move"",5294,3742.2,3248.9,1551.9,493.2,""smooth"",""up"",""up"",""good_move"",8120.4,2825.8,2350.2,5294.6,475.6,""smooth"",""up"",""up"",""good_move"",10924,2802.4,2454.5,8121.6,347.9,""smooth"",""left"",""left"",""good_move""]","",""
"4721","","<div style=""width:500px;"">
  <p>What determined the result of this run?</p>
  </div>","29","html-slider-response","10","173175","0.0-5.0-1.0","133","1","2025-07-18 21:45:19","1f75c3e559b7213887762d5229550c2b","78.137.213.1","Mozilla/5.0 (Windows NT 10.0; Win64; x64) AppleWebKit/537.36 (KHTML, like Gecko) Chrome/138.0.0.0 Safari/537.36","WebKit","Chrome","138.0.0.0","Windows","10.0","https://app.prolific.com/","pt-PT,pt;q=0.9,en-US;q=0.8,en;q=0.7,es;q=0.6,de;q=0.5,it;q=0.4","66aea8fcd9cd711541bf63e5","686e379bc37a29ffa5cdc956","687ac06410040bee26691cb3","1","1","66aea8fcd9cd711541bf63e5","1","1","2025-07-18T21:48:13.367Z","","","","","","","","","","","AttribQ","","50","","","","","","","","","","","","","","","","","","","","","","","","","","","","",""
"4218","","<div style=""width:500px;"">
  <p>How much control did you have over the ball?</p>
  </div>","100","html-slider-response","11","177396","0.0-5.0-2.0","133","1","2025-07-18 21:45:19","1f75c3e559b7213887762d5229550c2b","78.137.213.1","Mozilla/5.0 (Windows NT 10.0; Win64; x64) AppleWebKit/537.36 (KHTML, like Gecko) Chrome/138.0.0.0 Safari/537.36","WebKit","Chrome","138.0.0.0","Windows","10.0","https://app.prolific.com/","pt-PT,pt;q=0.9,en-US;q=0.8,en;q=0.7,es;q=0.6,de;q=0.5,it;q=0.4","66aea8fcd9cd711541bf63e5","686e379bc37a29ffa5cdc956","687ac06410040bee26691cb3","1","1","66aea8fcd9cd711541bf63e5","1","1","2025-07-18T21:48:17.588Z","","","","","","","","","","","ControlQ","","50","","","","","","","","","","","","","","","","","","","","","","","","","","","","",""
"2522","","<div style=""width:500px;"">
  <p>How would you describe your current emotional state?</p>
  </div>","65","html-slider-response","12","179919","0.0-5.0-3.0","133","1","2025-07-18 21:45:19","1f75c3e559b7213887762d5229550c2b","78.137.213.1","Mozilla/5.0 (Windows NT 10.0; Win64; x64) AppleWebKit/537.36 (KHTML, like Gecko) Chrome/138.0.0.0 Safari/537.36","WebKit","Chrome","138.0.0.0","Windows","10.0","https://app.prolific.com/","pt-PT,pt;q=0.9,en-US;q=0.8,en;q=0.7,es;q=0.6,de;q=0.5,it;q=0.4","66aea8fcd9cd711541bf63e5","686e379bc37a29ffa5cdc956","687ac06410040bee26691cb3","1","1","66aea8fcd9cd711541bf63e5","1","1","2025-07-18T21:48:20.111Z","","","","","","","","","","","StressQ","","50","","","","","","","","","","","","","","","","","","","","","","","","","","","","",""
"2694","","<div style=""width:500px;"">
  <p>What best describes how you currently feel?</p>
  </div>","17","html-slider-response","13","182615","0.0-5.0-4.0","133","1","2025-07-18 21:45:19","1f75c3e559b7213887762d5229550c2b","78.137.213.1","Mozilla/5.0 (Windows NT 10.0; Win64; x64) AppleWebKit/537.36 (KHTML, like Gecko) Chrome/138.0.0.0 Safari/537.36","WebKit","Chrome","138.0.0.0","Windows","10.0","https://app.prolific.com/","pt-PT,pt;q=0.9,en-US;q=0.8,en;q=0.7,es;q=0.6,de;q=0.5,it;q=0.4","66aea8fcd9cd711541bf63e5","686e379bc37a29ffa5cdc956","687ac06410040bee26691cb3","1","1","66aea8fcd9cd711541bf63e5","1","1","2025-07-18T21:48:22.807Z","","","","","","","","","","","MotivationQ","","50","","","","","","","","","","","","","","","","","","","","","","","","","","","","",""
"","","","","ctl-task-cpt","14","231145","0.0-5.0-0.1","133","1","2025-07-18 21:45:19","1f75c3e559b7213887762d5229550c2b","78.137.213.1","Mozilla/5.0 (Windows NT 10.0; Win64; x64) AppleWebKit/537.36 (KHTML, like Gecko) Chrome/138.0.0.0 Safari/537.36","WebKit","Chrome","138.0.0.0","Windows","10.0","https://app.prolific.com/","pt-PT,pt;q=0.9,en-US;q=0.8,en;q=0.7,es;q=0.6,de;q=0.5,it;q=0.4","66aea8fcd9cd711541bf63e5","686e379bc37a29ffa5cdc956","687ac06410040bee26691cb3","1","1","66aea8fcd9cd711541bf63e5","1","1","2025-07-18T21:49:11.338Z","","","","","","","","","","","","","","win-only","3","g1:SW,g2:NE","0.9","2","0","185038.8","1405","6409.1","45520.5","1","4","8","6","2","8","7","8","1","0.06060606060606061","1433.5","3000","505","[""up"",""right""]","{""num_key_presses"":10,""num_perfect"":8,""num_errors"":1,""num_randdir"":1,""num_randdir_good_moves"":0,""num_whilered"":0,""num_whileblue"":1,""num_blue"":5,""num_good_moves"":8}","[417.8214133126395,420.32142761775424,0.4,417.8214133126395,420.32142761775424,104,417.8214133126395,420.32142761775424,212.2,417.8214133126395,420.32142761775424,313.2,736.5714133126395,411.57142761775424,424.2,775.3214133126395,415.32142761775424,536.2,481.5714133126395,454.07142761775424,636.3,426.5714133126395,467.82142761775424,745.6,426.5714133126395,467.82142761775424,851,451.5714133126395,402.82142761775424,954.2,644.0714133126395,66.57142761775425,1062.3,644.0714133126395,66.57142761775425,1167.7,677.8214133126395,55.32142761775425,1269.1,760.3214133126395,56.57142761775425,1373.4,760.3214133126395,56.57142761775425,1474.5,760.3214133126395,56.57142761775425,1579.1,760.3214133126395,56.57142761775425,1684.8,760.3214133126395,56.57142761775425,1795.8,760.3214133126395,56.57142761775425,1895.9,760.3214133126395,56.57142761775425,2000.1,760.3214133126395,56.57142761775425,2104.5,760.3214133126395,56.57142761775425,2211.5,760.3214133126395,56.57142761775425,2317.1,760.3214133126395,56.57142761775425,2426.4,760.3214133126395,56.57142761775425,2528,760.3214133126395,56.57142761775425,2635,760.3214133126395,56.57142761775425,2735.3,760.3214133126395,56.57142761775425,2844.4,760.3214133126395,56.57142761775425,2944.4,760.3214133126395,56.57142761775425,3044.9,760.3214133126395,56.57142761775425,3146.3,760.3214133126395,56.57142761775425,3246.3,760.3214133126395,56.57142761775425,3349,760.3214133126395,56.57142761775425,3454.1,760.3214133126395,56.57142761775425,3554.9,760.3214133126395,56.57142761775425,3660.6,760.3214133126395,56.57142761775425,3766,760.3214133126395,56.57142761775425,3866,760.3214133126395,56.57142761775425,3981.2,760.3214133126395,56.57142761775425,4084.1,760.3214133126395,56.57142761775425,4184.5,760.3214133126395,56.57142761775425,4285.5,760.3214133126395,56.57142761775425,4393.3,760.3214133126395,56.57142761775425,4494.1,760.3214133126395,56.57142761775425,4604.1,760.3214133126395,56.57142761775425,4705,760.3214133126395,56.57142761775425,4805.6,760.3214133126395,56.57142761775425,4911.3]","[1424.7,1424.7,1000,0,424.7,""oops"",""up"",""left"",""bad_move"",3548.6,2123.1,1740.3,1425.6,382.7,""smooth"",""up"",""up"",""good_move"",6629.2,3080.4,2764.1,3548.8,316.3,""smooth"",""right"",""right"",""good_move"",9087.1,2457.2,2151.6,6629.9,305.6,""smooth"",""up"",""up"",""good_move"",11718.6,2630.8,2341.9,9087.8,288.9,""while_blue"",""right"",""left"",""bad_move"",19359.5,7640,2931.4,15981,447.1,""smooth"",""right"",""right"",""good_move"",20889.4,1527.3,847.3,19362.2,679.9,""smooth"",""right"",""right"",""good_move"",26497.7,5607.9,2397.5,23741.8,358.4,""smooth"",""right"",""right"",""good_move"",36150.1,9652.2,2244.6,33430,475.5,""smooth"",""up"",""up"",""good_move"",38957.4,2807,2428.6,36150.4,378.4,""smooth"",""right"",""right"",""good_move""]","",""
"2359","","<div style=""width:500px;"">
  <p>What determined the result of this run?</p>
  </div>","24","html-slider-response","15","233509","0.0-5.0-1.1","133","1","2025-07-18 21:45:19","1f75c3e559b7213887762d5229550c2b","78.137.213.1","Mozilla/5.0 (Windows NT 10.0; Win64; x64) AppleWebKit/537.36 (KHTML, like Gecko) Chrome/138.0.0.0 Safari/537.36","WebKit","Chrome","138.0.0.0","Windows","10.0","https://app.prolific.com/","pt-PT,pt;q=0.9,en-US;q=0.8,en;q=0.7,es;q=0.6,de;q=0.5,it;q=0.4","66aea8fcd9cd711541bf63e5","686e379bc37a29ffa5cdc956","687ac06410040bee26691cb3","1","1","66aea8fcd9cd711541bf63e5","1","1","2025-07-18T21:49:13.701Z","","","","","","","","","","","AttribQ","","50","","","","","","","","","","","","","","","","","","","","","","","","","","","","",""
"2052","","<div style=""width:500px;"">
  <p>How much control did you have over the ball?</p>
  </div>","67","html-slider-response","16","235562","0.0-5.0-2.1","133","1","2025-07-18 21:45:19","1f75c3e559b7213887762d5229550c2b","78.137.213.1","Mozilla/5.0 (Windows NT 10.0; Win64; x64) AppleWebKit/537.36 (KHTML, like Gecko) Chrome/138.0.0.0 Safari/537.36","WebKit","Chrome","138.0.0.0","Windows","10.0","https://app.prolific.com/","pt-PT,pt;q=0.9,en-US;q=0.8,en;q=0.7,es;q=0.6,de;q=0.5,it;q=0.4","66aea8fcd9cd711541bf63e5","686e379bc37a29ffa5cdc956","687ac06410040bee26691cb3","1","1","66aea8fcd9cd711541bf63e5","1","1","2025-07-18T21:49:15.755Z","","","","","","","","","","","ControlQ","","50","","","","","","","","","","","","","","","","","","","","","","","","","","","","",""
"2928","","<div style=""width:500px;"">
  <p>How would you describe your current emotional state?</p>
  </div>","72","html-slider-response","17","238493","0.0-5.0-3.1","133","1","2025-07-18 21:45:19","1f75c3e559b7213887762d5229550c2b","78.137.213.1","Mozilla/5.0 (Windows NT 10.0; Win64; x64) AppleWebKit/537.36 (KHTML, like Gecko) Chrome/138.0.0.0 Safari/537.36","WebKit","Chrome","138.0.0.0","Windows","10.0","https://app.prolific.com/","pt-PT,pt;q=0.9,en-US;q=0.8,en;q=0.7,es;q=0.6,de;q=0.5,it;q=0.4","66aea8fcd9cd711541bf63e5","686e379bc37a29ffa5cdc956","687ac06410040bee26691cb3","1","1","66aea8fcd9cd711541bf63e5","1","1","2025-07-18T21:49:18.685Z","","","","","","","","","","","StressQ","","50","","","","","","","","","","","","","","","","","","","","","","","","","","","","",""
"2307","","<div style=""width:500px;"">
  <p>What best describes how you currently feel?</p>
  </div>","14","html-slider-response","18","240802","0.0-5.0-4.1","133","1","2025-07-18 21:45:19","1f75c3e559b7213887762d5229550c2b","78.137.213.1","Mozilla/5.0 (Windows NT 10.0; Win64; x64) AppleWebKit/537.36 (KHTML, like Gecko) Chrome/138.0.0.0 Safari/537.36","WebKit","Chrome","138.0.0.0","Windows","10.0","https://app.prolific.com/","pt-PT,pt;q=0.9,en-US;q=0.8,en;q=0.7,es;q=0.6,de;q=0.5,it;q=0.4","66aea8fcd9cd711541bf63e5","686e379bc37a29ffa5cdc956","687ac06410040bee26691cb3","1","1","66aea8fcd9cd711541bf63e5","1","1","2025-07-18T21:49:20.994Z","","","","","","","","","","","MotivationQ","","50","","","","","","","","","","","","","","","","","","","","","","","","","","","","",""
"","","","","ctl-task-cpt","19","265206","0.0-5.0-0.2","133","1","2025-07-18 21:45:19","1f75c3e559b7213887762d5229550c2b","78.137.213.1","Mozilla/5.0 (Windows NT 10.0; Win64; x64) AppleWebKit/537.36 (KHTML, like Gecko) Chrome/138.0.0.0 Safari/537.36","WebKit","Chrome","138.0.0.0","Windows","10.0","https://app.prolific.com/","pt-PT,pt;q=0.9,en-US;q=0.8,en;q=0.7,es;q=0.6,de;q=0.5,it;q=0.4","66aea8fcd9cd711541bf63e5","686e379bc37a29ffa5cdc956","687ac06410040bee26691cb3","1","1","66aea8fcd9cd711541bf63e5","1","1","2025-07-18T21:49:45.398Z","","","","","","","","","","","","","","win-only","2","g1:SE,g2:NW","0.8","3","0","243228.7","1157.5","6158.5","21389","1","4","8","6","2","8","8","16","8","0.12121212121212122","1166.5","3000","1530","[""left"",""up""]","{""num_key_presses"":6,""num_perfect"":5,""num_errors"":0,""num_randdir"":1,""num_randdir_good_moves"":1,""num_whilered"":0,""num_whileblue"":0,""num_blue"":0,""num_good_moves"":6}","[426.5714133126395,421.57142761775424,0.2,426.5714133126395,421.57142761775424,102.6,426.5714133126395,421.57142761775424,219.3,426.5714133126395,421.57142761775424,320.1,426.5714133126395,421.57142761775424,420.7,426.5714133126395,421.57142761775424,521.5,426.5714133126395,421.57142761775424,624.3,417.8214133126395,401.57142761775424,726,99.0714133126395,74.07142761775425,833.6,86.5714133126395,66.57142761775425,933.8,84.0714133126395,64.07142761775425,1034.1,71.5714133126395,55.32142761775425,1141,71.5714133126395,55.32142761775425,1250.4,71.5714133126395,55.32142761775425,1358.1,71.5714133126395,55.32142761775425,1460.6,-478.4285866873605,555.3214276177542,1563.5,-489.6785866873605,567.8214276177542,1666.4,-489.6785866873605,567.8214276177542,1774.9,-489.6785866873605,567.8214276177542,1882,-489.6785866873605,567.8214276177542,1982.1,-489.6785866873605,567.8214276177542,2089.9,-489.6785866873605,567.8214276177542,2196.8,-489.6785866873605,567.8214276177542,2307.6,-489.6785866873605,567.8214276177542,2409.6,-489.6785866873605,567.8214276177542,2521.8,-489.6785866873605,567.8214276177542,2623.6,-489.6785866873605,567.8214276177542,2732.6,-489.6785866873605,567.8214276177542,2839.5,-489.6785866873605,567.8214276177542,2939.5,-489.6785866873605,567.8214276177542,3045.4,-489.6785866873605,567.8214276177542,3151.2,-489.6785866873605,567.8214276177542,3255.9,-489.6785866873605,567.8214276177542,3355.9,-489.6785866873605,567.8214276177542,3456.3,-489.6785866873605,567.8214276177542,3558.4,-489.6785866873605,567.8214276177542,3673.6,-489.6785866873605,567.8214276177542,3775.4,-489.6785866873605,567.8214276177542,3880.9,-489.6785866873605,567.8214276177542,3981,-489.6785866873605,567.8214276177542,4081.1,-489.6785866873605,567.8214276177542,4182.5,-489.6785866873605,567.8214276177542,4294.3,-489.6785866873605,567.8214276177542,4394.6,-489.6785866873605,567.8214276177542,4501,-489.6785866873605,567.8214276177542,4601,-489.6785866873605,567.8214276177542,4701,-489.6785866873605,567.8214276177542,4806.1,-489.6785866873605,567.8214276177542,4911.1]","[1394.8,1394.8,1000,0,394.8,""smooth"",""left"",""left"",""good_move"",4347.7,2952.4,2556.9,1395.3,395.5,""smooth"",""left"",""left"",""good_move"",7259.4,2911.3,2457,4348.1,454.3,""oops"",""up"",""left"",""good_move"",10010,2750.2,2393.8,7259.9,356.4,""smooth"",""up"",""up"",""good_move"",12557.4,2546.7,2222.1,10010.7,324.6,""smooth"",""up"",""up"",""good_move"",15101.3,2543.1,2209.8,12558.2,333.3,""smooth"",""up"",""up"",""good_move""]","",""
"2564","","<div style=""width:500px;"">
  <p>What determined the result of this run?</p>
  </div>","27","html-slider-response","20","267774","0.0-5.0-1.2","133","1","2025-07-18 21:45:19","1f75c3e559b7213887762d5229550c2b","78.137.213.1","Mozilla/5.0 (Windows NT 10.0; Win64; x64) AppleWebKit/537.36 (KHTML, like Gecko) Chrome/138.0.0.0 Safari/537.36","WebKit","Chrome","138.0.0.0","Windows","10.0","https://app.prolific.com/","pt-PT,pt;q=0.9,en-US;q=0.8,en;q=0.7,es;q=0.6,de;q=0.5,it;q=0.4","66aea8fcd9cd711541bf63e5","686e379bc37a29ffa5cdc956","687ac06410040bee26691cb3","1","1","66aea8fcd9cd711541bf63e5","1","1","2025-07-18T21:49:47.966Z","","","","","","","","","","","AttribQ","","50","","","","","","","","","","","","","","","","","","","","","","","","","","","","",""
"2521","","<div style=""width:500px;"">
  <p>How much control did you have over the ball?</p>
  </div>","80","html-slider-response","21","270296","0.0-5.0-2.2","133","1","2025-07-18 21:45:19","1f75c3e559b7213887762d5229550c2b","78.137.213.1","Mozilla/5.0 (Windows NT 10.0; Win64; x64) AppleWebKit/537.36 (KHTML, like Gecko) Chrome/138.0.0.0 Safari/537.36","WebKit","Chrome","138.0.0.0","Windows","10.0","https://app.prolific.com/","pt-PT,pt;q=0.9,en-US;q=0.8,en;q=0.7,es;q=0.6,de;q=0.5,it;q=0.4","66aea8fcd9cd711541bf63e5","686e379bc37a29ffa5cdc956","687ac06410040bee26691cb3","1","1","66aea8fcd9cd711541bf63e5","1","1","2025-07-18T21:49:50.488Z","","","","","","","","","","","ControlQ","","50","","","","","","","","","","","","","","","","","","","","","","","","","","","","",""
"4484","","<div style=""width:500px;"">
  <p>How would you describe your current emotional state?</p>
  </div>","84","html-slider-response","22","274782","0.0-5.0-3.2","133","1","2025-07-18 21:45:19","1f75c3e559b7213887762d5229550c2b","78.137.213.1","Mozilla/5.0 (Windows NT 10.0; Win64; x64) AppleWebKit/537.36 (KHTML, like Gecko) Chrome/138.0.0.0 Safari/537.36","WebKit","Chrome","138.0.0.0","Windows","10.0","https://app.prolific.com/","pt-PT,pt;q=0.9,en-US;q=0.8,en;q=0.7,es;q=0.6,de;q=0.5,it;q=0.4","66aea8fcd9cd711541bf63e5","686e379bc37a29ffa5cdc956","687ac06410040bee26691cb3","1","1","66aea8fcd9cd711541bf63e5","1","1","2025-07-18T21:49:54.974Z","","","","","","","","","","","StressQ","","50","","","","","","","","","","","","","","","","","","","","","","","","","","","","",""
"2155","","<div style=""width:500px;"">
  <p>What best describes how you currently feel?</p>
  </div>","21","html-slider-response","23","276938","0.0-5.0-4.2","133","1","2025-07-18 21:45:19","1f75c3e559b7213887762d5229550c2b","78.137.213.1","Mozilla/5.0 (Windows NT 10.0; Win64; x64) AppleWebKit/537.36 (KHTML, like Gecko) Chrome/138.0.0.0 Safari/537.36","WebKit","Chrome","138.0.0.0","Windows","10.0","https://app.prolific.com/","pt-PT,pt;q=0.9,en-US;q=0.8,en;q=0.7,es;q=0.6,de;q=0.5,it;q=0.4","66aea8fcd9cd711541bf63e5","686e379bc37a29ffa5cdc956","687ac06410040bee26691cb3","1","1","66aea8fcd9cd711541bf63e5","1","1","2025-07-18T21:49:57.131Z","","","","","","","","","","","MotivationQ","","50","","","","","","","","","","","","","","","","","","","","","","","","","","","","",""
"","","","","ctl-task-cpt","24","296437","0.0-5.0-0.3","133","1","2025-07-18 21:45:19","1f75c3e559b7213887762d5229550c2b","78.137.213.1","Mozilla/5.0 (Windows NT 10.0; Win64; x64) AppleWebKit/537.36 (KHTML, like Gecko) Chrome/138.0.0.0 Safari/537.36","WebKit","Chrome","138.0.0.0","Windows","10.0","https://app.prolific.com/","pt-PT,pt;q=0.9,en-US;q=0.8,en;q=0.7,es;q=0.6,de;q=0.5,it;q=0.4","66aea8fcd9cd711541bf63e5","686e379bc37a29ffa5cdc956","687ac06410040bee26691cb3","1","1","66aea8fcd9cd711541bf63e5","1","1","2025-07-18T21:50:16.629Z","","","","","","","","","","","","","","win-only","2","g1:SE,g2:NW","0.7","4","0","279366.1","981.8","5990.8","16477.1","1","4","4","6","1","1","1","17","16","0.12878787878787878","1219.8","3000","1770","[""down"",""right""]","{""num_key_presses"":4,""num_perfect"":2,""num_errors"":0,""num_randdir"":2,""num_randdir_good_moves"":2,""num_whilered"":0,""num_whileblue"":0,""num_blue"":0,""num_good_moves"":4}","[412.8214133126395,421.57142761775424,0.9,412.8214133126395,421.57142761775424,100.9,412.8214133126395,421.57142761775424,210.1,412.8214133126395,421.57142761775424,312.3,412.8214133126395,421.57142761775424,412.8,412.8214133126395,421.57142761775424,512.8,412.8214133126395,421.57142761775424,612.9,412.8214133126395,421.57142761775424,716.8,415.3214133126395,421.57142761775424,821.8,671.5714133126395,691.5714276177542,922.2,676.5714133126395,696.5714276177542,1030.9,692.8214133126395,707.8214276177542,1138.6,721.5714133126395,716.5714276177542,1239.3,721.5714133126395,716.5714276177542,1344.4,721.5714133126395,716.5714276177542,1445.6,1141.5714133126396,656.5714276177542,1549.3,1281.5714133126396,620.3214276177542,1654.2,1281.5714133126396,620.3214276177542,1756.7,1281.5714133126396,620.3214276177542,1862,1281.5714133126396,620.3214276177542,1971.2,1281.5714133126396,620.3214276177542,2071.2,1281.5714133126396,620.3214276177542,2176.3,1281.5714133126396,620.3214276177542,2276.3,1281.5714133126396,620.3214276177542,2377,1281.5714133126396,620.3214276177542,2494.9,1281.5714133126396,620.3214276177542,2598.1,1281.5714133126396,620.3214276177542,2699.1,1281.5714133126396,620.3214276177542,2800.1,1281.5714133126396,620.3214276177542,2903.5,1281.5714133126396,620.3214276177542,3007.6,1281.5714133126396,620.3214276177542,3123.2,1281.5714133126396,620.3214276177542,3236.8,1281.5714133126396,620.3214276177542,3343.5,1281.5714133126396,620.3214276177542,3444.5,1281.5714133126396,620.3214276177542,3557.7,1281.5714133126396,620.3214276177542,3662.5,1281.5714133126396,620.3214276177542,3772.5,1281.5714133126396,620.3214276177542,3877,1281.5714133126396,620.3214276177542,3982.1,1281.5714133126396,620.3214276177542,4089.1,1281.5714133126396,620.3214276177542,4191.5,1281.5714133126396,620.3214276177542,4294,1281.5714133126396,620.3214276177542,4395.2,1281.5714133126396,620.3214276177542,4499.9,1281.5714133126396,620.3214276177542,4607.9,1281.5714133126396,620.3214276177542,4711.9,1281.5714133126396,620.3214276177542,4823.6,1281.5714133126396,620.3214276177542,4925.9]","[1469.6,1469.6,1000,0,469.6,""smooth"",""down"",""down"",""good_move"",4909.8,3439.2,2668.8,1470.6,770.4,""smooth"",""right"",""right"",""good_move"",7868.7,2953.1,2504.3,4915.7,448.8,""oops"",""right"",""right"",""good_move"",10334.2,2464.7,2091.5,7869.5,373.2,""oops"",""down"",""down"",""good_move""]","",""
"4537","","<div style=""width:500px;"">
  <p>What determined the result of this run?</p>
  </div>","26","html-slider-response","25","300977","0.0-5.0-1.3","133","1","2025-07-18 21:45:19","1f75c3e559b7213887762d5229550c2b","78.137.213.1","Mozilla/5.0 (Windows NT 10.0; Win64; x64) AppleWebKit/537.36 (KHTML, like Gecko) Chrome/138.0.0.0 Safari/537.36","WebKit","Chrome","138.0.0.0","Windows","10.0","https://app.prolific.com/","pt-PT,pt;q=0.9,en-US;q=0.8,en;q=0.7,es;q=0.6,de;q=0.5,it;q=0.4","66aea8fcd9cd711541bf63e5","686e379bc37a29ffa5cdc956","687ac06410040bee26691cb3","1","1","66aea8fcd9cd711541bf63e5","1","1","2025-07-18T21:50:21.169Z","","","","","","","","","","","AttribQ","","50","","","","","","","","","","","","","","","","","","","","","","","","","","","","",""
"5023","","<div style=""width:500px;"">
  <p>How much control did you have over the ball?</p>
  </div>","90","html-slider-response","26","306002","0.0-5.0-2.3","133","1","2025-07-18 21:45:19","1f75c3e559b7213887762d5229550c2b","78.137.213.1","Mozilla/5.0 (Windows NT 10.0; Win64; x64) AppleWebKit/537.36 (KHTML, like Gecko) Chrome/138.0.0.0 Safari/537.36","WebKit","Chrome","138.0.0.0","Windows","10.0","https://app.prolific.com/","pt-PT,pt;q=0.9,en-US;q=0.8,en;q=0.7,es;q=0.6,de;q=0.5,it;q=0.4","66aea8fcd9cd711541bf63e5","686e379bc37a29ffa5cdc956","687ac06410040bee26691cb3","1","1","66aea8fcd9cd711541bf63e5","1","1","2025-07-18T21:50:26.194Z","","","","","","","","","","","ControlQ","","50","","","","","","","","","","","","","","","","","","","","","","","","","","","","",""
"3116","","<div style=""width:500px;"">
  <p>How would you describe your current emotional state?</p>
  </div>","86","html-slider-response","27","309122","0.0-5.0-3.3","133","1","2025-07-18 21:45:19","1f75c3e559b7213887762d5229550c2b","78.137.213.1","Mozilla/5.0 (Windows NT 10.0; Win64; x64) AppleWebKit/537.36 (KHTML, like Gecko) Chrome/138.0.0.0 Safari/537.36","WebKit","Chrome","138.0.0.0","Windows","10.0","https://app.prolific.com/","pt-PT,pt;q=0.9,en-US;q=0.8,en;q=0.7,es;q=0.6,de;q=0.5,it;q=0.4","66aea8fcd9cd711541bf63e5","686e379bc37a29ffa5cdc956","687ac06410040bee26691cb3","1","1","66aea8fcd9cd711541bf63e5","1","1","2025-07-18T21:50:29.315Z","","","","","","","","","","","StressQ","","50","","","","","","","","","","","","","","","","","","","","","","","","","","","","",""
"2326","","<div style=""width:500px;"">
  <p>What best describes how you currently feel?</p>
  </div>","14","html-slider-response","28","311451","0.0-5.0-4.3","133","1","2025-07-18 21:45:19","1f75c3e559b7213887762d5229550c2b","78.137.213.1","Mozilla/5.0 (Windows NT 10.0; Win64; x64) AppleWebKit/537.36 (KHTML, like Gecko) Chrome/138.0.0.0 Safari/537.36","WebKit","Chrome","138.0.0.0","Windows","10.0","https://app.prolific.com/","pt-PT,pt;q=0.9,en-US;q=0.8,en;q=0.7,es;q=0.6,de;q=0.5,it;q=0.4","66aea8fcd9cd711541bf63e5","686e379bc37a29ffa5cdc956","687ac06410040bee26691cb3","1","1","66aea8fcd9cd711541bf63e5","1","1","2025-07-18T21:50:31.643Z","","","","","","","","","","","MotivationQ","","50","","","","","","","","","","","","","","","","","","","","","","","","","","","","",""
"","","","","ctl-task-cpt","29","328807","0.0-5.0-0.4","133","1","2025-07-18 21:45:19","1f75c3e559b7213887762d5229550c2b","78.137.213.1","Mozilla/5.0 (Windows NT 10.0; Win64; x64) AppleWebKit/537.36 (KHTML, like Gecko) Chrome/138.0.0.0 Safari/537.36","WebKit","Chrome","138.0.0.0","Windows","10.0","https://app.prolific.com/","pt-PT,pt;q=0.9,en-US;q=0.8,en;q=0.7,es;q=0.6,de;q=0.5,it;q=0.4","66aea8fcd9cd711541bf63e5","686e379bc37a29ffa5cdc956","687ac06410040bee26691cb3","1","1","66aea8fcd9cd711541bf63e5","1","1","2025-07-18T21:50:48.999Z","","","","","","","","","","","","","","win-only","2","g1:SE,g2:NW","0.6","5","0","313877.3","906.8","5915.5","14331.6","1","4","8","6","1","1","1","18","17","0.13636363636363635","1770.4","3000","2025","[""down"",""right""]","{""num_key_presses"":4,""num_perfect"":1,""num_errors"":0,""num_randdir"":3,""num_randdir_good_moves"":3,""num_whilered"":0,""num_whileblue"":0,""num_blue"":0,""num_good_moves"":4}","[424.0714133126395,416.57142761775424,0.5,424.0714133126395,416.57142761775424,100.2,424.0714133126395,416.57142761775424,210.2,424.0714133126395,416.57142761775424,311.6,424.0714133126395,416.57142761775424,418.7,424.0714133126395,416.57142761775424,521.1,424.0714133126395,416.57142761775424,633,131.5714133126395,216.57142761775424,734.5,59.07141331263951,151.57142761775424,851.3,59.07141331263951,150.32142761775424,951.4,246.5714133126395,291.57142761775424,1055.4,596.5714133126395,601.5714276177542,1160.9,596.5714133126395,601.5714276177542,1266.6,732.8214133126395,757.8214276177542,1370.1,755.3214133126395,780.3214276177542,1472.3,755.3214133126395,780.3214276177542,1573.9,755.3214133126395,780.3214276177542,1694,755.3214133126395,780.3214276177542,1795.9,755.3214133126395,780.3214276177542,1900.1,755.3214133126395,780.3214276177542,2000.7,847.8214133126395,764.0714276177542,2111.3,847.8214133126395,764.0714276177542,2217.5,847.8214133126395,764.0714276177542,2327.9,847.8214133126395,764.0714276177542,2428.5,847.8214133126395,764.0714276177542,2528.6,847.8214133126395,764.0714276177542,2629.2,847.8214133126395,764.0714276177542,2738.2,847.8214133126395,764.0714276177542,2842.2,847.8214133126395,764.0714276177542,2951.5,847.8214133126395,764.0714276177542,3059.9,847.8214133126395,764.0714276177542,3174.8,847.8214133126395,764.0714276177542,3275.9,847.8214133126395,764.0714276177542,3387,847.8214133126395,764.0714276177542,3489.9,847.8214133126395,764.0714276177542,3590.7,847.8214133126395,764.0714276177542,3692.7,847.8214133126395,764.0714276177542,3794.5,847.8214133126395,764.0714276177542,3900,847.8214133126395,764.0714276177542,4001.2,847.8214133126395,764.0714276177542,4119.8,847.8214133126395,764.0714276177542,4219.9,847.8214133126395,764.0714276177542,4327.2,847.8214133126395,764.0714276177542,4438.4,847.8214133126395,764.0714276177542,4540.6,847.8214133126395,764.0714276177542,4652.6,847.8214133126395,764.0714276177542,4775.1,847.8214133126395,764.0714276177542,4876.6,847.8214133126395,764.0714276177542,4978.1]","[1532,1532,1000,0,532,""oops"",""right"",""right"",""good_move"",3596.4,2063.7,1670.5,1532.8,393.2,""oops"",""down"",""down"",""good_move"",6114.3,2515.9,2117.1,3598.4,398.8,""oops"",""right"",""down"",""good_move"",8255.1,2140.1,1756.5,6115,383.6,""smooth"",""right"",""right"",""good_move""]","",""
"3347","","<div style=""width:500px;"">
  <p>What determined the result of this run?</p>
  </div>","21","html-slider-response","30","332157","0.0-5.0-1.4","133","1","2025-07-18 21:45:19","1f75c3e559b7213887762d5229550c2b","78.137.213.1","Mozilla/5.0 (Windows NT 10.0; Win64; x64) AppleWebKit/537.36 (KHTML, like Gecko) Chrome/138.0.0.0 Safari/537.36","WebKit","Chrome","138.0.0.0","Windows","10.0","https://app.prolific.com/","pt-PT,pt;q=0.9,en-US;q=0.8,en;q=0.7,es;q=0.6,de;q=0.5,it;q=0.4","66aea8fcd9cd711541bf63e5","686e379bc37a29ffa5cdc956","687ac06410040bee26691cb3","1","1","66aea8fcd9cd711541bf63e5","1","1","2025-07-18T21:50:52.349Z","","","","","","","","","","","AttribQ","","50","","","","","","","","","","","","","","","","","","","","","","","","","","","","",""
"3597","","<div style=""width:500px;"">
  <p>How much control did you have over the ball?</p>
  </div>","84","html-slider-response","31","335758","0.0-5.0-2.4","133","1","2025-07-18 21:45:19","1f75c3e559b7213887762d5229550c2b","78.137.213.1","Mozilla/5.0 (Windows NT 10.0; Win64; x64) AppleWebKit/537.36 (KHTML, like Gecko) Chrome/138.0.0.0 Safari/537.36","WebKit","Chrome","138.0.0.0","Windows","10.0","https://app.prolific.com/","pt-PT,pt;q=0.9,en-US;q=0.8,en;q=0.7,es;q=0.6,de;q=0.5,it;q=0.4","66aea8fcd9cd711541bf63e5","686e379bc37a29ffa5cdc956","687ac06410040bee26691cb3","1","1","66aea8fcd9cd711541bf63e5","1","1","2025-07-18T21:50:55.951Z","","","","","","","","","","","ControlQ","","50","","","","","","","","","","","","","","","","","","","","","","","","","","","","",""
"3007","","<div style=""width:500px;"">
  <p>How would you describe your current emotional state?</p>
  </div>","78","html-slider-response","32","338768","0.0-5.0-3.4","133","1","2025-07-18 21:45:19","1f75c3e559b7213887762d5229550c2b","78.137.213.1","Mozilla/5.0 (Windows NT 10.0; Win64; x64) AppleWebKit/537.36 (KHTML, like Gecko) Chrome/138.0.0.0 Safari/537.36","WebKit","Chrome","138.0.0.0","Windows","10.0","https://app.prolific.com/","pt-PT,pt;q=0.9,en-US;q=0.8,en;q=0.7,es;q=0.6,de;q=0.5,it;q=0.4","66aea8fcd9cd711541bf63e5","686e379bc37a29ffa5cdc956","687ac06410040bee26691cb3","1","1","66aea8fcd9cd711541bf63e5","1","1","2025-07-18T21:50:58.960Z","","","","","","","","","","","StressQ","","50","","","","","","","","","","","","","","","","","","","","","","","","","","","","",""
"1348","","<div style=""width:500px;"">
  <p>What best describes how you currently feel?</p>
  </div>","15","html-slider-response","33","340118","0.0-5.0-4.4","133","1","2025-07-18 21:45:19","1f75c3e559b7213887762d5229550c2b","78.137.213.1","Mozilla/5.0 (Windows NT 10.0; Win64; x64) AppleWebKit/537.36 (KHTML, like Gecko) Chrome/138.0.0.0 Safari/537.36","WebKit","Chrome","138.0.0.0","Windows","10.0","https://app.prolific.com/","pt-PT,pt;q=0.9,en-US;q=0.8,en;q=0.7,es;q=0.6,de;q=0.5,it;q=0.4","66aea8fcd9cd711541bf63e5","686e379bc37a29ffa5cdc956","687ac06410040bee26691cb3","1","1","66aea8fcd9cd711541bf63e5","1","1","2025-07-18T21:51:00.311Z","","","","","","","","","","","MotivationQ","","50","","","","","","","","","","","","","","","","","","","","","","","","","","","","",""
"","","","","ctl-task-cpt","34","397798","0.0-5.0-0.5","133","1","2025-07-18 21:45:19","1f75c3e559b7213887762d5229550c2b","78.137.213.1","Mozilla/5.0 (Windows NT 10.0; Win64; x64) AppleWebKit/537.36 (KHTML, like Gecko) Chrome/138.0.0.0 Safari/537.36","WebKit","Chrome","138.0.0.0","Windows","10.0","https://app.prolific.com/","pt-PT,pt;q=0.9,en-US;q=0.8,en;q=0.7,es;q=0.6,de;q=0.5,it;q=0.4","66aea8fcd9cd711541bf63e5","686e379bc37a29ffa5cdc956","687ac06410040bee26691cb3","1","1","66aea8fcd9cd711541bf63e5","1","1","2025-07-18T21:51:57.990Z","","","","","","","","","","","","","","win-only","2","g1:SE,g2:NW","0.5","6","0","342545.9","883.3","5895.1","54657.5","1","4","4","6","1","1","1","19","18","0.14393939393939395","1856.8","3000","405","[""down"",""right""]","{""num_key_presses"":10,""num_perfect"":5,""num_errors"":0,""num_randdir"":5,""num_randdir_good_moves"":2,""num_whilered"":0,""num_whileblue"":0,""num_blue"":6,""num_good_moves"":7}","[415.3214133126395,409.07142761775424,0.9,415.3214133126395,409.07142761775424,102.3,415.3214133126395,409.07142761775424,204.5,415.3214133126395,409.07142761775424,311.1,415.3214133126395,409.07142761775424,439.4,415.3214133126395,409.07142761775424,542.5,415.3214133126395,409.07142761775424,642.5,352.8214133126395,364.07142761775424,743.5,161.5714133126395,259.07142761775424,845.6,597.8214133126395,514.0714276177542,951.8,809.0714133126395,612.8214276177542,1055.7,809.0714133126395,612.8214276177542,1158.7,821.5714133126395,655.3214276177542,1260.8,804.0714133126395,692.8214276177542,1361,804.0714133126395,692.8214276177542,1469.9,804.0714133126395,692.8214276177542,1585.1,804.0714133126395,692.8214276177542,1689.8,804.0714133126395,702.8214276177542,1799.8,809.0714133126395,735.3214276177542,1923,814.0714133126395,732.8214276177542,2024.3,971.5714133126395,680.3214276177542,2128.1,1081.5714133126396,625.3214276177542,2240.2,1081.5714133126396,625.3214276177542,2353.6,1081.5714133126396,625.3214276177542,2473.6,1081.5714133126396,625.3214276177542,2581.9,1081.5714133126396,625.3214276177542,2686.2,1081.5714133126396,625.3214276177542,2787.7,1081.5714133126396,625.3214276177542,2889.9,1081.5714133126396,625.3214276177542,3017.8,1081.5714133126396,625.3214276177542,3119.8,1081.5714133126396,625.3214276177542,3223.4,1081.5714133126396,625.3214276177542,3323.6,1081.5714133126396,625.3214276177542,3426.6,1081.5714133126396,625.3214276177542,3542.7,1081.5714133126396,625.3214276177542,3645.7,1081.5714133126396,625.3214276177542,3748.3,1081.5714133126396,625.3214276177542,3854.1,1081.5714133126396,625.3214276177542,3957.2,1081.5714133126396,625.3214276177542,4057.5,1081.5714133126396,625.3214276177542,4158.2,1081.5714133126396,625.3214276177542,4263.4,1081.5714133126396,625.3214276177542,4366.3,1081.5714133126396,625.3214276177542,4469.8,1081.5714133126396,625.3214276177542,4572.9,1081.5714133126396,625.3214276177542,4679.9,1081.5714133126396,625.3214276177542,4785.5,1081.5714133126396,625.3214276177542,4893.3,1081.5714133126396,625.3214276177542,4994.1]","[1612.3,1612.4,1000,0,612.4,""oops"",""down"",""right"",""good_move"",11239.4,9625.6,2580.4,8169.7,489.3,""smooth"",""down"",""down"",""good_move"",14402,3162.1,2743.1,11239.9,419,""oops"",""right"",""left"",""bad_move"",21033,6628.8,2964.7,17546.3,522,""smooth"",""right"",""right"",""good_move"",24205.5,3171.8,2689.9,21033.8,481.9,""oops"",""right"",""left"",""bad_move"",34651.1,10444.6,2851.3,31415.9,383.9,""oops"",""down"",""up"",""bad_move"",37324,2671.7,2076.9,34652.3,594.8,""smooth"",""right"",""right"",""good_move"",39361.6,2037.3,1509.5,37324.3,527.8,""smooth"",""down"",""down"",""good_move"",42748.9,3385.1,2956.8,39363.9,428.3,""oops"",""right"",""down"",""good_move"",48630.2,5880.6,2307.5,45956.5,366.2,""smooth"",""right"",""right"",""good_move""]","",""
"3715","","<div style=""width:500px;"">
  <p>What determined the result of this run?</p>
  </div>","15","html-slider-response","35","401515","0.0-5.0-1.5","133","1","2025-07-18 21:45:19","1f75c3e559b7213887762d5229550c2b","78.137.213.1","Mozilla/5.0 (Windows NT 10.0; Win64; x64) AppleWebKit/537.36 (KHTML, like Gecko) Chrome/138.0.0.0 Safari/537.36","WebKit","Chrome","138.0.0.0","Windows","10.0","https://app.prolific.com/","pt-PT,pt;q=0.9,en-US;q=0.8,en;q=0.7,es;q=0.6,de;q=0.5,it;q=0.4","66aea8fcd9cd711541bf63e5","686e379bc37a29ffa5cdc956","687ac06410040bee26691cb3","1","1","66aea8fcd9cd711541bf63e5","1","1","2025-07-18T21:52:01.707Z","","","","","","","","","","","AttribQ","","50","","","","","","","","","","","","","","","","","","","","","","","","","","","","",""
"4939","","<div style=""width:500px;"">
  <p>How much control did you have over the ball?</p>
  </div>","30","html-slider-response","36","406456","0.0-5.0-2.5","133","1","2025-07-18 21:45:19","1f75c3e559b7213887762d5229550c2b","78.137.213.1","Mozilla/5.0 (Windows NT 10.0; Win64; x64) AppleWebKit/537.36 (KHTML, like Gecko) Chrome/138.0.0.0 Safari/537.36","WebKit","Chrome","138.0.0.0","Windows","10.0","https://app.prolific.com/","pt-PT,pt;q=0.9,en-US;q=0.8,en;q=0.7,es;q=0.6,de;q=0.5,it;q=0.4","66aea8fcd9cd711541bf63e5","686e379bc37a29ffa5cdc956","687ac06410040bee26691cb3","1","1","66aea8fcd9cd711541bf63e5","1","1","2025-07-18T21:52:06.649Z","","","","","","","","","","","ControlQ","","50","","","","","","","","","","","","","","","","","","","","","","","","","","","","",""
"1797","","<div style=""width:500px;"">
  <p>How would you describe your current emotional state?</p>
  </div>","75","html-slider-response","37","408257","0.0-5.0-3.5","133","1","2025-07-18 21:45:19","1f75c3e559b7213887762d5229550c2b","78.137.213.1","Mozilla/5.0 (Windows NT 10.0; Win64; x64) AppleWebKit/537.36 (KHTML, like Gecko) Chrome/138.0.0.0 Safari/537.36","WebKit","Chrome","138.0.0.0","Windows","10.0","https://app.prolific.com/","pt-PT,pt;q=0.9,en-US;q=0.8,en;q=0.7,es;q=0.6,de;q=0.5,it;q=0.4","66aea8fcd9cd711541bf63e5","686e379bc37a29ffa5cdc956","687ac06410040bee26691cb3","1","1","66aea8fcd9cd711541bf63e5","1","1","2025-07-18T21:52:08.449Z","","","","","","","","","","","StressQ","","50","","","","","","","","","","","","","","","","","","","","","","","","","","","","",""
"1582","","<div style=""width:500px;"">
  <p>What best describes how you currently feel?</p>
  </div>","16","html-slider-response","38","409842","0.0-5.0-4.5","133","1","2025-07-18 21:45:19","1f75c3e559b7213887762d5229550c2b","78.137.213.1","Mozilla/5.0 (Windows NT 10.0; Win64; x64) AppleWebKit/537.36 (KHTML, like Gecko) Chrome/138.0.0.0 Safari/537.36","WebKit","Chrome","138.0.0.0","Windows","10.0","https://app.prolific.com/","pt-PT,pt;q=0.9,en-US;q=0.8,en;q=0.7,es;q=0.6,de;q=0.5,it;q=0.4","66aea8fcd9cd711541bf63e5","686e379bc37a29ffa5cdc956","687ac06410040bee26691cb3","1","1","66aea8fcd9cd711541bf63e5","1","1","2025-07-18T21:52:10.035Z","","","","","","","","","","","MotivationQ","","50","","","","","","","","","","","","","","","","","","","","","","","","","","","","",""
"","","","","ctl-task-cpt","39","430201","0.0-5.0-0.6","133","1","2025-07-18 21:45:19","1f75c3e559b7213887762d5229550c2b","78.137.213.1","Mozilla/5.0 (Windows NT 10.0; Win64; x64) AppleWebKit/537.36 (KHTML, like Gecko) Chrome/138.0.0.0 Safari/537.36","WebKit","Chrome","138.0.0.0","Windows","10.0","https://app.prolific.com/","pt-PT,pt;q=0.9,en-US;q=0.8,en;q=0.7,es;q=0.6,de;q=0.5,it;q=0.4","66aea8fcd9cd711541bf63e5","686e379bc37a29ffa5cdc956","687ac06410040bee26691cb3","1","1","66aea8fcd9cd711541bf63e5","1","1","2025-07-18T21:52:30.393Z","","","","","","","","","","","","","","win-only","1","g1:NE,g2:SW","0.4","7","0","412271.5","1074.5","6079","17309.5","1","4","4","6","1","1","1","20","19","0.15151515151515152","1694.9","3000","1905","[""up"",""right""]","{""num_key_presses"":4,""num_perfect"":3,""num_errors"":0,""num_randdir"":1,""num_randdir_good_moves"":1,""num_whilered"":0,""num_whileblue"":0,""num_blue"":0,""num_good_moves"":4}","[425.3214133126395,421.57142761775424,0.4,425.3214133126395,421.57142761775424,100.8,425.3214133126395,421.57142761775424,204.1,425.3214133126395,421.57142761775424,315.1,425.3214133126395,421.57142761775424,416.6,425.3214133126395,421.57142761775424,517.5,425.3214133126395,421.57142761775424,617.6,52.82141331263951,822.8214276177542,721.5,-8.428586687360493,917.8214276177542,821.8,661.5714133126395,201.57142761775424,928.3,696.5714133126395,186.57142761775424,1055,696.5714133126395,186.57142761775424,1158.3,842.8214133126395,29.071427617754253,1268.3,841.5714133126395,29.071427617754253,1374.2,840.3214133126395,30.321427617754253,1480.6,824.0714133126395,36.57142761775425,1582.4,791.5714133126395,46.57142761775425,1701.6,791.5714133126395,46.57142761775425,1802.2,922.8214133126395,55.32142761775425,1911,1375.3214133126396,219.07142761775424,2011.4,1375.3214133126396,219.07142761775424,2120.2,1375.3214133126396,219.07142761775424,2229.7,1375.3214133126396,219.07142761775424,2345.8,1375.3214133126396,219.07142761775424,2449.3,1375.3214133126396,219.07142761775424,2561.2,1375.3214133126396,219.07142761775424,2662.5,1375.3214133126396,219.07142761775424,2763.7,1375.3214133126396,219.07142761775424,2863.7,1375.3214133126396,219.07142761775424,2981,1375.3214133126396,219.07142761775424,3088.7,1375.3214133126396,219.07142761775424,3199.2,1375.3214133126396,219.07142761775424,3302,1375.3214133126396,219.07142761775424,3420.3,1375.3214133126396,219.07142761775424,3527.8,1375.3214133126396,219.07142761775424,3631.2,1375.3214133126396,219.07142761775424,3734.1,1375.3214133126396,219.07142761775424,3836.8,1375.3214133126396,219.07142761775424,3940.1,1375.3214133126396,219.07142761775424,4044,1375.3214133126396,219.07142761775424,4154.4,1375.3214133126396,219.07142761775424,4267,1375.3214133126396,219.07142761775424,4369,1375.3214133126396,219.07142761775424,4477.9,1375.3214133126396,219.07142761775424,4580.5,1375.3214133126396,219.07142761775424,4690.2,1375.3214133126396,219.07142761775424,4797.9,1375.3214133126396,219.07142761775424,4898.4]","[1594.3,1594.3,1000,0,594.3,""smooth"",""up"",""up"",""good_move"",4582.6,2987.3,2566.5,1595.3,420.8,""smooth"",""right"",""right"",""good_move"",8265.1,3681.9,2828,4583.2,853.9,""oops"",""up"",""right"",""good_move"",11067.5,2800.8,2463.4,8266.7,337.4,""smooth"",""up"",""up"",""good_move""]","",""
"3505","","<div style=""width:500px;"">
  <p>What determined the result of this run?</p>
  </div>","18","html-slider-response","40","433708","0.0-5.0-1.6","133","1","2025-07-18 21:45:19","1f75c3e559b7213887762d5229550c2b","78.137.213.1","Mozilla/5.0 (Windows NT 10.0; Win64; x64) AppleWebKit/537.36 (KHTML, like Gecko) Chrome/138.0.0.0 Safari/537.36","WebKit","Chrome","138.0.0.0","Windows","10.0","https://app.prolific.com/","pt-PT,pt;q=0.9,en-US;q=0.8,en;q=0.7,es;q=0.6,de;q=0.5,it;q=0.4","66aea8fcd9cd711541bf63e5","686e379bc37a29ffa5cdc956","687ac06410040bee26691cb3","1","1","66aea8fcd9cd711541bf63e5","1","1","2025-07-18T21:52:33.900Z","","","","","","","","","","","AttribQ","","50","","","","","","","","","","","","","","","","","","","","","","","","","","","","",""
"1623","","<div style=""width:500px;"">
  <p>How much control did you have over the ball?</p>
  </div>","78","html-slider-response","41","435334","0.0-5.0-2.6","133","1","2025-07-18 21:45:19","1f75c3e559b7213887762d5229550c2b","78.137.213.1","Mozilla/5.0 (Windows NT 10.0; Win64; x64) AppleWebKit/537.36 (KHTML, like Gecko) Chrome/138.0.0.0 Safari/537.36","WebKit","Chrome","138.0.0.0","Windows","10.0","https://app.prolific.com/","pt-PT,pt;q=0.9,en-US;q=0.8,en;q=0.7,es;q=0.6,de;q=0.5,it;q=0.4","66aea8fcd9cd711541bf63e5","686e379bc37a29ffa5cdc956","687ac06410040bee26691cb3","1","1","66aea8fcd9cd711541bf63e5","1","1","2025-07-18T21:52:35.526Z","","","","","","","","","","","ControlQ","","50","","","","","","","","","","","","","","","","","","","","","","","","","","","","",""
"2580","","<div style=""width:500px;"">
  <p>How would you describe your current emotional state?</p>
  </div>","80","html-slider-response","42","437918","0.0-5.0-3.6","133","1","2025-07-18 21:45:19","1f75c3e559b7213887762d5229550c2b","78.137.213.1","Mozilla/5.0 (Windows NT 10.0; Win64; x64) AppleWebKit/537.36 (KHTML, like Gecko) Chrome/138.0.0.0 Safari/537.36","WebKit","Chrome","138.0.0.0","Windows","10.0","https://app.prolific.com/","pt-PT,pt;q=0.9,en-US;q=0.8,en;q=0.7,es;q=0.6,de;q=0.5,it;q=0.4","66aea8fcd9cd711541bf63e5","686e379bc37a29ffa5cdc956","687ac06410040bee26691cb3","1","1","66aea8fcd9cd711541bf63e5","1","1","2025-07-18T21:52:38.110Z","","","","","","","","","","","StressQ","","50","","","","","","","","","","","","","","","","","","","","","","","","","","","","",""
"1755","","<div style=""width:500px;"">
  <p>What best describes how you currently feel?</p>
  </div>","19","html-slider-response","43","439675","0.0-5.0-4.6","133","1","2025-07-18 21:45:19","1f75c3e559b7213887762d5229550c2b","78.137.213.1","Mozilla/5.0 (Windows NT 10.0; Win64; x64) AppleWebKit/537.36 (KHTML, like Gecko) Chrome/138.0.0.0 Safari/537.36","WebKit","Chrome","138.0.0.0","Windows","10.0","https://app.prolific.com/","pt-PT,pt;q=0.9,en-US;q=0.8,en;q=0.7,es;q=0.6,de;q=0.5,it;q=0.4","66aea8fcd9cd711541bf63e5","686e379bc37a29ffa5cdc956","687ac06410040bee26691cb3","1","1","66aea8fcd9cd711541bf63e5","1","1","2025-07-18T21:52:39.867Z","","","","","","","","","","","MotivationQ","","50","","","","","","","","","","","","","","","","","","","","","","","","","","","","",""
"","","","","ctl-task-cpt","44","476643","0.0-5.0-0.7","133","1","2025-07-18 21:45:19","1f75c3e559b7213887762d5229550c2b","78.137.213.1","Mozilla/5.0 (Windows NT 10.0; Win64; x64) AppleWebKit/537.36 (KHTML, like Gecko) Chrome/138.0.0.0 Safari/537.36","WebKit","Chrome","138.0.0.0","Windows","10.0","https://app.prolific.com/","pt-PT,pt;q=0.9,en-US;q=0.8,en;q=0.7,es;q=0.6,de;q=0.5,it;q=0.4","66aea8fcd9cd711541bf63e5","686e379bc37a29ffa5cdc956","687ac06410040bee26691cb3","1","1","66aea8fcd9cd711541bf63e5","1","1","2025-07-18T21:53:16.835Z","","","","","","","","","","","","","","win-only","2","g1:SE,g2:NW","0.3","8","0","442101.3","1330.3","6336.9","33951.9","1","4","8","6","2","8","7","27","20","0.20454545454545456","1270.2","3000","1335","[""left"",""up""]","{""num_key_presses"":8,""num_perfect"":2,""num_errors"":1,""num_randdir"":5,""num_randdir_good_moves"":4,""num_whilered"":0,""num_whileblue"":1,""num_blue"":2,""num_good_moves"":7}","[420.3214133126395,420.32142761775424,0.7,420.3214133126395,420.32142761775424,101.9,420.3214133126395,420.32142761775424,205.8,420.3214133126395,420.32142761775424,322.4,420.3214133126395,420.32142761775424,423,420.3214133126395,420.32142761775424,533.1,420.3214133126395,420.32142761775424,636.8,231.5714133126395,202.82142761775424,744.4,136.5714133126395,71.57142761775425,849.1,122.8214133126395,56.57142761775425,986.5,121.5714133126395,55.32142761775425,1090.1,121.5714133126395,55.32142761775425,1198.1,121.5714133126395,55.32142761775425,1306.4,121.5714133126395,55.32142761775425,1416.2,-260.9285866873605,405.32142761775424,1537.2,-543.4285866873605,886.5714276177542,1637.5,-543.4285866873605,886.5714276177542,1756.4,-543.4285866873605,886.5714276177542,1857.8,-543.4285866873605,886.5714276177542,1985.3,-543.4285866873605,886.5714276177542,2089.9,-543.4285866873605,886.5714276177542,2195.6,-543.4285866873605,886.5714276177542,2299,-543.4285866873605,886.5714276177542,2400.2,-543.4285866873605,886.5714276177542,2503.5,-543.4285866873605,886.5714276177542,2608.4,-543.4285866873605,886.5714276177542,2730.7,-543.4285866873605,886.5714276177542,2831.6,-543.4285866873605,886.5714276177542,2936,-543.4285866873605,886.5714276177542,3056.5,-543.4285866873605,886.5714276177542,3162.1,-543.4285866873605,886.5714276177542,3263.6,-543.4285866873605,886.5714276177542,3366.3,-543.4285866873605,886.5714276177542,3474.6,-543.4285866873605,886.5714276177542,3576.7,-543.4285866873605,886.5714276177542,3680.6,-543.4285866873605,886.5714276177542,3793.6,-543.4285866873605,886.5714276177542,3898,-543.4285866873605,886.5714276177542,3999.8,-543.4285866873605,886.5714276177542,4101.5,-543.4285866873605,886.5714276177542,4214.1,-543.4285866873605,886.5714276177542,4334.1,-543.4285866873605,886.5714276177542,4447,-543.4285866873605,886.5714276177542,4547.8,-543.4285866873605,886.5714276177542,4648.7,-543.4285866873605,886.5714276177542,4772.9,-543.4285866873605,886.5714276177542,4873.7,-543.4285866873605,886.5714276177542,4974.2]","[1441.4,1441.4,1000,0,441.4,""oops"",""up"",""down"",""bad_move"",4571.7,3129.4,2670.3,1442.3,459.1,""oops"",""left"",""up"",""good_move"",11524.7,6952.1,2052.8,9035.1,436.8,""oops"",""left"",""up"",""good_move"",14743,3217.6,2303.9,11525.4,913.7,""oops"",""left"",""up"",""good_move"",18314.5,3570.6,3201.5,14743.9,369.1,""oops"",""left"",""up"",""good_move"",21495.8,3180.8,2813.6,18315,367.2,""smooth"",""left"",""left"",""good_move"",23753,2256.2,1947.9,21496.8,308.3,""while_blue"",""left"",""left"",""good_move"",27438,3684.1,3219.7,23754.5,463.8,""smooth"",""left"",""left"",""good_move""]","",""
"2681","","<div style=""width:500px;"">
  <p>What determined the result of this run?</p>
  </div>","14","html-slider-response","45","479327","0.0-5.0-1.7","133","1","2025-07-18 21:45:19","1f75c3e559b7213887762d5229550c2b","78.137.213.1","Mozilla/5.0 (Windows NT 10.0; Win64; x64) AppleWebKit/537.36 (KHTML, like Gecko) Chrome/138.0.0.0 Safari/537.36","WebKit","Chrome","138.0.0.0","Windows","10.0","https://app.prolific.com/","pt-PT,pt;q=0.9,en-US;q=0.8,en;q=0.7,es;q=0.6,de;q=0.5,it;q=0.4","66aea8fcd9cd711541bf63e5","686e379bc37a29ffa5cdc956","687ac06410040bee26691cb3","1","1","66aea8fcd9cd711541bf63e5","1","1","2025-07-18T21:53:19.519Z","","","","","","","","","","","AttribQ","","50","","","","","","","","","","","","","","","","","","","","","","","","","","","","",""
"3818","","<div style=""width:500px;"">
  <p>How much control did you have over the ball?</p>
  </div>","27","html-slider-response","46","483151","0.0-5.0-2.7","133","1","2025-07-18 21:45:19","1f75c3e559b7213887762d5229550c2b","78.137.213.1","Mozilla/5.0 (Windows NT 10.0; Win64; x64) AppleWebKit/537.36 (KHTML, like Gecko) Chrome/138.0.0.0 Safari/537.36","WebKit","Chrome","138.0.0.0","Windows","10.0","https://app.prolific.com/","pt-PT,pt;q=0.9,en-US;q=0.8,en;q=0.7,es;q=0.6,de;q=0.5,it;q=0.4","66aea8fcd9cd711541bf63e5","686e379bc37a29ffa5cdc956","687ac06410040bee26691cb3","1","1","66aea8fcd9cd711541bf63e5","1","1","2025-07-18T21:53:23.343Z","","","","","","","","","","","ControlQ","","50","","","","","","","","","","","","","","","","","","","","","","","","","","","","",""
"2446","","<div style=""width:500px;"">
  <p>How would you describe your current emotional state?</p>
  </div>","82","html-slider-response","47","485599","0.0-5.0-3.7","133","1","2025-07-18 21:45:19","1f75c3e559b7213887762d5229550c2b","78.137.213.1","Mozilla/5.0 (Windows NT 10.0; Win64; x64) AppleWebKit/537.36 (KHTML, like Gecko) Chrome/138.0.0.0 Safari/537.36","WebKit","Chrome","138.0.0.0","Windows","10.0","https://app.prolific.com/","pt-PT,pt;q=0.9,en-US;q=0.8,en;q=0.7,es;q=0.6,de;q=0.5,it;q=0.4","66aea8fcd9cd711541bf63e5","686e379bc37a29ffa5cdc956","687ac06410040bee26691cb3","1","1","66aea8fcd9cd711541bf63e5","1","1","2025-07-18T21:53:25.792Z","","","","","","","","","","","StressQ","","50","","","","","","","","","","","","","","","","","","","","","","","","","","","","",""
"1360","","<div style=""width:500px;"">
  <p>What best describes how you currently feel?</p>
  </div>","10","html-slider-response","48","486963","0.0-5.0-4.7","133","1","2025-07-18 21:45:19","1f75c3e559b7213887762d5229550c2b","78.137.213.1","Mozilla/5.0 (Windows NT 10.0; Win64; x64) AppleWebKit/537.36 (KHTML, like Gecko) Chrome/138.0.0.0 Safari/537.36","WebKit","Chrome","138.0.0.0","Windows","10.0","https://app.prolific.com/","pt-PT,pt;q=0.9,en-US;q=0.8,en;q=0.7,es;q=0.6,de;q=0.5,it;q=0.4","66aea8fcd9cd711541bf63e5","686e379bc37a29ffa5cdc956","687ac06410040bee26691cb3","1","1","66aea8fcd9cd711541bf63e5","1","1","2025-07-18T21:53:27.155Z","","","","","","","","","","","MotivationQ","","50","","","","","","","","","","","","","","","","","","","","","","","","","","","","",""
"","","","","ctl-task-cpt","49","520425","0.0-5.0-0.8","133","1","2025-07-18 21:45:19","1f75c3e559b7213887762d5229550c2b","78.137.213.1","Mozilla/5.0 (Windows NT 10.0; Win64; x64) AppleWebKit/537.36 (KHTML, like Gecko) Chrome/138.0.0.0 Safari/537.36","WebKit","Chrome","138.0.0.0","Windows","10.0","https://app.prolific.com/","pt-PT,pt;q=0.9,en-US;q=0.8,en;q=0.7,es;q=0.6,de;q=0.5,it;q=0.4","66aea8fcd9cd711541bf63e5","686e379bc37a29ffa5cdc956","687ac06410040bee26691cb3","1","1","66aea8fcd9cd711541bf63e5","1","1","2025-07-18T21:54:00.617Z","","","","","","","","","","","","","","win-only","2","g1:SE,g2:NW","0.2","9","0","489391","2723","7756.7","30442.2","1","4","8","6","1","1","1","28","27","0.21212121212121213","2122.7","3000","1475","[""down"",""right""]","{""num_key_presses"":8,""num_perfect"":2,""num_errors"":0,""num_randdir"":6,""num_randdir_good_moves"":4,""num_whilered"":0,""num_whileblue"":0,""num_blue"":0,""num_good_moves"":6}","[414.0714133126395,411.57142761775424,0.3,414.0714133126395,411.57142761775424,136.5,414.0714133126395,411.57142761775424,249.9,414.0714133126395,411.57142761775424,350.8,414.0714133126395,411.57142761775424,457.4,332.8214133126395,311.57142761775424,559.7,196.5714133126395,196.57142761775424,663.5,594.0714133126395,511.57142761775424,794.6,601.5714133126395,516.5714276177542,901.9,602.8214133126395,526.5714276177542,1011.2,690.3214133126395,706.5714276177542,1112.9,704.0714133126395,717.8214276177542,1224.7,704.0714133126395,717.8214276177542,1328.7,712.8214133126395,727.8214276177542,1429.5,746.5714133126395,771.5714276177542,1529.5,746.5714133126395,771.5714276177542,1642.3,746.5714133126395,771.5714276177542,1743,740.3214133126395,760.3214276177542,1848.8,740.3214133126395,760.3214276177542,1950.7,740.3214133126395,760.3214276177542,2065.9,740.3214133126395,760.3214276177542,2192.5,740.3214133126395,760.3214276177542,2294.8,756.5714133126395,752.8214276177542,2398.3,1325.3214133126396,665.3214276177542,2508.6,1325.3214133126396,665.3214276177542,2609.9,1325.3214133126396,665.3214276177542,2742.5,1325.3214133126396,665.3214276177542,2846.1,1325.3214133126396,665.3214276177542,2950.1,1325.3214133126396,665.3214276177542,3053.1,1325.3214133126396,665.3214276177542,3178.2,1325.3214133126396,665.3214276177542,3291.1,1325.3214133126396,665.3214276177542,3393.8,1325.3214133126396,665.3214276177542,3495.5,1325.3214133126396,665.3214276177542,3599.1,1325.3214133126396,665.3214276177542,3708.3,1325.3214133126396,665.3214276177542,3822.6,1325.3214133126396,665.3214276177542,3925.1,1325.3214133126396,665.3214276177542,4029.8,1325.3214133126396,665.3214276177542,4139.9,1325.3214133126396,665.3214276177542,4243.4,1325.3214133126396,665.3214276177542,4346.5,1325.3214133126396,665.3214276177542,4456.9,1325.3214133126396,665.3214276177542,4557.2,1325.3214133126396,665.3214276177542,4661.4,1325.3214133126396,665.3214276177542,4761.5,1325.3214133126396,665.3214276177542,4871.2,1325.3214133126396,665.3214276177542,4972.8]","[1616.7,1616.7,1000,0,616.7,""smooth"",""down"",""down"",""good_move"",4188.6,2570.5,2137.9,1618.1,432.6,""oops"",""right"",""down"",""good_move"",7163.6,2974.3,2595,4189.3,379.3,""smooth"",""right"",""right"",""good_move"",10150.2,2985.8,2598,7164.4,387.8,""oops"",""right"",""left"",""bad_move"",12964,2813.1,2424.2,10151,388.8,""oops"",""right"",""up"",""bad_move"",15752.9,2786.5,2365.3,12966.4,421.2,""oops"",""right"",""down"",""good_move"",19270,3516.4,3162.3,15753.6,354.1,""oops"",""right"",""right"",""good_move"",22505.4,3234.3,2853,19271.1,381.3,""oops"",""right"",""right"",""good_move""]","",""
"2276","","<div style=""width:500px;"">
  <p>What determined the result of this run?</p>
  </div>","22","html-slider-response","50","522706","0.0-5.0-1.8","133","1","2025-07-18 21:45:19","1f75c3e559b7213887762d5229550c2b","78.137.213.1","Mozilla/5.0 (Windows NT 10.0; Win64; x64) AppleWebKit/537.36 (KHTML, like Gecko) Chrome/138.0.0.0 Safari/537.36","WebKit","Chrome","138.0.0.0","Windows","10.0","https://app.prolific.com/","pt-PT,pt;q=0.9,en-US;q=0.8,en;q=0.7,es;q=0.6,de;q=0.5,it;q=0.4","66aea8fcd9cd711541bf63e5","686e379bc37a29ffa5cdc956","687ac06410040bee26691cb3","1","1","66aea8fcd9cd711541bf63e5","1","1","2025-07-18T21:54:02.898Z","","","","","","","","","","","AttribQ","","50","","","","","","","","","","","","","","","","","","","","","","","","","","","","",""
"3057","","<div style=""width:500px;"">
  <p>How much control did you have over the ball?</p>
  </div>","27","html-slider-response","51","525767","0.0-5.0-2.8","133","1","2025-07-18 21:45:19","1f75c3e559b7213887762d5229550c2b","78.137.213.1","Mozilla/5.0 (Windows NT 10.0; Win64; x64) AppleWebKit/537.36 (KHTML, like Gecko) Chrome/138.0.0.0 Safari/537.36","WebKit","Chrome","138.0.0.0","Windows","10.0","https://app.prolific.com/","pt-PT,pt;q=0.9,en-US;q=0.8,en;q=0.7,es;q=0.6,de;q=0.5,it;q=0.4","66aea8fcd9cd711541bf63e5","686e379bc37a29ffa5cdc956","687ac06410040bee26691cb3","1","1","66aea8fcd9cd711541bf63e5","1","1","2025-07-18T21:54:05.959Z","","","","","","","","","","","ControlQ","","50","","","","","","","","","","","","","","","","","","","","","","","","","","","","",""
"2030","","<div style=""width:500px;"">
  <p>How would you describe your current emotional state?</p>
  </div>","77","html-slider-response","52","527800","0.0-5.0-3.8","133","1","2025-07-18 21:45:19","1f75c3e559b7213887762d5229550c2b","78.137.213.1","Mozilla/5.0 (Windows NT 10.0; Win64; x64) AppleWebKit/537.36 (KHTML, like Gecko) Chrome/138.0.0.0 Safari/537.36","WebKit","Chrome","138.0.0.0","Windows","10.0","https://app.prolific.com/","pt-PT,pt;q=0.9,en-US;q=0.8,en;q=0.7,es;q=0.6,de;q=0.5,it;q=0.4","66aea8fcd9cd711541bf63e5","686e379bc37a29ffa5cdc956","687ac06410040bee26691cb3","1","1","66aea8fcd9cd711541bf63e5","1","1","2025-07-18T21:54:07.992Z","","","","","","","","","","","StressQ","","50","","","","","","","","","","","","","","","","","","","","","","","","","","","","",""
"1490","","<div style=""width:500px;"">
  <p>What best describes how you currently feel?</p>
  </div>","14","html-slider-response","53","529296","0.0-5.0-4.8","133","1","2025-07-18 21:45:19","1f75c3e559b7213887762d5229550c2b","78.137.213.1","Mozilla/5.0 (Windows NT 10.0; Win64; x64) AppleWebKit/537.36 (KHTML, like Gecko) Chrome/138.0.0.0 Safari/537.36","WebKit","Chrome","138.0.0.0","Windows","10.0","https://app.prolific.com/","pt-PT,pt;q=0.9,en-US;q=0.8,en;q=0.7,es;q=0.6,de;q=0.5,it;q=0.4","66aea8fcd9cd711541bf63e5","686e379bc37a29ffa5cdc956","687ac06410040bee26691cb3","1","1","66aea8fcd9cd711541bf63e5","1","1","2025-07-18T21:54:09.488Z","","","","","","","","","","","MotivationQ","","50","","","","","","","","","","","","","","","","","","","","","","","","","","","","",""
"","","","","ctl-task-cpt","54","552031","0.0-5.0-0.9","133","1","2025-07-18 21:45:19","1f75c3e559b7213887762d5229550c2b","78.137.213.1","Mozilla/5.0 (Windows NT 10.0; Win64; x64) AppleWebKit/537.36 (KHTML, like Gecko) Chrome/138.0.0.0 Safari/537.36","WebKit","Chrome","138.0.0.0","Windows","10.0","https://app.prolific.com/","pt-PT,pt;q=0.9,en-US;q=0.8,en;q=0.7,es;q=0.6,de;q=0.5,it;q=0.4","66aea8fcd9cd711541bf63e5","686e379bc37a29ffa5cdc956","687ac06410040bee26691cb3","1","1","66aea8fcd9cd711541bf63e5","1","1","2025-07-18T21:54:32.224Z","","","","","","","","","","","","","","win-only","0","g1:NW,g2:SE","0.4","10","0","531725","3707.2","8718.4","19721.8","1","4","4","6","1","1","1","29","28","0.2196969696969697","1285.2","3000","2130","[""left"",""up""]","{""num_key_presses"":4,""num_perfect"":3,""num_errors"":0,""num_randdir"":1,""num_randdir_good_moves"":1,""num_whilered"":0,""num_whileblue"":0,""num_blue"":0,""num_good_moves"":4}","[415.3214133126395,410.32142761775424,1.1,415.3214133126395,411.57142761775424,104.4,415.3214133126395,411.57142761775424,214.3,415.3214133126395,411.57142761775424,341.6,415.3214133126395,411.57142761775424,445.3,385.3214133126395,376.57142761775424,552.5,400.3214133126395,390.32142761775424,654.3,517.8214133126395,489.07142761775424,756.9,1.571413312639507,180.32142761775424,868.3,-3.428586687360493,164.07142761775424,991.4,9.071413312639507,156.57142761775424,1093.8,65.3214133126395,134.07142761775424,1202,66.5714133126395,134.07142761775424,1309,66.5714133126395,134.07142761775424,1429.3,66.5714133126395,134.07142761775424,1540.3,56.57141331263951,135.32142761775424,1666,-295.9285866873605,311.57142761775424,1775.4,-318.4285866873605,334.07142761775424,1883.2,-318.4285866873605,334.07142761775424,2004.9,-318.4285866873605,334.07142761775424,2135.4,-318.4285866873605,334.07142761775424,2241.6,-318.4285866873605,334.07142761775424,2380.7,-318.4285866873605,334.07142761775424,2483.4,-318.4285866873605,334.07142761775424,2612.7,-318.4285866873605,334.07142761775424,2749.7,-318.4285866873605,334.07142761775424,2859.6,-318.4285866873605,334.07142761775424,2966.7,-318.4285866873605,334.07142761775424,3070.8,-318.4285866873605,334.07142761775424,3174.1,-318.4285866873605,334.07142761775424,3275,-318.4285866873605,334.07142761775424,3376,-318.4285866873605,334.07142761775424,3508.3,-318.4285866873605,334.07142761775424,3610.3,-318.4285866873605,334.07142761775424,3717.1,-318.4285866873605,334.07142761775424,3822.7,-318.4285866873605,334.07142761775424,3923.7,-318.4285866873605,334.07142761775424,4024.8,-318.4285866873605,334.07142761775424,4154.9,-318.4285866873605,334.07142761775424,4257.6,-318.4285866873605,334.07142761775424,4359.2,-318.4285866873605,334.07142761775424,4460.2,-318.4285866873605,334.07142761775424,4588.4,-318.4285866873605,334.07142761775424,4692.8,-318.4285866873605,334.07142761775424,4800.4,-318.4285866873605,334.07142761775424,4905.2]","[1655.4,1655.4,1000,0,655.4,""smooth"",""left"",""left"",""good_move"",4799.6,3142.7,2685.8,1656.9,456.9,""oops"",""up"",""left"",""good_move"",7904,3103.7,2712.6,4800.3,391.1,""smooth"",""up"",""up"",""good_move"",10815.2,2909.4,2528.1,7905.8,381.3,""smooth"",""up"",""up"",""good_move""]","",""
"3210","","<div style=""width:500px;"">
  <p>What determined the result of this run?</p>
  </div>","22","html-slider-response","55","555246","0.0-5.0-1.9","133","1","2025-07-18 21:45:19","1f75c3e559b7213887762d5229550c2b","78.137.213.1","Mozilla/5.0 (Windows NT 10.0; Win64; x64) AppleWebKit/537.36 (KHTML, like Gecko) Chrome/138.0.0.0 Safari/537.36","WebKit","Chrome","138.0.0.0","Windows","10.0","https://app.prolific.com/","pt-PT,pt;q=0.9,en-US;q=0.8,en;q=0.7,es;q=0.6,de;q=0.5,it;q=0.4","66aea8fcd9cd711541bf63e5","686e379bc37a29ffa5cdc956","687ac06410040bee26691cb3","1","1","66aea8fcd9cd711541bf63e5","1","1","2025-07-18T21:54:35.439Z","","","","","","","","","","","AttribQ","","50","","","","","","","","","","","","","","","","","","","","","","","","","","","","",""
"4186","","<div style=""width:500px;"">
  <p>How much control did you have over the ball?</p>
  </div>","84","html-slider-response","56","559438","0.0-5.0-2.9","133","1","2025-07-18 21:45:19","1f75c3e559b7213887762d5229550c2b","78.137.213.1","Mozilla/5.0 (Windows NT 10.0; Win64; x64) AppleWebKit/537.36 (KHTML, like Gecko) Chrome/138.0.0.0 Safari/537.36","WebKit","Chrome","138.0.0.0","Windows","10.0","https://app.prolific.com/","pt-PT,pt;q=0.9,en-US;q=0.8,en;q=0.7,es;q=0.6,de;q=0.5,it;q=0.4","66aea8fcd9cd711541bf63e5","686e379bc37a29ffa5cdc956","687ac06410040bee26691cb3","1","1","66aea8fcd9cd711541bf63e5","1","1","2025-07-18T21:54:39.630Z","","","","","","","","","","","ControlQ","","50","","","","","","","","","","","","","","","","","","","","","","","","","","","","",""
"3817","","<div style=""width:500px;"">
  <p>How would you describe your current emotional state?</p>
  </div>","100","html-slider-response","57","563257","0.0-5.0-3.9","133","1","2025-07-18 21:45:19","1f75c3e559b7213887762d5229550c2b","78.137.213.1","Mozilla/5.0 (Windows NT 10.0; Win64; x64) AppleWebKit/537.36 (KHTML, like Gecko) Chrome/138.0.0.0 Safari/537.36","WebKit","Chrome","138.0.0.0","Windows","10.0","https://app.prolific.com/","pt-PT,pt;q=0.9,en-US;q=0.8,en;q=0.7,es;q=0.6,de;q=0.5,it;q=0.4","66aea8fcd9cd711541bf63e5","686e379bc37a29ffa5cdc956","687ac06410040bee26691cb3","1","1","66aea8fcd9cd711541bf63e5","1","1","2025-07-18T21:54:43.450Z","","","","","","","","","","","StressQ","","50","","","","","","","","","","","","","","","","","","","","","","","","","","","","",""
"1863","","<div style=""width:500px;"">
  <p>What best describes how you currently feel?</p>
  </div>","0","html-slider-response","58","565126","0.0-5.0-4.9","133","1","2025-07-18 21:45:19","1f75c3e559b7213887762d5229550c2b","78.137.213.1","Mozilla/5.0 (Windows NT 10.0; Win64; x64) AppleWebKit/537.36 (KHTML, like Gecko) Chrome/138.0.0.0 Safari/537.36","WebKit","Chrome","138.0.0.0","Windows","10.0","https://app.prolific.com/","pt-PT,pt;q=0.9,en-US;q=0.8,en;q=0.7,es;q=0.6,de;q=0.5,it;q=0.4","66aea8fcd9cd711541bf63e5","686e379bc37a29ffa5cdc956","687ac06410040bee26691cb3","1","1","66aea8fcd9cd711541bf63e5","1","1","2025-07-18T21:54:45.319Z","","","","","","","","","","","MotivationQ","","50","","","","","","","","","","","","","","","","","","","","","","","","","","","","",""
"","","","","ctl-task-cpt","59","608832","0.0-5.0-0.10","133","1","2025-07-18 21:45:19","1f75c3e559b7213887762d5229550c2b","78.137.213.1","Mozilla/5.0 (Windows NT 10.0; Win64; x64) AppleWebKit/537.36 (KHTML, like Gecko) Chrome/138.0.0.0 Safari/537.36","WebKit","Chrome","138.0.0.0","Windows","10.0","https://app.prolific.com/","pt-PT,pt;q=0.9,en-US;q=0.8,en;q=0.7,es;q=0.6,de;q=0.5,it;q=0.4","66aea8fcd9cd711541bf63e5","686e379bc37a29ffa5cdc956","687ac06410040bee26691cb3","1","1","66aea8fcd9cd711541bf63e5","1","1","2025-07-18T21:55:29.024Z","","","","","","","","","","","","","","win-only","0","g1:NW,g2:SE","0.5","11","0","567553.3","9930.7","14933.9","40678","1","4","4","6","1","1","1","30","29","0.22727272727272727","1332.2","3000","2095","[""left"",""up""]","{""num_key_presses"":8,""num_perfect"":5,""num_errors"":0,""num_randdir"":3,""num_randdir_good_moves"":1,""num_whilered"":0,""num_whileblue"":0,""num_blue"":0,""num_good_moves"":6}","[425.3214133126395,416.57142761775424,0.6,425.3214133126395,416.57142761775424,144.8,425.3214133126395,416.57142761775424,266.6,425.3214133126395,416.57142761775424,366.8,425.3214133126395,416.57142761775424,473.4,425.3214133126395,416.57142761775424,575.9,425.3214133126395,416.57142761775424,682.6,286.5714133126395,249.07142761775424,808,206.5714133126395,151.57142761775424,959.6,201.5714133126395,146.57142761775424,1069.2,154.0714133126395,121.57142761775425,1177.5,127.8214133126395,112.82142761775425,1278.1,124.0714133126395,112.82142761775425,1387.7,124.0714133126395,112.82142761775425,1496.5,124.0714133126395,112.82142761775425,1601.2,124.0714133126395,112.82142761775425,1722.8,-282.1785866873605,362.82142761775424,1829.9,-282.1785866873605,362.82142761775424,1934.6,-282.1785866873605,362.82142761775424,2046.6,-282.1785866873605,362.82142761775424,2149.8,-282.1785866873605,362.82142761775424,2253.6,-282.1785866873605,362.82142761775424,2363.7,-282.1785866873605,362.82142761775424,2469.5,-282.1785866873605,362.82142761775424,2577.6,-282.1785866873605,362.82142761775424,2688.7,-282.1785866873605,362.82142761775424,2792.7,-282.1785866873605,362.82142761775424,2900.7,-282.1785866873605,362.82142761775424,3003.5,-282.1785866873605,362.82142761775424,3104.5,-282.1785866873605,362.82142761775424,3213.2,-282.1785866873605,362.82142761775424,3317.9,-282.1785866873605,362.82142761775424,3419.8,-282.1785866873605,362.82142761775424,3522.4,-282.1785866873605,362.82142761775424,3631.8,-282.1785866873605,362.82142761775424,3735.2,-282.1785866873605,362.82142761775424,3841.9,-282.1785866873605,362.82142761775424,3949.5,-282.1785866873605,362.82142761775424,4052.4,-282.1785866873605,362.82142761775424,4160.1,-282.1785866873605,362.82142761775424,4269.8,-282.1785866873605,362.82142761775424,4382.9,-282.1785866873605,362.82142761775424,4485.4,-282.1785866873605,362.82142761775424,4595,-282.1785866873605,362.82142761775424,4703.6,-282.1785866873605,362.82142761775424,4808.9,-282.1785866873605,362.82142761775424,4917.3]","[1613.4,1613.4,1000,0,613.4,""smooth"",""left"",""left"",""good_move"",4948,3333.2,2154.1,1614.8,1179.1,""smooth"",""up"",""up"",""good_move"",8809.2,3860.1,2662.1,4949.1,1198,""oops"",""up"",""right"",""bad_move"",12682.3,3871.3,3451.8,8811.1,419.5,""oops"",""left"",""right"",""bad_move"",16019.6,3334.4,2965.9,12685.2,368.5,""oops"",""up"",""left"",""good_move"",18914.6,2894.2,2548.7,16020.5,345.4,""smooth"",""up"",""up"",""good_move"",22119.9,3204.4,2822.1,18915.5,382.3,""smooth"",""left"",""left"",""good_move"",25528.4,3407.6,2986.4,22120.8,421.2,""smooth"",""left"",""left"",""good_move""]","",""
"2499","","<div style=""width:500px;"">
  <p>What determined the result of this run?</p>
  </div>","12","html-slider-response","60","611334","0.0-5.0-1.10","133","1","2025-07-18 21:45:19","1f75c3e559b7213887762d5229550c2b","78.137.213.1","Mozilla/5.0 (Windows NT 10.0; Win64; x64) AppleWebKit/537.36 (KHTML, like Gecko) Chrome/138.0.0.0 Safari/537.36","WebKit","Chrome","138.0.0.0","Windows","10.0","https://app.prolific.com/","pt-PT,pt;q=0.9,en-US;q=0.8,en;q=0.7,es;q=0.6,de;q=0.5,it;q=0.4","66aea8fcd9cd711541bf63e5","686e379bc37a29ffa5cdc956","687ac06410040bee26691cb3","1","1","66aea8fcd9cd711541bf63e5","1","1","2025-07-18T21:55:31.527Z","","","","","","","","","","","AttribQ","","50","","","","","","","","","","","","","","","","","","","","","","","","","","","","",""
"1983","","<div style=""width:500px;"">
  <p>How much control did you have over the ball?</p>
  </div>","75","html-slider-response","61","613322","0.0-5.0-2.10","133","1","2025-07-18 21:45:19","1f75c3e559b7213887762d5229550c2b","78.137.213.1","Mozilla/5.0 (Windows NT 10.0; Win64; x64) AppleWebKit/537.36 (KHTML, like Gecko) Chrome/138.0.0.0 Safari/537.36","WebKit","Chrome","138.0.0.0","Windows","10.0","https://app.prolific.com/","pt-PT,pt;q=0.9,en-US;q=0.8,en;q=0.7,es;q=0.6,de;q=0.5,it;q=0.4","66aea8fcd9cd711541bf63e5","686e379bc37a29ffa5cdc956","687ac06410040bee26691cb3","1","1","66aea8fcd9cd711541bf63e5","1","1","2025-07-18T21:55:33.515Z","","","","","","","","","","","ControlQ","","50","","","","","","","","","","","","","","","","","","","","","","","","","","","","",""
"3179","","<div style=""width:500px;"">
  <p>How would you describe your current emotional state?</p>
  </div>","85","html-slider-response","62","616505","0.0-5.0-3.10","133","1","2025-07-18 21:45:19","1f75c3e559b7213887762d5229550c2b","78.137.213.1","Mozilla/5.0 (Windows NT 10.0; Win64; x64) AppleWebKit/537.36 (KHTML, like Gecko) Chrome/138.0.0.0 Safari/537.36","WebKit","Chrome","138.0.0.0","Windows","10.0","https://app.prolific.com/","pt-PT,pt;q=0.9,en-US;q=0.8,en;q=0.7,es;q=0.6,de;q=0.5,it;q=0.4","66aea8fcd9cd711541bf63e5","686e379bc37a29ffa5cdc956","687ac06410040bee26691cb3","1","1","66aea8fcd9cd711541bf63e5","1","1","2025-07-18T21:55:36.697Z","","","","","","","","","","","StressQ","","50","","","","","","","","","","","","","","","","","","","","","","","","","","","","",""
"1444","","<div style=""width:500px;"">
  <p>What best describes how you currently feel?</p>
  </div>","9","html-slider-response","63","617953","0.0-5.0-4.10","133","1","2025-07-18 21:45:19","1f75c3e559b7213887762d5229550c2b","78.137.213.1","Mozilla/5.0 (Windows NT 10.0; Win64; x64) AppleWebKit/537.36 (KHTML, like Gecko) Chrome/138.0.0.0 Safari/537.36","WebKit","Chrome","138.0.0.0","Windows","10.0","https://app.prolific.com/","pt-PT,pt;q=0.9,en-US;q=0.8,en;q=0.7,es;q=0.6,de;q=0.5,it;q=0.4","66aea8fcd9cd711541bf63e5","686e379bc37a29ffa5cdc956","687ac06410040bee26691cb3","1","1","66aea8fcd9cd711541bf63e5","1","1","2025-07-18T21:55:38.146Z","","","","","","","","","","","MotivationQ","","50","","","","","","","","","","","","","","","","","","","","","","","","","","","","",""
"","","","","ctl-task-cpt","64","643143","0.0-5.0-0.11","133","1","2025-07-18 21:45:19","1f75c3e559b7213887762d5229550c2b","78.137.213.1","Mozilla/5.0 (Windows NT 10.0; Win64; x64) AppleWebKit/537.36 (KHTML, like Gecko) Chrome/138.0.0.0 Safari/537.36","WebKit","Chrome","138.0.0.0","Windows","10.0","https://app.prolific.com/","pt-PT,pt;q=0.9,en-US;q=0.8,en;q=0.7,es;q=0.6,de;q=0.5,it;q=0.4","66aea8fcd9cd711541bf63e5","686e379bc37a29ffa5cdc956","687ac06410040bee26691cb3","1","1","66aea8fcd9cd711541bf63e5","1","1","2025-07-18T21:56:03.335Z","","","","","","","","","","","","","","win-only","1","g1:NE,g2:SW","0.6","12","0","620381.9","6857","11862.8","22142.7","1","4","8","6","1","1","1","31","30","0.23484848484848486","1236.5","3000","2295","[""up"",""right""]","{""num_key_presses"":4,""num_perfect"":1,""num_errors"":0,""num_randdir"":3,""num_randdir_good_moves"":3,""num_whilered"":0,""num_whileblue"":0,""num_blue"":0,""num_good_moves"":4}","[426.5714133126395,416.57142761775424,0.7,426.5714133126395,416.57142761775424,106.1,426.5714133126395,416.57142761775424,207.2,426.5714133126395,416.57142761775424,325.9,426.5714133126395,416.57142761775424,458.6,426.5714133126395,416.57142761775424,572.9,520.3214133126395,305.32142761775424,699.9,641.5714133126395,152.82142761775424,815.9,669.0714133126395,106.57142761775425,920.1,701.5714133126395,72.82142761775425,1024.3,701.5714133126395,72.82142761775425,1137.6,701.5714133126395,72.82142761775425,1254.2,701.5714133126395,72.82142761775425,1409,759.0714133126395,75.32142761775425,1531.9,1096.5714133126396,265.32142761775424,1655.6,1096.5714133126396,265.32142761775424,1786.4,1096.5714133126396,265.32142761775424,1891.1,1096.5714133126396,265.32142761775424,2000.5,1096.5714133126396,265.32142761775424,2157.2,1096.5714133126396,265.32142761775424,2271.4,1096.5714133126396,265.32142761775424,2402.8,1096.5714133126396,265.32142761775424,2507.7,1096.5714133126396,265.32142761775424,2610.8,1096.5714133126396,265.32142761775424,2714.3,1096.5714133126396,265.32142761775424,2851.9,1096.5714133126396,265.32142761775424,3007.2,1096.5714133126396,265.32142761775424,3127.9,1096.5714133126396,265.32142761775424,3232.2,1096.5714133126396,265.32142761775424,3355.1,1096.5714133126396,265.32142761775424,3468.5,1096.5714133126396,265.32142761775424,3585.3,1096.5714133126396,265.32142761775424,3704.9,1096.5714133126396,265.32142761775424,3810.3,1096.5714133126396,265.32142761775424,3917.2,1096.5714133126396,265.32142761775424,4018.2,1096.5714133126396,265.32142761775424,4122.5,1096.5714133126396,265.32142761775424,4243,1096.5714133126396,265.32142761775424,4357.5,1096.5714133126396,265.32142761775424,4468.7,1096.5714133126396,265.32142761775424,4585.6,1096.5714133126396,265.32142761775424,4731.8,1096.5714133126396,265.32142761775424,4833.6,1096.5714133126396,265.32142761775424,4939.1]","[1603.3,1603.3,1000,0,603.3,""oops"",""up"",""right"",""good_move"",4443.4,2838.7,2302.8,1604.8,535.8,""oops"",""up"",""up"",""good_move"",7458.6,3014.2,2567.2,4444.5,446.9,""oops"",""up"",""up"",""good_move"",10080.6,2621,1567.8,7459.6,1053.2,""smooth"",""right"",""right"",""good_move""]","",""
"3525","","<div style=""width:500px;"">
  <p>What determined the result of this run?</p>
  </div>","13","html-slider-response","65","646670","0.0-5.0-1.11","133","1","2025-07-18 21:45:19","1f75c3e559b7213887762d5229550c2b","78.137.213.1","Mozilla/5.0 (Windows NT 10.0; Win64; x64) AppleWebKit/537.36 (KHTML, like Gecko) Chrome/138.0.0.0 Safari/537.36","WebKit","Chrome","138.0.0.0","Windows","10.0","https://app.prolific.com/","pt-PT,pt;q=0.9,en-US;q=0.8,en;q=0.7,es;q=0.6,de;q=0.5,it;q=0.4","66aea8fcd9cd711541bf63e5","686e379bc37a29ffa5cdc956","687ac06410040bee26691cb3","1","1","66aea8fcd9cd711541bf63e5","1","1","2025-07-18T21:56:06.862Z","","","","","","","","","","","AttribQ","","50","","","","","","","","","","","","","","","","","","","","","","","","","","","","",""
"2888","","<div style=""width:500px;"">
  <p>How much control did you have over the ball?</p>
  </div>","85","html-slider-response","66","649560","0.0-5.0-2.11","133","1","2025-07-18 21:45:19","1f75c3e559b7213887762d5229550c2b","78.137.213.1","Mozilla/5.0 (Windows NT 10.0; Win64; x64) AppleWebKit/537.36 (KHTML, like Gecko) Chrome/138.0.0.0 Safari/537.36","WebKit","Chrome","138.0.0.0","Windows","10.0","https://app.prolific.com/","pt-PT,pt;q=0.9,en-US;q=0.8,en;q=0.7,es;q=0.6,de;q=0.5,it;q=0.4","66aea8fcd9cd711541bf63e5","686e379bc37a29ffa5cdc956","687ac06410040bee26691cb3","1","1","66aea8fcd9cd711541bf63e5","1","1","2025-07-18T21:56:09.753Z","","","","","","","","","","","ControlQ","","50","","","","","","","","","","","","","","","","","","","","","","","","","","","","",""
"2518","","<div style=""width:500px;"">
  <p>How would you describe your current emotional state?</p>
  </div>","83","html-slider-response","67","652084","0.0-5.0-3.11","133","1","2025-07-18 21:45:19","1f75c3e559b7213887762d5229550c2b","78.137.213.1","Mozilla/5.0 (Windows NT 10.0; Win64; x64) AppleWebKit/537.36 (KHTML, like Gecko) Chrome/138.0.0.0 Safari/537.36","WebKit","Chrome","138.0.0.0","Windows","10.0","https://app.prolific.com/","pt-PT,pt;q=0.9,en-US;q=0.8,en;q=0.7,es;q=0.6,de;q=0.5,it;q=0.4","66aea8fcd9cd711541bf63e5","686e379bc37a29ffa5cdc956","687ac06410040bee26691cb3","1","1","66aea8fcd9cd711541bf63e5","1","1","2025-07-18T21:56:12.277Z","","","","","","","","","","","StressQ","","50","","","","","","","","","","","","","","","","","","","","","","","","","","","","",""
"1365","","<div style=""width:500px;"">
  <p>What best describes how you currently feel?</p>
  </div>","10","html-slider-response","68","653454","0.0-5.0-4.11","133","1","2025-07-18 21:45:19","1f75c3e559b7213887762d5229550c2b","78.137.213.1","Mozilla/5.0 (Windows NT 10.0; Win64; x64) AppleWebKit/537.36 (KHTML, like Gecko) Chrome/138.0.0.0 Safari/537.36","WebKit","Chrome","138.0.0.0","Windows","10.0","https://app.prolific.com/","pt-PT,pt;q=0.9,en-US;q=0.8,en;q=0.7,es;q=0.6,de;q=0.5,it;q=0.4","66aea8fcd9cd711541bf63e5","686e379bc37a29ffa5cdc956","687ac06410040bee26691cb3","1","1","66aea8fcd9cd711541bf63e5","1","1","2025-07-18T21:56:13.647Z","","","","","","","","","","","MotivationQ","","50","","","","","","","","","","","","","","","","","","","","","","","","","","","","",""
"","","","","ctl-task-cpt","69","690478","0.0-5.0-0.12","133","1","2025-07-18 21:45:19","1f75c3e559b7213887762d5229550c2b","78.137.213.1","Mozilla/5.0 (Windows NT 10.0; Win64; x64) AppleWebKit/537.36 (KHTML, like Gecko) Chrome/138.0.0.0 Safari/537.36","WebKit","Chrome","138.0.0.0","Windows","10.0","https://app.prolific.com/","pt-PT,pt;q=0.9,en-US;q=0.8,en;q=0.7,es;q=0.6,de;q=0.5,it;q=0.4","66aea8fcd9cd711541bf63e5","686e379bc37a29ffa5cdc956","687ac06410040bee26691cb3","1","1","66aea8fcd9cd711541bf63e5","1","1","2025-07-18T21:56:50.670Z","","","","","","","","","","","","","","win-only","3","g1:SW,g2:NE","0.7","13","0","655881.7","6840.2","11845.6","34000","1","4","8","6","1","1","1","32","31","0.24242424242424243","1696.7","3000","2225","[""down"",""left""]","{""num_key_presses"":6,""num_perfect"":4,""num_errors"":0,""num_randdir"":2,""num_randdir_good_moves"":1,""num_whilered"":0,""num_whileblue"":0,""num_blue"":1,""num_good_moves"":5}","[414.0714133126395,409.07142761775424,2.3,414.0714133126395,411.57142761775424,100.4,414.0714133126395,411.57142761775424,236.7,414.0714133126395,411.57142761775424,336.7,414.0714133126395,411.57142761775424,466,414.0714133126395,411.57142761775424,575.7,414.0714133126395,411.57142761775424,684.7,414.0714133126395,411.57142761775424,789.2,414.0714133126395,411.57142761775424,892.6,414.0714133126395,411.57142761775424,993.8,195.3214133126395,586.5714276177542,1103.2,146.5714133126395,631.5714276177542,1232.7,116.5714133126395,652.8214276177542,1337.4,102.8214133126395,664.0714276177542,1440.2,102.8214133126395,664.0714276177542,1541.2,80.3214133126395,741.5714276177542,1650.6,80.3214133126395,742.8214276177542,1758.4,80.3214133126395,742.8214276177542,1871,55.32141331263951,726.5714276177542,1983.3,-173.4285866873605,655.3214276177542,2086,-173.4285866873605,655.3214276177542,2198.3,-173.4285866873605,655.3214276177542,2306.1,-173.4285866873605,655.3214276177542,2418.2,-173.4285866873605,655.3214276177542,2522.5,-173.4285866873605,655.3214276177542,2631.9,-173.4285866873605,655.3214276177542,2733.6,-173.4285866873605,655.3214276177542,2839.1,-173.4285866873605,655.3214276177542,2943,-173.4285866873605,655.3214276177542,3057.4,-173.4285866873605,655.3214276177542,3171,-173.4285866873605,655.3214276177542,3280.3,-173.4285866873605,655.3214276177542,3391.1,-173.4285866873605,655.3214276177542,3504.7,-173.4285866873605,655.3214276177542,3612.4,-173.4285866873605,655.3214276177542,3724.4,-173.4285866873605,655.3214276177542,3833.7,-173.4285866873605,655.3214276177542,3943.3,-173.4285866873605,655.3214276177542,4056.4,-173.4285866873605,655.3214276177542,4168.6,-173.4285866873605,655.3214276177542,4270.4,-173.4285866873605,655.3214276177542,4384.3,-173.4285866873605,655.3214276177542,4489.3,-173.4285866873605,655.3214276177542,4592.3,-173.4285866873605,655.3214276177542,4702.6,-173.4285866873605,655.3214276177542,4808.9,-173.4285866873605,655.3214276177542,4924.3]","[1508.9,1508.9,1000,0,508.9,""smooth"",""left"",""left"",""good_move"",5279.2,3769.4,2631.1,1509.8,1138.3,""oops"",""down"",""up"",""bad_move"",9173.8,3893,2736.6,5280.9,1156.4,""smooth"",""down"",""down"",""good_move"",15623.2,6447.5,2635.5,12450.2,537.5,""smooth"",""left"",""left"",""good_move"",18643.1,3018.9,2491.6,15624.3,527.2,""smooth"",""down"",""down"",""good_move"",21835.8,3191.8,2810.4,18644,381.4,""oops"",""down"",""down"",""good_move""]","",""
"3880","","<div style=""width:500px;"">
  <p>What determined the result of this run?</p>
  </div>","19","html-slider-response","70","694363","0.0-5.0-1.12","133","1","2025-07-18 21:45:19","1f75c3e559b7213887762d5229550c2b","78.137.213.1","Mozilla/5.0 (Windows NT 10.0; Win64; x64) AppleWebKit/537.36 (KHTML, like Gecko) Chrome/138.0.0.0 Safari/537.36","WebKit","Chrome","138.0.0.0","Windows","10.0","https://app.prolific.com/","pt-PT,pt;q=0.9,en-US;q=0.8,en;q=0.7,es;q=0.6,de;q=0.5,it;q=0.4","66aea8fcd9cd711541bf63e5","686e379bc37a29ffa5cdc956","687ac06410040bee26691cb3","1","1","66aea8fcd9cd711541bf63e5","1","1","2025-07-18T21:56:54.555Z","","","","","","","","","","","AttribQ","","50","","","","","","","","","","","","","","","","","","","","","","","","","","","","",""
"4051","","<div style=""width:500px;"">
  <p>How much control did you have over the ball?</p>
  </div>","77","html-slider-response","71","698417","0.0-5.0-2.12","133","1","2025-07-18 21:45:19","1f75c3e559b7213887762d5229550c2b","78.137.213.1","Mozilla/5.0 (Windows NT 10.0; Win64; x64) AppleWebKit/537.36 (KHTML, like Gecko) Chrome/138.0.0.0 Safari/537.36","WebKit","Chrome","138.0.0.0","Windows","10.0","https://app.prolific.com/","pt-PT,pt;q=0.9,en-US;q=0.8,en;q=0.7,es;q=0.6,de;q=0.5,it;q=0.4","66aea8fcd9cd711541bf63e5","686e379bc37a29ffa5cdc956","687ac06410040bee26691cb3","1","1","66aea8fcd9cd711541bf63e5","1","1","2025-07-18T21:56:58.609Z","","","","","","","","","","","ControlQ","","50","","","","","","","","","","","","","","","","","","","","","","","","","","","","",""
"3370","","<div style=""width:500px;"">
  <p>How would you describe your current emotional state?</p>
  </div>","84","html-slider-response","72","701790","0.0-5.0-3.12","133","1","2025-07-18 21:45:19","1f75c3e559b7213887762d5229550c2b","78.137.213.1","Mozilla/5.0 (Windows NT 10.0; Win64; x64) AppleWebKit/537.36 (KHTML, like Gecko) Chrome/138.0.0.0 Safari/537.36","WebKit","Chrome","138.0.0.0","Windows","10.0","https://app.prolific.com/","pt-PT,pt;q=0.9,en-US;q=0.8,en;q=0.7,es;q=0.6,de;q=0.5,it;q=0.4","66aea8fcd9cd711541bf63e5","686e379bc37a29ffa5cdc956","687ac06410040bee26691cb3","1","1","66aea8fcd9cd711541bf63e5","1","1","2025-07-18T21:57:01.983Z","","","","","","","","","","","StressQ","","50","","","","","","","","","","","","","","","","","","","","","","","","","","","","",""
"1987","","<div style=""width:500px;"">
  <p>What best describes how you currently feel?</p>
  </div>","9","html-slider-response","73","703782","0.0-5.0-4.12","133","1","2025-07-18 21:45:19","1f75c3e559b7213887762d5229550c2b","78.137.213.1","Mozilla/5.0 (Windows NT 10.0; Win64; x64) AppleWebKit/537.36 (KHTML, like Gecko) Chrome/138.0.0.0 Safari/537.36","WebKit","Chrome","138.0.0.0","Windows","10.0","https://app.prolific.com/","pt-PT,pt;q=0.9,en-US;q=0.8,en;q=0.7,es;q=0.6,de;q=0.5,it;q=0.4","66aea8fcd9cd711541bf63e5","686e379bc37a29ffa5cdc956","687ac06410040bee26691cb3","1","1","66aea8fcd9cd711541bf63e5","1","1","2025-07-18T21:57:03.974Z","","","","","","","","","","","MotivationQ","","50","","","","","","","","","","","","","","","","","","","","","","","","","","","","",""
"","","","","ctl-task-cpt","74","727526","0.0-5.0-0.13","133","1","2025-07-18 21:45:19","1f75c3e559b7213887762d5229550c2b","78.137.213.1","Mozilla/5.0 (Windows NT 10.0; Win64; x64) AppleWebKit/537.36 (KHTML, like Gecko) Chrome/138.0.0.0 Safari/537.36","WebKit","Chrome","138.0.0.0","Windows","10.0","https://app.prolific.com/","pt-PT,pt;q=0.9,en-US;q=0.8,en;q=0.7,es;q=0.6,de;q=0.5,it;q=0.4","66aea8fcd9cd711541bf63e5","686e379bc37a29ffa5cdc956","687ac06410040bee26691cb3","1","1","66aea8fcd9cd711541bf63e5","1","1","2025-07-18T21:57:27.718Z","","","","","","","","","","","","","","win-only","3","g1:SW,g2:NE","0.8","14","0","706212.4","1065.9","6089.3","20673.3","1","4","4","6","1","1","1","33","32","0.25","1068.3","3000","2750","[""down"",""left""]","{""num_key_presses"":4,""num_perfect"":3,""num_errors"":0,""num_randdir"":1,""num_randdir_good_moves"":1,""num_whilered"":0,""num_whileblue"":0,""num_blue"":0,""num_good_moves"":4}","[419.0714133126395,426.57142761775424,1,419.0714133126395,426.57142761775424,116.8,419.0714133126395,426.57142761775424,255.7,419.0714133126395,426.57142761775424,363,419.0714133126395,426.57142761775424,475.1,420.3214133126395,421.57142761775424,580.9,417.8214133126395,431.57142761775424,693.5,77.8214133126395,702.8214276177542,817.3,75.3214133126395,736.5714276177542,928.9,74.0714133126395,750.3214276177542,1043.2,74.0714133126395,750.3214276177542,1161.8,74.0714133126395,750.3214276177542,1274.1,-385.9285866873605,611.5714276177542,1391.4,-385.9285866873605,611.5714276177542,1524.2,-385.9285866873605,611.5714276177542,1636.6,-385.9285866873605,611.5714276177542,1747,-385.9285866873605,611.5714276177542,1847.4,-385.9285866873605,611.5714276177542,1954.2,-385.9285866873605,611.5714276177542,2060.9,-385.9285866873605,611.5714276177542,2170.7,-385.9285866873605,611.5714276177542,2274.5,-385.9285866873605,611.5714276177542,2386.5,-385.9285866873605,611.5714276177542,2517.9,-385.9285866873605,611.5714276177542,2618.8,-385.9285866873605,611.5714276177542,2720.5,-385.9285866873605,611.5714276177542,2831.9,-385.9285866873605,611.5714276177542,2942.2,-385.9285866873605,611.5714276177542,3060,-385.9285866873605,611.5714276177542,3172.5,-385.9285866873605,611.5714276177542,3279.5,-385.9285866873605,611.5714276177542,3381.1,-385.9285866873605,611.5714276177542,3490.7,-385.9285866873605,611.5714276177542,3602.3,-385.9285866873605,611.5714276177542,3705.3,-385.9285866873605,611.5714276177542,3811.3,-385.9285866873605,611.5714276177542,3918.4,-385.9285866873605,611.5714276177542,4024,-385.9285866873605,611.5714276177542,4125.9,-385.9285866873605,611.5714276177542,4235.7,-385.9285866873605,611.5714276177542,4345.6,-385.9285866873605,611.5714276177542,4452.9,-385.9285866873605,611.5714276177542,4594.2,-385.9285866873605,611.5714276177542,4695.2,-385.9285866873605,611.5714276177542,4806.3,-385.9285866873605,611.5714276177542,4908.7]","[1483.6,1483.6,1000,0,483.7,""smooth"",""left"",""left"",""good_move"",7999.1,6514.9,2218.6,1484.2,4296.3,""smooth"",""down"",""down"",""good_move"",11123.7,3124,2553.4,7999.7,570.7,""oops"",""left"",""down"",""good_move"",13882.9,2758.9,2344.4,11124.1,414.4,""smooth"",""left"",""left"",""good_move""]","",""
"1976","","<div style=""width:500px;"">
  <p>What determined the result of this run?</p>
