"rt","response_timestamp","stimulus","response","trial_type","trial_index","time_elapsed","internal_node_id","run_id","condition","recorded_at","source_code_version","ip","user_agent","device","browser","browser_version","platform","platform_version","referer","accept_language","PROLIFIC_PID","STUDY_ID","SESSION_ID","WEEK","BATCH","prolific_id","week","batch","realtime","success","responses","item_order","radio_event_ids","radio_event_times","key_event_times","mouse_event_times","straightlining","zigzagging","honeypot","eventType","view_history","slider_start","which_type","canvas_config","goals_layout","control_level","trial_number","tutorial_trial_number","trial_start_time","phase1_start_time","phase2_start_time","phase3_start_time","goal_1_value","goal_1_distance","goal_2_value","goal_2_distance","goal_selected","outcome","outcome_total","participant_final_score","participant_initial_score","participant_final_score_prop","goal_choice_rt","allocated_time","allocated_time_remaining","goal_direction","counts","mouse_movements","key_presses","question_order","question_id"
"4169","1753254510278","<p style='font-size:40px;line-height:1.25'><strong>Welcome to the experiment!</strong></p><p style='font-size:1.1em;line-height:1.25'>Thank you for participanting in our experiment again! You will be asked to play the Dysfunctional Ball Game again. We will briefly recap the rules before we start.</p><p style='font-size:1.1em;line-height:1.25'>Press <strong>Next</strong> to continue.</p>","0","custom-html-button-response","0","4175","0.0-0.0","170","1","2025-07-23 07:08:06","1f75c3e559b7213887762d5229550c2b","102.66.141.144","Mozilla/5.0 (Windows NT 10.0; Win64; x64) AppleWebKit/537.36 (KHTML, like Gecko) Chrome/137.0.0.0 Safari/537.36","WebKit","Chrome","137.0.0.0","Windows","10.0","https://app.prolific.com/","en-US,en;q=0.9","60f41ae35227aa02240ba0d9","683db9eb0562dbf637994deb","6880849d560983474c70b6c3","2","1","60f41ae35227aa02240ba0d9","2","1","2025-07-23T07:08:30.281Z","","","","","","","","","","","","","","","","","","","","","","","","","","","","","","","","","","","","","","","","","",""
"1807","","","","fullscreen","1","7016","0.0-1.0","170","1","2025-07-23 07:08:06","1f75c3e559b7213887762d5229550c2b","102.66.141.144","Mozilla/5.0 (Windows NT 10.0; Win64; x64) AppleWebKit/537.36 (KHTML, like Gecko) Chrome/137.0.0.0 Safari/537.36","WebKit","Chrome","137.0.0.0","Windows","10.0","https://app.prolific.com/","en-US,en;q=0.9","60f41ae35227aa02240ba0d9","683db9eb0562dbf637994deb","6880849d560983474c70b6c3","2","1","60f41ae35227aa02240ba0d9","2","1","","true","","","","","","","","","","","","","","","","","","","","","","","","","","","","","","","","","","","","","","","","",""
"13219","1753254526343","<p style='font-size:1.1em;line-height:1.25'>In the following, we will ask you a few questions relating to your feelings in the last 24 hours.<br></p><p style='font-size:1.1em;line-height:1.25'>Press the <strong>Next</strong> button to continue.</p>","0","custom-html-button-response","2","20239","0.0-2.0-0.0","170","1","2025-07-23 07:08:06","1f75c3e559b7213887762d5229550c2b","102.66.141.144","Mozilla/5.0 (Windows NT 10.0; Win64; x64) AppleWebKit/537.36 (KHTML, like Gecko) Chrome/137.0.0.0 Safari/537.36","WebKit","Chrome","137.0.0.0","Windows","10.0","https://app.prolific.com/","en-US,en;q=0.9","60f41ae35227aa02240ba0d9","683db9eb0562dbf637994deb","6880849d560983474c70b6c3","2","1","60f41ae35227aa02240ba0d9","2","1","2025-07-23T07:08:46.345Z","","","","","","","","","","","","","","","","","","","","","","","","","","","","","","","","","","","","","","","","","",""
"96000.6000000001","","","","survey-template","3","119414","0.0-2.0-1.0","170","1","2025-07-23 07:08:06","1f75c3e559b7213887762d5229550c2b","102.66.141.144","Mozilla/5.0 (Windows NT 10.0; Win64; x64) AppleWebKit/537.36 (KHTML, like Gecko) Chrome/137.0.0.0 Safari/537.36","WebKit","Chrome","137.0.0.0","Windows","10.0","https://app.prolific.com/","en-US,en;q=0.9","60f41ae35227aa02240ba0d9","683db9eb0562dbf637994deb","6880849d560983474c70b6c3","2","1","60f41ae35227aa02240ba0d9","2","1","2025-07-23T07:10:25.679Z","","{""Q01"":""0"",""Q02"":""0"",""Q03"":""0"",""Q04"":""0"",""Q05"":""0"",""Q06"":""0"",""Q07"":""0"",""Q08"":""0"",""Q09"":""0"",""Q10"":""0"",""Q11"":""1"",""Q12"":""1"",""Q13"":""5"",""Q14"":""2"",""Q15"":""0"",""Q16"":""1"",""Q17"":""0"",""Q18"":""0"",""Q19"":""1"",""Q20"":""0"",""Q21"":""0"",""Q22"":""0""}","[0,1,2,3,4,5,6,7,8,9,10,11,12,13,14,15,16,17,18,19,20,21]","[""Q01"",""Q02"",""Q03"",""Q04"",""Q05"",""Q06"",""Q07"",""Q08"",""Q09"",""Q10"",""Q11"",""Q12"",""Q12"",""Q13"",""Q14"",""Q15"",""Q16"",""Q17"",""Q18"",""Q19"",""Q20"",""Q21"",""Q21"",""Q21"",""Q22""]","[5604.600000000093,7220.600000000093,8568.40000000014,10120.600000000093,11504.200000000186,14419,15835.5,24040.200000000186,28988.90000000014,30585.600000000093,34312.60000000009,37347.80000000005,39369.5,44168.80000000005,51417.200000000186,53715.700000000186,57300.30000000005,59395.200000000186,60917.30000000005,69932,76181.80000000005,82678.1000000001,83094.40000000014,84218.6000000001,88647.90000000014]","[]","[0.4000000001396984,5604.600000000093,7220.600000000093,8568.40000000014,10120.600000000093,11504.200000000186,13603.600000000093,14419,15835.5,24040.200000000186,25718.600000000093,28988.90000000014,30585.600000000093,34312.60000000009,37347.80000000005,38572.60000000009,39369.5,44168.80000000005,51417.200000000186,53715.700000000186,57300.30000000005,59395.200000000186,60917.30000000005,68604.1000000001,69932,76181.80000000005,82678.1000000001,83094.40000000014,84218.6000000001,88647.90000000014,91781.1000000001]","0.7272727272727273","0.23809523809523808","0","drsp","","","","","","","","","","","","","","","","","","","","","","","","","","","","","","",""
"188942.19999999995","","","","survey-template","4","312822","0.0-2.0-2.0","170","1","2025-07-23 07:08:06","1f75c3e559b7213887762d5229550c2b","102.66.141.144","Mozilla/5.0 (Windows NT 10.0; Win64; x64) AppleWebKit/537.36 (KHTML, like Gecko) Chrome/137.0.0.0 Safari/537.36","WebKit","Chrome","137.0.0.0","Windows","10.0","https://app.prolific.com/","en-US,en;q=0.9","60f41ae35227aa02240ba0d9","683db9eb0562dbf637994deb","6880849d560983474c70b6c3","2","1","60f41ae35227aa02240ba0d9","2","1","2025-07-23T07:13:38.934Z","","{""Q01"":""0"",""Q02"":""5"",""Q03"":""0""}","[0,1,2]","[""Q01"",""Q01"",""Q01"",""Q01"",""Q02"",""Q03""]","[164639.69999999995,166536.6000000001,168052.80000000005,171490.6000000001,174254.69999999995,176941]","[]","[3351.6999999999534,3409.8000000000466,4206.699999999953,11032.600000000093,11300,16330.40000000014,16593.600000000093,43917.80000000005,44273.40000000014,46204.90000000014,46390,48039.69999999995,48884.19999999995,49144.90000000014,49351.60000000009,69085.40000000014,69300.80000000005,90856.6000000001,91085.69999999995,91301.30000000005,93060.5,93265.69999999995,101576.80000000005,101835.69999999995,102069.1000000001,102282.19999999995,105322.6000000001,105491.69999999995,105726.40000000014,105949.19999999995,106220.30000000005,106430.5,106593.5,106856.1000000001,107092.80000000005,107331.90000000014,107535.5,107746.6000000001,109161.40000000014,109357.40000000014,109574.80000000005,161338.6000000001,164639.69999999995,166536.6000000001,168052.80000000005,171490.6000000001,172350,174254.69999999995,176941,188893.40000000014]","1","0","0","stress","","","","","","","","","","","","","","","","","","","","","","","","","","","","","","",""
"5040","","","","instructions","5","317939","0.0-3.0-0.0","170","1","2025-07-23 07:08:06","1f75c3e559b7213887762d5229550c2b","102.66.141.144","Mozilla/5.0 (Windows NT 10.0; Win64; x64) AppleWebKit/537.36 (KHTML, like Gecko) Chrome/137.0.0.0 Safari/537.36","WebKit","Chrome","137.0.0.0","Windows","10.0","https://app.prolific.com/","en-US,en;q=0.9","60f41ae35227aa02240ba0d9","683db9eb0562dbf637994deb","6880849d560983474c70b6c3","2","1","60f41ae35227aa02240ba0d9","2","1","","","","","","","","","","","","","[{""page_index"":0,""viewing_time"":5038}]","","","","","","","","","","","","","","","","","","","","","","","","","","","","","",""
"6308","","<p>Before you start with this game please answer the following three questions yourself. </p>
  <p>Through this game, we measure several aspects of your cognitive performance, such as reaction times, multi-tasking capabilities </p>
  <p>and the ability to assess the situation you are in.</p>
  <p></p>
  <p><b>How good do you usually are in such tasks?</b></p>","92","html-slider-response","6","324328","0.0-4.0-0.0","170","1","2025-07-23 07:08:06","1f75c3e559b7213887762d5229550c2b","102.66.141.144","Mozilla/5.0 (Windows NT 10.0; Win64; x64) AppleWebKit/537.36 (KHTML, like Gecko) Chrome/137.0.0.0 Safari/537.36","WebKit","Chrome","137.0.0.0","Windows","10.0","https://app.prolific.com/","en-US,en;q=0.9","60f41ae35227aa02240ba0d9","683db9eb0562dbf637994deb","6880849d560983474c70b6c3","2","1","60f41ae35227aa02240ba0d9","2","1","2025-07-23T07:13:50.434Z","","","","","","","","","","","PreSkillQ","","50","","","","","","","","","","","","","","","","","","","","","","","","","","","","",""
"3556","","<div style=""width:500px;"">
  <p>How well do you think you will perform in this task compared to other participants?</p>
  </div>","85","html-slider-response","7","327889","0.0-4.0-1.0","170","1","2025-07-23 07:08:06","1f75c3e559b7213887762d5229550c2b","102.66.141.144","Mozilla/5.0 (Windows NT 10.0; Win64; x64) AppleWebKit/537.36 (KHTML, like Gecko) Chrome/137.0.0.0 Safari/537.36","WebKit","Chrome","137.0.0.0","Windows","10.0","https://app.prolific.com/","en-US,en;q=0.9","60f41ae35227aa02240ba0d9","683db9eb0562dbf637994deb","6880849d560983474c70b6c3","2","1","60f41ae35227aa02240ba0d9","2","1","2025-07-23T07:13:53.994Z","","","","","","","","","","","PrePerfQ","","50","","","","","","","","","","","","","","","","","","","","","","","","","","","","",""
"7219","","<div style=""width:500px;"">
  <p>What best describes how you currently feel?</p>
  </div>","19","html-slider-response","8","335118","0.0-4.0-2.0","170","1","2025-07-23 07:08:06","1f75c3e559b7213887762d5229550c2b","102.66.141.144","Mozilla/5.0 (Windows NT 10.0; Win64; x64) AppleWebKit/537.36 (KHTML, like Gecko) Chrome/137.0.0.0 Safari/537.36","WebKit","Chrome","137.0.0.0","Windows","10.0","https://app.prolific.com/","en-US,en;q=0.9","60f41ae35227aa02240ba0d9","683db9eb0562dbf637994deb","6880849d560983474c70b6c3","2","1","60f41ae35227aa02240ba0d9","2","1","2025-07-23T07:14:01.223Z","","","","","","","","","","","PreMotivationQ","","50","","","","","","","","","","","","","","","","","","","","","","","","","","","","",""
"","","","","ctl-task-cpt","9","392815","0.0-5.0-0.0","170","1","2025-07-23 07:08:06","1f75c3e559b7213887762d5229550c2b","102.66.141.144","Mozilla/5.0 (Windows NT 10.0; Win64; x64) AppleWebKit/537.36 (KHTML, like Gecko) Chrome/137.0.0.0 Safari/537.36","WebKit","Chrome","137.0.0.0","Windows","10.0","https://app.prolific.com/","en-US,en;q=0.9","60f41ae35227aa02240ba0d9","683db9eb0562dbf637994deb","6880849d560983474c70b6c3","2","1","60f41ae35227aa02240ba0d9","2","1","2025-07-23T07:14:59.059Z","","","","","","","","","","","","","","win-only","1","g1:NE,g2:SW","1","1","0","359202.2","4345.7","9362.8","54380","1","4","8","6","2","8","8","8","0","0.06060606060606061","1487.6","3000","1160","[""down"",""left""]","{""num_key_presses"":6,""num_perfect"":6,""num_errors"":0,""num_randdir"":0,""num_randdir_good_moves"":0,""num_whilered"":0,""num_whileblue"":0,""num_blue"":4,""num_good_moves"":6}","[295.22232142857143,298.12857142857143,11.8,295.22232142857143,298.12857142857143,100.7,295.22232142857143,298.12857142857143,288.6,295.22232142857143,298.12857142857143,391.7,295.22232142857143,298.12857142857143,499.3,299.22232142857143,293.12857142857143,602.8,366.22232142857143,279.12857142857143,708.3,174.22232142857143,486.12857142857143,810,111.22232142857143,522.1285714285714,915.4,98.22232142857143,530.1285714285714,1432.7,70.22232142857143,545.1285714285714,1536,70.22232142857143,545.1285714285714,1644.4,70.22232142857143,545.1285714285714,1756.9,70.22232142857143,545.1285714285714,1862.6,70.22232142857143,545.1285714285714,1968.6,70.22232142857143,545.1285714285714,2073.9,70.22232142857143,545.1285714285714,2179.2,70.22232142857143,545.1285714285714,2303.2,70.22232142857143,545.1285714285714,2403.2,70.22232142857143,545.1285714285714,2504.5,70.22232142857143,545.1285714285714,2609.9,70.22232142857143,545.1285714285714,2717.8,70.22232142857143,545.1285714285714,2818.5,70.22232142857143,545.1285714285714,2919.4,70.22232142857143,545.1285714285714,3023.2,70.22232142857143,545.1285714285714,3123.7,70.22232142857143,545.1285714285714,3229.7,70.22232142857143,545.1285714285714,3330.3,70.22232142857143,545.1285714285714,3434.2,70.22232142857143,545.1285714285714,3539.1,70.22232142857143,545.1285714285714,3640.1,70.22232142857143,545.1285714285714,3744.6,70.22232142857143,545.1285714285714,3848.1,70.22232142857143,545.1285714285714,3950.2,70.22232142857143,545.1285714285714,4055.4,70.22232142857143,545.1285714285714,4159.5,70.22232142857143,545.1285714285714,4268.3,70.22232142857143,545.1285714285714,4374.7,70.22232142857143,545.1285714285714,4486,70.22232142857143,545.1285714285714,4608.1,70.22232142857143,545.1285714285714,4708.7,70.22232142857143,545.1285714285714,4810.6,70.22232142857143,545.1285714285714,4913.5]","[2475.1,2475.1,1000,0,1475.1,""smooth"",""down"",""down"",""good_move"",12385,9907.8,2169.1,9675.4,540.5,""smooth"",""down"",""down"",""good_move"",29698.1,17304.6,2629.5,22407.3,4661.3,""smooth"",""down"",""down"",""good_move"",32898.1,2978.1,2441.2,29920.1,536.8,""smooth"",""left"",""left"",""good_move"",38526.9,5439.8,2786.7,33087.2,2653,""smooth"",""left"",""left"",""good_move"",44619.4,6091.2,2255.4,41920,444.1,""smooth"",""left"",""left"",""good_move""]","",""
"35144","","<div style=""width:500px;"">
  <p>What determined the result of this run?</p>
  </div>","82","html-slider-response","10","430316","0.0-5.0-1.0","170","1","2025-07-23 07:08:06","1f75c3e559b7213887762d5229550c2b","102.66.141.144","Mozilla/5.0 (Windows NT 10.0; Win64; x64) AppleWebKit/537.36 (KHTML, like Gecko) Chrome/137.0.0.0 Safari/537.36","WebKit","Chrome","137.0.0.0","Windows","10.0","https://app.prolific.com/","en-US,en;q=0.9","60f41ae35227aa02240ba0d9","683db9eb0562dbf637994deb","6880849d560983474c70b6c3","2","1","60f41ae35227aa02240ba0d9","2","1","2025-07-23T07:15:36.422Z","","","","","","","","","","","AttribQ","","50","","","","","","","","","","","","","","","","","","","","","","","","","","","","",""
"4703","","<div style=""width:500px;"">
  <p>How much control did you have over the ball?</p>
  </div>","81","html-slider-response","11","435039","0.0-5.0-2.0","170","1","2025-07-23 07:08:06","1f75c3e559b7213887762d5229550c2b","102.66.141.144","Mozilla/5.0 (Windows NT 10.0; Win64; x64) AppleWebKit/537.36 (KHTML, like Gecko) Chrome/137.0.0.0 Safari/537.36","WebKit","Chrome","137.0.0.0","Windows","10.0","https://app.prolific.com/","en-US,en;q=0.9","60f41ae35227aa02240ba0d9","683db9eb0562dbf637994deb","6880849d560983474c70b6c3","2","1","60f41ae35227aa02240ba0d9","2","1","2025-07-23T07:15:41.144Z","","","","","","","","","","","ControlQ","","50","","","","","","","","","","","","","","","","","","","","","","","","","","","","",""
"6062","","<div style=""width:500px;"">
  <p>How would you describe your current emotional state?</p>
  </div>","46","html-slider-response","12","441107","0.0-5.0-3.0","170","1","2025-07-23 07:08:06","1f75c3e559b7213887762d5229550c2b","102.66.141.144","Mozilla/5.0 (Windows NT 10.0; Win64; x64) AppleWebKit/537.36 (KHTML, like Gecko) Chrome/137.0.0.0 Safari/537.36","WebKit","Chrome","137.0.0.0","Windows","10.0","https://app.prolific.com/","en-US,en;q=0.9","60f41ae35227aa02240ba0d9","683db9eb0562dbf637994deb","6880849d560983474c70b6c3","2","1","60f41ae35227aa02240ba0d9","2","1","2025-07-23T07:15:47.213Z","","","","","","","","","","","StressQ","","50","","","","","","","","","","","","","","","","","","","","","","","","","","","","",""
"6347","","<div style=""width:500px;"">
  <p>What best describes how you currently feel?</p>
  </div>","66","html-slider-response","13","447459","0.0-5.0-4.0","170","1","2025-07-23 07:08:06","1f75c3e559b7213887762d5229550c2b","102.66.141.144","Mozilla/5.0 (Windows NT 10.0; Win64; x64) AppleWebKit/537.36 (KHTML, like Gecko) Chrome/137.0.0.0 Safari/537.36","WebKit","Chrome","137.0.0.0","Windows","10.0","https://app.prolific.com/","en-US,en;q=0.9","60f41ae35227aa02240ba0d9","683db9eb0562dbf637994deb","6880849d560983474c70b6c3","2","1","60f41ae35227aa02240ba0d9","2","1","2025-07-23T07:15:53.565Z","","","","","","","","","","","MotivationQ","","50","","","","","","","","","","","","","","","","","","","","","","","","","","","","",""
"","","","","ctl-task-cpt","14","473993","0.0-5.0-0.1","170","1","2025-07-23 07:08:06","1f75c3e559b7213887762d5229550c2b","102.66.141.144","Mozilla/5.0 (Windows NT 10.0; Win64; x64) AppleWebKit/537.36 (KHTML, like Gecko) Chrome/137.0.0.0 Safari/537.36","WebKit","Chrome","137.0.0.0","Windows","10.0","https://app.prolific.com/","en-US,en;q=0.9","60f41ae35227aa02240ba0d9","683db9eb0562dbf637994deb","6880849d560983474c70b6c3","2","1","60f41ae35227aa02240ba0d9","2","1","2025-07-23T07:16:20.099Z","","","","","","","","","","","","","","win-only","0","g1:NW,g2:SE","0.9","2","0","471381.8","3160.2","8177.1","23470.1","1","4","4","6","2","4","4","12","8","0.09090909090909091","1724","3000","1405","[""down"",""right""]","{""num_key_presses"":6,""num_perfect"":6,""num_errors"":0,""num_randdir"":0,""num_randdir_good_moves"":0,""num_whilered"":0,""num_whileblue"":0,""num_blue"":0,""num_good_moves"":6}","[295.22232142857143,299.12857142857143,1.7,295.22232142857143,299.12857142857143,105.8,295.22232142857143,299.12857142857143,222.1,295.22232142857143,299.12857142857143,324.6,295.22232142857143,299.12857142857143,427.1,295.22232142857143,299.12857142857143,527.6,295.22232142857143,299.12857142857143,632.1,295.22232142857143,299.12857142857143,747.6,580.2223214285714,363.12857142857143,860.5,634.2223214285714,455.12857142857143,985.4,623.2223214285714,475.12857142857143,1085.4,611.2223214285714,511.12857142857143,1186.9,586.2223214285714,510.12857142857143,1288.6,557.2223214285714,518.1285714285714,1389.3,549.2223214285714,523.1285714285714,1538.1,549.2223214285714,523.1285714285714,1649.4,549.2223214285714,523.1285714285714,1762.6,549.2223214285714,523.1285714285714,1864.1,549.2223214285714,523.1285714285714,1964.8,549.2223214285714,523.1285714285714,2071.2,549.2223214285714,523.1285714285714,2175.8,549.2223214285714,523.1285714285714,2284.8,549.2223214285714,523.1285714285714,2389.6,549.2223214285714,523.1285714285714,2494.7,549.2223214285714,523.1285714285714,2598.7,549.2223214285714,523.1285714285714,2699.8,549.2223214285714,523.1285714285714,2800,549.2223214285714,523.1285714285714,2903.3,549.2223214285714,523.1285714285714,3008.5,549.2223214285714,523.1285714285714,3113.4,549.2223214285714,523.1285714285714,3217.8,549.2223214285714,523.1285714285714,3320.4,549.2223214285714,523.1285714285714,3422.2,549.2223214285714,523.1285714285714,3534.9,549.2223214285714,523.1285714285714,3635.2,549.2223214285714,523.1285714285714,3744.5,549.2223214285714,523.1285714285714,3844.7,549.2223214285714,523.1285714285714,3958.7,549.2223214285714,523.1285714285714,4062.8,549.2223214285714,523.1285714285714,4170.7,549.2223214285714,523.1285714285714,4279,549.2223214285714,523.1285714285714,4379.2,549.2223214285714,523.1285714285714,4495.6,549.2223214285714,523.1285714285714,4597.9,549.2223214285714,523.1285714285714,4703.8,549.2223214285714,523.1285714285714,4804.4,549.2223214285714,523.1285714285714,4906.8]","[1535.2,1535.2,1000,0,535.2,""smooth"",""down"",""down"",""good_move"",4042.4,2502.8,2021.6,1539.7,481.1,""smooth"",""down"",""down"",""good_move"",6863.3,2817.7,2369.7,4045.6,448,""smooth"",""down"",""down"",""good_move"",9790.6,2921.7,2512.8,6868.9,409,""smooth"",""right"",""right"",""good_move"",12242.7,2448.7,2044.4,9794,404.3,""smooth"",""right"",""right"",""good_move"",15134.5,2891,2480.3,12243.7,410.8,""smooth"",""right"",""right"",""good_move""]","",""
"3965","","<div style=""width:500px;"">
  <p>What determined the result of this run?</p>
  </div>","69","html-slider-response","15","477965","0.0-5.0-1.1","170","1","2025-07-23 07:08:06","1f75c3e559b7213887762d5229550c2b","102.66.141.144","Mozilla/5.0 (Windows NT 10.0; Win64; x64) AppleWebKit/537.36 (KHTML, like Gecko) Chrome/137.0.0.0 Safari/537.36","WebKit","Chrome","137.0.0.0","Windows","10.0","https://app.prolific.com/","en-US,en;q=0.9","60f41ae35227aa02240ba0d9","683db9eb0562dbf637994deb","6880849d560983474c70b6c3","2","1","60f41ae35227aa02240ba0d9","2","1","2025-07-23T07:16:24.070Z","","","","","","","","","","","AttribQ","","50","","","","","","","","","","","","","","","","","","","","","","","","","","","","",""
"3448","","<div style=""width:500px;"">
  <p>How much control did you have over the ball?</p>
  </div>","75","html-slider-response","16","481419","0.0-5.0-2.1","170","1","2025-07-23 07:08:06","1f75c3e559b7213887762d5229550c2b","102.66.141.144","Mozilla/5.0 (Windows NT 10.0; Win64; x64) AppleWebKit/537.36 (KHTML, like Gecko) Chrome/137.0.0.0 Safari/537.36","WebKit","Chrome","137.0.0.0","Windows","10.0","https://app.prolific.com/","en-US,en;q=0.9","60f41ae35227aa02240ba0d9","683db9eb0562dbf637994deb","6880849d560983474c70b6c3","2","1","60f41ae35227aa02240ba0d9","2","1","2025-07-23T07:16:27.524Z","","","","","","","","","","","ControlQ","","50","","","","","","","","","","","","","","","","","","","","","","","","","","","","",""
"3867","","<div style=""width:500px;"">
  <p>How would you describe your current emotional state?</p>
  </div>","33","html-slider-response","17","485296","0.0-5.0-3.1","170","1","2025-07-23 07:08:06","1f75c3e559b7213887762d5229550c2b","102.66.141.144","Mozilla/5.0 (Windows NT 10.0; Win64; x64) AppleWebKit/537.36 (KHTML, like Gecko) Chrome/137.0.0.0 Safari/537.36","WebKit","Chrome","137.0.0.0","Windows","10.0","https://app.prolific.com/","en-US,en;q=0.9","60f41ae35227aa02240ba0d9","683db9eb0562dbf637994deb","6880849d560983474c70b6c3","2","1","60f41ae35227aa02240ba0d9","2","1","2025-07-23T07:16:31.401Z","","","","","","","","","","","StressQ","","50","","","","","","","","","","","","","","","","","","","","","","","","","","","","",""
"5005","","<div style=""width:500px;"">
  <p>What best describes how you currently feel?</p>
  </div>","43","html-slider-response","18","490308","0.0-5.0-4.1","170","1","2025-07-23 07:08:06","1f75c3e559b7213887762d5229550c2b","102.66.141.144","Mozilla/5.0 (Windows NT 10.0; Win64; x64) AppleWebKit/537.36 (KHTML, like Gecko) Chrome/137.0.0.0 Safari/537.36","WebKit","Chrome","137.0.0.0","Windows","10.0","https://app.prolific.com/","en-US,en;q=0.9","60f41ae35227aa02240ba0d9","683db9eb0562dbf637994deb","6880849d560983474c70b6c3","2","1","60f41ae35227aa02240ba0d9","2","1","2025-07-23T07:16:36.413Z","","","","","","","","","","","MotivationQ","","50","","","","","","","","","","","","","","","","","","","","","","","","","","","","",""
"","","","","ctl-task-cpt","19","553263","0.0-5.0-0.2","170","1","2025-07-23 07:08:06","1f75c3e559b7213887762d5229550c2b","102.66.141.144","Mozilla/5.0 (Windows NT 10.0; Win64; x64) AppleWebKit/537.36 (KHTML, like Gecko) Chrome/137.0.0.0 Safari/537.36","WebKit","Chrome","137.0.0.0","Windows","10.0","https://app.prolific.com/","en-US,en;q=0.9","60f41ae35227aa02240ba0d9","683db9eb0562dbf637994deb","6880849d560983474c70b6c3","2","1","60f41ae35227aa02240ba0d9","2","1","2025-07-23T07:17:39.370Z","","","","","","","","","","","","","","win-only","2","g1:SE,g2:NW","0.8","3","0","514193.8","31979.6","36997.5","59922.9","1","4","4","6","2","4","3","15","12","0.11363636363636363","1976.8","3000","1710","[""left"",""up""]","{""num_key_presses"":8,""num_perfect"":6,""num_errors"":1,""num_randdir"":1,""num_randdir_good_moves"":0,""num_whilered"":0,""num_whileblue"":1,""num_blue"":1,""num_good_moves"":7}","[298.22232142857143,290.12857142857143,2,298.22232142857143,290.12857142857143,126.1,298.22232142857143,290.12857142857143,231.6,298.22232142857143,290.12857142857143,338.9,298.22232142857143,290.12857142857143,440.8,218.22232142857143,321.12857142857143,543.2,174.22232142857143,335.12857142857143,655.7,190.22232142857143,334.12857142857143,758.9,65.22232142857143,183.12857142857143,861,60.222321428571426,178.12857142857143,965.5,60.222321428571426,178.12857142857143,1070,60.222321428571426,178.12857142857143,1174,60.222321428571426,178.12857142857143,1277.2,58.222321428571426,136.12857142857143,1381.9,68.22232142857143,92.12857142857143,1486.7,74.22232142857143,61.128571428571426,1590.2,69.22232142857143,59.128571428571426,1701.4,69.22232142857143,59.128571428571426,1802.3,69.22232142857143,59.128571428571426,1909.3,69.22232142857143,59.128571428571426,2012.6,69.22232142857143,59.128571428571426,2115,69.22232142857143,59.128571428571426,2222.1,69.22232142857143,59.128571428571426,2323.6,69.22232142857143,59.128571428571426,2437,69.22232142857143,59.128571428571426,2543,69.22232142857143,59.128571428571426,2655.4,69.22232142857143,59.128571428571426,2756,69.22232142857143,59.128571428571426,2857.7,69.22232142857143,59.128571428571426,2978,73.22232142857143,153.12857142857143,3091.1,63.222321428571426,252.12857142857143,3210.6,50.222321428571426,339.12857142857143,3319.8,47.222321428571426,355.12857142857143,3425.9,47.222321428571426,355.12857142857143,3533.1,47.222321428571426,355.12857142857143,3652.2,47.222321428571426,355.12857142857143,3752.9,47.222321428571426,355.12857142857143,3855.6,47.222321428571426,355.12857142857143,3960.5,47.222321428571426,355.12857142857143,4067.7,47.222321428571426,355.12857142857143,4170.2,47.222321428571426,355.12857142857143,4283.1,47.222321428571426,355.12857142857143,4389.6,47.222321428571426,355.12857142857143,4491.2,47.222321428571426,355.12857142857143,4604.9,47.222321428571426,355.12857142857143,4708.9,47.222321428571426,355.12857142857143,4819.8,47.222321428571426,355.12857142857143,4932.7]","[1531,1531,1000,0,531,""smooth"",""up"",""up"",""good_move"",3888.2,2354.1,1601.7,1534.2,752.3,""smooth"",""up"",""up"",""good_move"",7696.1,3803.5,3400.2,3892.8,403.1,""while_blue"",""up"",""left"",""good_move"",11434.8,3734.9,3200.4,7699.9,534.5,""smooth"",""up"",""up"",""good_move"",13852.5,2416.5,1980.1,11436.1,436.3,""smooth"",""left"",""left"",""good_move"",16574.4,2720,2287.8,13854.5,432.1,""oops"",""left"",""down"",""bad_move"",19188.7,2608.8,2117.1,16579.9,491.7,""smooth"",""left"",""left"",""good_move"",22714.4,3523.9,3163.8,19190.6,360,""smooth"",""up"",""up"",""good_move""]","",""
"9215","","<div style=""width:500px;"">
  <p>What determined the result of this run?</p>
  </div>","73","html-slider-response","20","562498","0.0-5.0-1.2","170","1","2025-07-23 07:08:06","1f75c3e559b7213887762d5229550c2b","102.66.141.144","Mozilla/5.0 (Windows NT 10.0; Win64; x64) AppleWebKit/537.36 (KHTML, like Gecko) Chrome/137.0.0.0 Safari/537.36","WebKit","Chrome","137.0.0.0","Windows","10.0","https://app.prolific.com/","en-US,en;q=0.9","60f41ae35227aa02240ba0d9","683db9eb0562dbf637994deb","6880849d560983474c70b6c3","2","1","60f41ae35227aa02240ba0d9","2","1","2025-07-23T07:17:48.604Z","","","","","","","","","","","AttribQ","","50","","","","","","","","","","","","","","","","","","","","","","","","","","","","",""
"4524","","<div style=""width:500px;"">
  <p>How much control did you have over the ball?</p>
  </div>","78","html-slider-response","21","567030","0.0-5.0-2.2","170","1","2025-07-23 07:08:06","1f75c3e559b7213887762d5229550c2b","102.66.141.144","Mozilla/5.0 (Windows NT 10.0; Win64; x64) AppleWebKit/537.36 (KHTML, like Gecko) Chrome/137.0.0.0 Safari/537.36","WebKit","Chrome","137.0.0.0","Windows","10.0","https://app.prolific.com/","en-US,en;q=0.9","60f41ae35227aa02240ba0d9","683db9eb0562dbf637994deb","6880849d560983474c70b6c3","2","1","60f41ae35227aa02240ba0d9","2","1","2025-07-23T07:17:53.135Z","","","","","","","","","","","ControlQ","","50","","","","","","","","","","","","","","","","","","","","","","","","","","","","",""
"3999","","<div style=""width:500px;"">
  <p>How would you describe your current emotional state?</p>
  </div>","36","html-slider-response","22","571035","0.0-5.0-3.2","170","1","2025-07-23 07:08:06","1f75c3e559b7213887762d5229550c2b","102.66.141.144","Mozilla/5.0 (Windows NT 10.0; Win64; x64) AppleWebKit/537.36 (KHTML, like Gecko) Chrome/137.0.0.0 Safari/537.36","WebKit","Chrome","137.0.0.0","Windows","10.0","https://app.prolific.com/","en-US,en;q=0.9","60f41ae35227aa02240ba0d9","683db9eb0562dbf637994deb","6880849d560983474c70b6c3","2","1","60f41ae35227aa02240ba0d9","2","1","2025-07-23T07:17:57.140Z","","","","","","","","","","","StressQ","","50","","","","","","","","","","","","","","","","","","","","","","","","","","","","",""
"5097","","<div style=""width:500px;"">
  <p>What best describes how you currently feel?</p>
  </div>","64","html-slider-response","23","576135","0.0-5.0-4.2","170","1","2025-07-23 07:08:06","1f75c3e559b7213887762d5229550c2b","102.66.141.144","Mozilla/5.0 (Windows NT 10.0; Win64; x64) AppleWebKit/537.36 (KHTML, like Gecko) Chrome/137.0.0.0 Safari/537.36","WebKit","Chrome","137.0.0.0","Windows","10.0","https://app.prolific.com/","en-US,en;q=0.9","60f41ae35227aa02240ba0d9","683db9eb0562dbf637994deb","6880849d560983474c70b6c3","2","1","60f41ae35227aa02240ba0d9","2","1","2025-07-23T07:18:02.241Z","","","","","","","","","","","MotivationQ","","50","","","","","","","","","","","","","","","","","","","","","","","","","","","","",""
"","","","","ctl-task-cpt","24","617009","0.0-5.0-0.3","170","1","2025-07-23 07:08:06","1f75c3e559b7213887762d5229550c2b","102.66.141.144","Mozilla/5.0 (Windows NT 10.0; Win64; x64) AppleWebKit/537.36 (KHTML, like Gecko) Chrome/137.0.0.0 Safari/537.36","WebKit","Chrome","137.0.0.0","Windows","10.0","https://app.prolific.com/","en-US,en;q=0.9","60f41ae35227aa02240ba0d9","683db9eb0562dbf637994deb","6880849d560983474c70b6c3","2","1","60f41ae35227aa02240ba0d9","2","1","2025-07-23T07:18:43.115Z","","","","","","","","","","","","","","win-only","3","g1:SW,g2:NE","0.7","4","0","600028.9","1517","6526.7","37804.3","1","4","8","6","2","8","7","22","15","0.16666666666666666","1612.4","3000","1715","[""up"",""right""]","{""num_key_presses"":9,""num_perfect"":6,""num_errors"":1,""num_randdir"":2,""num_randdir_good_moves"":1,""num_whilered"":0,""num_whileblue"":0,""num_blue"":2,""num_good_moves"":7}","[296.22232142857143,296.12857142857143,0.2,296.22232142857143,296.12857142857143,110.6,296.22232142857143,296.12857142857143,220,296.22232142857143,296.12857142857143,335.2,296.22232142857143,296.12857142857143,448.8,249.22232142857143,295.12857142857143,566.7,227.22232142857143,289.12857142857143,691.2,573.2223214285714,35.128571428571426,799.6,649.2223214285714,7.128571428571426,912.3,651.2223214285714,5.128571428571426,1016.3,651.2223214285714,5.128571428571426,1125.1,618.2223214285714,23.128571428571426,1233.4,577.2223214285714,51.128571428571426,1348.1,577.2223214285714,51.128571428571426,1449.4,577.2223214285714,51.128571428571426,1559.4,577.2223214285714,51.128571428571426,1661.5,577.2223214285714,51.128571428571426,1764.4,577.2223214285714,51.128571428571426,1873.3,577.2223214285714,51.128571428571426,1984.6,577.2223214285714,51.128571428571426,2085.1,577.2223214285714,51.128571428571426,2189.3,577.2223214285714,51.128571428571426,2299.8,577.2223214285714,51.128571428571426,2411.8,573.2223214285714,56.128571428571426,2512.5,516.2223214285714,120.12857142857143,2665.7,443.22232142857143,215.12857142857143,2772,360.22232142857143,351.12857142857143,2876.2,350.22232142857143,372.12857142857143,2980.2,350.22232142857143,372.12857142857143,3092.8,350.22232142857143,372.12857142857143,3193.1,350.22232142857143,372.12857142857143,3296.8,350.22232142857143,372.12857142857143,3410.1,350.22232142857143,372.12857142857143,3517.6,350.22232142857143,372.12857142857143,3624.8,350.22232142857143,372.12857142857143,3730.5,350.22232142857143,372.12857142857143,3849.2,350.22232142857143,372.12857142857143,3965.1,350.22232142857143,372.12857142857143,4096,350.22232142857143,372.12857142857143,4204.2,350.22232142857143,372.12857142857143,4309.8,350.22232142857143,372.12857142857143,4412.4,350.22232142857143,372.12857142857143,4518.7,350.22232142857143,372.12857142857143,4628.2,350.22232142857143,372.12857142857143,4731.5,350.22232142857143,372.12857142857143,4831.6,350.22232142857143,372.12857142857143,4931.8]","[1616.2,1616.3,1000,0,616.3,""smooth"",""up"",""up"",""good_move"",1666.5,19.4,2606.1,1647.1,-2586.7,""error"",""-"",""-"",""no_move"",5622.9,3954.8,2505.1,2690.9,426.9,""oops"",""up"",""right"",""good_move"",8521.6,2868.8,2437.2,5652.8,431.6,""smooth"",""up"",""up"",""good_move"",15688,7164.5,2797.9,12401.6,488.5,""smooth"",""up"",""up"",""good_move"",19579.3,3863.8,2473.8,15715.6,1389.9,""oops"",""right"",""down"",""bad_move"",25885.6,6267.7,2352.1,23091.7,441.8,""smooth"",""right"",""right"",""good_move"",28755.3,2866,2301,25889.3,565,""smooth"",""right"",""right"",""good_move"",31018.7,2260.4,1835.8,28758.3,424.6,""smooth"",""up"",""up"",""good_move""]","",""
"4477","","<div style=""width:500px;"">
  <p>What determined the result of this run?</p>
  </div>","71","html-slider-response","25","621501","0.0-5.0-1.3","170","1","2025-07-23 07:08:06","1f75c3e559b7213887762d5229550c2b","102.66.141.144","Mozilla/5.0 (Windows NT 10.0; Win64; x64) AppleWebKit/537.36 (KHTML, like Gecko) Chrome/137.0.0.0 Safari/537.36","WebKit","Chrome","137.0.0.0","Windows","10.0","https://app.prolific.com/","en-US,en;q=0.9","60f41ae35227aa02240ba0d9","683db9eb0562dbf637994deb","6880849d560983474c70b6c3","2","1","60f41ae35227aa02240ba0d9","2","1","2025-07-23T07:18:47.606Z","","","","","","","","","","","AttribQ","","50","","","","","","","","","","","","","","","","","","","","","","","","","","","","",""
"3551","","<div style=""width:500px;"">
  <p>How much control did you have over the ball?</p>
  </div>","69","html-slider-response","26","625059","0.0-5.0-2.3","170","1","2025-07-23 07:08:06","1f75c3e559b7213887762d5229550c2b","102.66.141.144","Mozilla/5.0 (Windows NT 10.0; Win64; x64) AppleWebKit/537.36 (KHTML, like Gecko) Chrome/137.0.0.0 Safari/537.36","WebKit","Chrome","137.0.0.0","Windows","10.0","https://app.prolific.com/","en-US,en;q=0.9","60f41ae35227aa02240ba0d9","683db9eb0562dbf637994deb","6880849d560983474c70b6c3","2","1","60f41ae35227aa02240ba0d9","2","1","2025-07-23T07:18:51.164Z","","","","","","","","","","","ControlQ","","50","","","","","","","","","","","","","","","","","","","","","","","","","","","","",""
"3535","","<div style=""width:500px;"">
  <p>How would you describe your current emotional state?</p>
  </div>","37","html-slider-response","27","628601","0.0-5.0-3.3","170","1","2025-07-23 07:08:06","1f75c3e559b7213887762d5229550c2b","102.66.141.144","Mozilla/5.0 (Windows NT 10.0; Win64; x64) AppleWebKit/537.36 (KHTML, like Gecko) Chrome/137.0.0.0 Safari/537.36","WebKit","Chrome","137.0.0.0","Windows","10.0","https://app.prolific.com/","en-US,en;q=0.9","60f41ae35227aa02240ba0d9","683db9eb0562dbf637994deb","6880849d560983474c70b6c3","2","1","60f41ae35227aa02240ba0d9","2","1","2025-07-23T07:18:54.706Z","","","","","","","","","","","StressQ","","50","","","","","","","","","","","","","","","","","","","","","","","","","","","","",""
"4654","","<div style=""width:500px;"">
  <p>What best describes how you currently feel?</p>
  </div>","68","html-slider-response","28","633259","0.0-5.0-4.3","170","1","2025-07-23 07:08:06","1f75c3e559b7213887762d5229550c2b","102.66.141.144","Mozilla/5.0 (Windows NT 10.0; Win64; x64) AppleWebKit/537.36 (KHTML, like Gecko) Chrome/137.0.0.0 Safari/537.36","WebKit","Chrome","137.0.0.0","Windows","10.0","https://app.prolific.com/","en-US,en;q=0.9","60f41ae35227aa02240ba0d9","683db9eb0562dbf637994deb","6880849d560983474c70b6c3","2","1","60f41ae35227aa02240ba0d9","2","1","2025-07-23T07:18:59.365Z","","","","","","","","","","","MotivationQ","","50","","","","","","","","","","","","","","","","","","","","","","","","","","","","",""
"","","","","ctl-task-cpt","29","673435","0.0-5.0-0.4","170","1","2025-07-23 07:08:06","1f75c3e559b7213887762d5229550c2b","102.66.141.144","Mozilla/5.0 (Windows NT 10.0; Win64; x64) AppleWebKit/537.36 (KHTML, like Gecko) Chrome/137.0.0.0 Safari/537.36","WebKit","Chrome","137.0.0.0","Windows","10.0","https://app.prolific.com/","en-US,en;q=0.9","60f41ae35227aa02240ba0d9","683db9eb0562dbf637994deb","6880849d560983474c70b6c3","2","1","60f41ae35227aa02240ba0d9","2","1","2025-07-23T07:19:39.540Z","","","","","","","","","","","","","","win-only","3","g1:SW,g2:NE","0.6","5","0","657328.5","3189.5","8197.9","36928.7","1","4","8","6","2","8","8","30","22","0.22727272727272727","1239","3000","2195","[""up"",""right""]","{""num_key_presses"":6,""num_perfect"":5,""num_errors"":0,""num_randdir"":1,""num_randdir_good_moves"":1,""num_whilered"":0,""num_whileblue"":0,""num_blue"":3,""num_good_moves"":6}","[293.22232142857143,298.12857142857143,1.8,293.22232142857143,298.12857142857143,100.1,293.22232142857143,298.12857142857143,205,293.22232142857143,298.12857142857143,316.3,293.22232142857143,298.12857142857143,425.2,381.22232142857143,144.12857142857143,532.4,471.22232142857143,60.128571428571426,636.4,518.2223214285714,32.128571428571426,754.2,525.2223214285714,35.128571428571426,865.9,548.2223214285714,72.12857142857143,968.7,548.2223214285714,73.12857142857143,1089.9,548.2223214285714,73.12857142857143,1251.1,548.2223214285714,73.12857142857143,1360.6,548.2223214285714,73.12857142857143,1478,548.2223214285714,73.12857142857143,1580.7,548.2223214285714,73.12857142857143,1682.5,548.2223214285714,73.12857142857143,1786.1,548.2223214285714,73.12857142857143,1890.2,548.2223214285714,73.12857142857143,2005.1,548.2223214285714,73.12857142857143,2118.6,548.2223214285714,73.12857142857143,2223.4,548.2223214285714,73.12857142857143,2325.5,548.2223214285714,73.12857142857143,2432.9,548.2223214285714,73.12857142857143,2541.9,548.2223214285714,73.12857142857143,2648.4,492.22232142857143,176.12857142857143,2753.4,452.22232142857143,317.12857142857143,2868.1,448.22232142857143,353.12857142857143,2971.4,448.22232142857143,353.12857142857143,3072.7,448.22232142857143,353.12857142857143,3188.3,448.22232142857143,353.12857142857143,3293.3,448.22232142857143,353.12857142857143,3403.5,448.22232142857143,353.12857142857143,3505.4,448.22232142857143,353.12857142857143,3608.7,448.22232142857143,353.12857142857143,3722.5,448.22232142857143,353.12857142857143,3835.2,448.22232142857143,353.12857142857143,3947.7,448.22232142857143,353.12857142857143,4054.3,448.22232142857143,353.12857142857143,4167,448.22232142857143,353.12857142857143,4284.8,448.22232142857143,353.12857142857143,4393.2,448.22232142857143,353.12857142857143,4493.5,448.22232142857143,353.12857142857143,4604.1,448.22232142857143,353.12857142857143,4708.4,448.22232142857143,353.12857142857143,4821.7,448.22232142857143,353.12857142857143,4927.1]","[4948.6,4948.6,2452.8,2024.8,471,""smooth"",""up"",""up"",""good_move"",11542.2,6591.6,2475.7,8476.3,590.3,""smooth"",""up"",""up"",""good_move"",14750.9,3207.3,2598.9,11543.7,608.3,""oops"",""up"",""right"",""good_move"",17499.4,2741.3,2245.1,14758.1,496.2,""smooth"",""up"",""up"",""good_move"",21575.8,4070.5,2367,17505.3,1703.5,""smooth"",""right"",""right"",""good_move"",28320.4,6735.7,2839.7,25073.5,407.2,""smooth"",""right"",""right"",""good_move""]","",""
"4029","","<div style=""width:500px;"">
  <p>What determined the result of this run?</p>
  </div>","73","html-slider-response","30","677483","0.0-5.0-1.4","170","1","2025-07-23 07:08:06","1f75c3e559b7213887762d5229550c2b","102.66.141.144","Mozilla/5.0 (Windows NT 10.0; Win64; x64) AppleWebKit/537.36 (KHTML, like Gecko) Chrome/137.0.0.0 Safari/537.36","WebKit","Chrome","137.0.0.0","Windows","10.0","https://app.prolific.com/","en-US,en;q=0.9","60f41ae35227aa02240ba0d9","683db9eb0562dbf637994deb","6880849d560983474c70b6c3","2","1","60f41ae35227aa02240ba0d9","2","1","2025-07-23T07:19:43.589Z","","","","","","","","","","","AttribQ","","50","","","","","","","","","","","","","","","","","","","","","","","","","","","","",""
"3341","","<div style=""width:500px;"">
  <p>How much control did you have over the ball?</p>
  </div>","68","html-slider-response","31","680833","0.0-5.0-2.4","170","1","2025-07-23 07:08:06","1f75c3e559b7213887762d5229550c2b","102.66.141.144","Mozilla/5.0 (Windows NT 10.0; Win64; x64) AppleWebKit/537.36 (KHTML, like Gecko) Chrome/137.0.0.0 Safari/537.36","WebKit","Chrome","137.0.0.0","Windows","10.0","https://app.prolific.com/","en-US,en;q=0.9","60f41ae35227aa02240ba0d9","683db9eb0562dbf637994deb","6880849d560983474c70b6c3","2","1","60f41ae35227aa02240ba0d9","2","1","2025-07-23T07:19:46.939Z","","","","","","","","","","","ControlQ","","50","","","","","","","","","","","","","","","","","","","","","","","","","","","","",""
"3704","","<div style=""width:500px;"">
  <p>How would you describe your current emotional state?</p>
  </div>","33","html-slider-response","32","684541","0.0-5.0-3.4","170","1","2025-07-23 07:08:06","1f75c3e559b7213887762d5229550c2b","102.66.141.144","Mozilla/5.0 (Windows NT 10.0; Win64; x64) AppleWebKit/537.36 (KHTML, like Gecko) Chrome/137.0.0.0 Safari/537.36","WebKit","Chrome","137.0.0.0","Windows","10.0","https://app.prolific.com/","en-US,en;q=0.9","60f41ae35227aa02240ba0d9","683db9eb0562dbf637994deb","6880849d560983474c70b6c3","2","1","60f41ae35227aa02240ba0d9","2","1","2025-07-23T07:19:50.647Z","","","","","","","","","","","StressQ","","50","","","","","","","","","","","","","","","","","","","","","","","","","","","","",""
"4506","","<div style=""width:500px;"">
  <p>What best describes how you currently feel?</p>
  </div>","67","html-slider-response","33","689052","0.0-5.0-4.4","170","1","2025-07-23 07:08:06","1f75c3e559b7213887762d5229550c2b","102.66.141.144","Mozilla/5.0 (Windows NT 10.0; Win64; x64) AppleWebKit/537.36 (KHTML, like Gecko) Chrome/137.0.0.0 Safari/537.36","WebKit","Chrome","137.0.0.0","Windows","10.0","https://app.prolific.com/","en-US,en;q=0.9","60f41ae35227aa02240ba0d9","683db9eb0562dbf637994deb","6880849d560983474c70b6c3","2","1","60f41ae35227aa02240ba0d9","2","1","2025-07-23T07:19:55.158Z","","","","","","","","","","","MotivationQ","","50","","","","","","","","","","","","","","","","","","","","","","","","","","","","",""
"","","","","ctl-task-cpt","34","717035","0.0-5.0-0.5","170","1","2025-07-23 07:08:06","1f75c3e559b7213887762d5229550c2b","102.66.141.144","Mozilla/5.0 (Windows NT 10.0; Win64; x64) AppleWebKit/537.36 (KHTML, like Gecko) Chrome/137.0.0.0 Safari/537.36","WebKit","Chrome","137.0.0.0","Windows","10.0","https://app.prolific.com/","en-US,en;q=0.9","60f41ae35227aa02240ba0d9","683db9eb0562dbf637994deb","6880849d560983474c70b6c3","2","1","60f41ae35227aa02240ba0d9","2","1","2025-07-23T07:20:23.140Z","","","","","","","","","","","","","","win-only","0","g1:NW,g2:SE","0.5","6","0","712930.8","1731.6","6764.4","24927.8","1","4","4","6","2","4","4","34","30","0.25757575757575757","1629.3","3000","2295","[""down"",""right""]","{""num_key_presses"":6,""num_perfect"":3,""num_errors"":0,""num_randdir"":3,""num_randdir_good_moves"":3,""num_whilered"":0,""num_whileblue"":0,""num_blue"":0,""num_good_moves"":6}","[295.22232142857143,294.12857142857143,0.1,295.22232142857143,294.12857142857143,107.2,295.22232142857143,294.12857142857143,210.4,295.22232142857143,294.12857142857143,323.7,295.22232142857143,294.12857142857143,429.1,295.22232142857143,294.12857142857143,538.8,295.22232142857143,294.12857142857143,644.7,286.22232142857143,297.12857142857143,750.4,290.22232142857143,326.12857142857143,857.2,400.22232142857143,416.12857142857143,961.1,454.22232142857143,492.12857142857143,1063.5,491.22232142857143,522.1285714285714,1164.4,493.22232142857143,526.1285714285714,1284.5,527.2223214285714,560.1285714285714,1396.1,527.2223214285714,560.1285714285714,1504.8,527.2223214285714,560.1285714285714,1605.3,527.2223214285714,560.1285714285714,1714.2,527.2223214285714,560.1285714285714,1822.6,527.2223214285714,560.1285714285714,1929.5,527.2223214285714,560.1285714285714,2086.5,502.22232142857143,539.1285714285714,2203.3,424.22232142857143,504.12857142857143,2306.6,347.22232142857143,482.12857142857143,2412,243.22232142857143,494.12857142857143,2530.3,198.22232142857143,515.1285714285714,2644.7,198.22232142857143,515.1285714285714,2746,198.22232142857143,515.1285714285714,2850.9,198.22232142857143,515.1285714285714,2958.1,198.22232142857143,515.1285714285714,3066.5,198.22232142857143,515.1285714285714,3176.4,198.22232142857143,515.1285714285714,3280.6,198.22232142857143,515.1285714285714,3384.6,198.22232142857143,515.1285714285714,3500.8,198.22232142857143,515.1285714285714,3612.8,198.22232142857143,515.1285714285714,3736.6,198.22232142857143,515.1285714285714,3921.2,198.22232142857143,515.1285714285714,4060.2,198.22232142857143,515.1285714285714,4194.3,198.22232142857143,515.1285714285714,4349.5,198.22232142857143,515.1285714285714,4449.7,198.22232142857143,515.1285714285714,4553.6,198.22232142857143,515.1285714285714,4655,198.22232142857143,515.1285714285714,4766.8,198.22232142857143,515.1285714285714,4872.1,198.22232142857143,515.1285714285714,4972.9]","[1625.5,1625.5,1000,0,625.5,""smooth"",""down"",""down"",""good_move"",4603.9,2975.9,2496.8,1628.1,479.1,""oops"",""down"",""right"",""good_move"",7335.2,2731.2,2207.2,4604,524,""oops"",""down"",""right"",""good_move"",10439,3103.3,2426.3,7335.7,677,""smooth"",""down"",""down"",""good_move"",14187.4,3746.6,3202,10441,544.4,""smooth"",""down"",""down"",""good_move"",17720.7,3531.4,3097,14189.3,434.4,""oops"",""right"",""right"",""good_move""]","",""
"2698","","<div style=""width:500px;"">
  <p>What determined the result of this run?</p>
  </div>","74","html-slider-response","35","719739","0.0-5.0-1.5","170","1","2025-07-23 07:08:06","1f75c3e559b7213887762d5229550c2b","102.66.141.144","Mozilla/5.0 (Windows NT 10.0; Win64; x64) AppleWebKit/537.36 (KHTML, like Gecko) Chrome/137.0.0.0 Safari/537.36","WebKit","Chrome","137.0.0.0","Windows","10.0","https://app.prolific.com/","en-US,en;q=0.9","60f41ae35227aa02240ba0d9","683db9eb0562dbf637994deb","6880849d560983474c70b6c3","2","1","60f41ae35227aa02240ba0d9","2","1","2025-07-23T07:20:25.844Z","","","","","","","","","","","AttribQ","","50","","","","","","","","","","","","","","","","","","","","","","","","","","","","",""
"3524","","<div style=""width:500px;"">
  <p>How much control did you have over the ball?</p>
  </div>","74","html-slider-response","36","723267","0.0-5.0-2.5","170","1","2025-07-23 07:08:06","1f75c3e559b7213887762d5229550c2b","102.66.141.144","Mozilla/5.0 (Windows NT 10.0; Win64; x64) AppleWebKit/537.36 (KHTML, like Gecko) Chrome/137.0.0.0 Safari/537.36","WebKit","Chrome","137.0.0.0","Windows","10.0","https://app.prolific.com/","en-US,en;q=0.9","60f41ae35227aa02240ba0d9","683db9eb0562dbf637994deb","6880849d560983474c70b6c3","2","1","60f41ae35227aa02240ba0d9","2","1","2025-07-23T07:20:29.373Z","","","","","","","","","","","ControlQ","","50","","","","","","","","","","","","","","","","","","","","","","","","","","","","",""
"3141","","<div style=""width:500px;"">
  <p>How would you describe your current emotional state?</p>
  </div>","31","html-slider-response","37","726415","0.0-5.0-3.5","170","1","2025-07-23 07:08:06","1f75c3e559b7213887762d5229550c2b","102.66.141.144","Mozilla/5.0 (Windows NT 10.0; Win64; x64) AppleWebKit/537.36 (KHTML, like Gecko) Chrome/137.0.0.0 Safari/537.36","WebKit","Chrome","137.0.0.0","Windows","10.0","https://app.prolific.com/","en-US,en;q=0.9","60f41ae35227aa02240ba0d9","683db9eb0562dbf637994deb","6880849d560983474c70b6c3","2","1","60f41ae35227aa02240ba0d9","2","1","2025-07-23T07:20:32.521Z","","","","","","","","","","","StressQ","","50","","","","","","","","","","","","","","","","","","","","","","","","","","","","",""
"4037","","<div style=""width:500px;"">
  <p>What best describes how you currently feel?</p>
  </div>","71","html-slider-response","38","730460","0.0-5.0-4.5","170","1","2025-07-23 07:08:06","1f75c3e559b7213887762d5229550c2b","102.66.141.144","Mozilla/5.0 (Windows NT 10.0; Win64; x64) AppleWebKit/537.36 (KHTML, like Gecko) Chrome/137.0.0.0 Safari/537.36","WebKit","Chrome","137.0.0.0","Windows","10.0","https://app.prolific.com/","en-US,en;q=0.9","60f41ae35227aa02240ba0d9","683db9eb0562dbf637994deb","6880849d560983474c70b6c3","2","1","60f41ae35227aa02240ba0d9","2","1","2025-07-23T07:20:36.567Z","","","","","","","","","","","MotivationQ","","50","","","","","","","","","","","","","","","","","","","","","","","","","","","","",""
"","","","","ctl-task-cpt","39","827776","0.0-5.0-0.6","170","1","2025-07-23 07:08:06","1f75c3e559b7213887762d5229550c2b","102.66.141.144","Mozilla/5.0 (Windows NT 10.0; Win64; x64) AppleWebKit/537.36 (KHTML, like Gecko) Chrome/137.0.0.0 Safari/537.36","WebKit","Chrome","137.0.0.0","Windows","10.0","https://app.prolific.com/","en-US,en;q=0.9","60f41ae35227aa02240ba0d9","683db9eb0562dbf637994deb","6880849d560983474c70b6c3","2","1","60f41ae35227aa02240ba0d9","2","1","2025-07-23T07:22:13.951Z","","","","","","","","","","","","","","win-only","1","g1:NE,g2:SW","0.4","7","0","754325.4","2055.9","7086.7","93517.8","1","4","4","6","2","4","4","38","34","0.2878787878787879","2533.3","3000","1130","[""down"",""left""]","{""num_key_presses"":18,""num_perfect"":8,""num_errors"":0,""num_randdir"":10,""num_randdir_good_moves"":4,""num_whilered"":0,""num_whileblue"":0,""num_blue"":3,""num_good_moves"":12}","[295.22232142857143,299.12857142857143,0.2,295.22232142857143,299.12857142857143,155.6,295.22232142857143,299.12857142857143,301.5,295.22232142857143,299.12857142857143,448.9,295.22232142857143,299.12857142857143,595.3,396.22232142857143,213.12857142857143,706.6,480.22232142857143,147.12857142857143,814.1,138.22232142857143,413.12857142857143,930.6,-15.777678571428574,609.1285714285714,1036.1,-37.777678571428574,678.1285714285714,1143.6,-36.777678571428574,683.1285714285714,1252.6,-36.777678571428574,683.1285714285714,1367.2,-35.777678571428574,683.1285714285714,1477.5,-35.777678571428574,683.1285714285714,1581.6,-27.777678571428574,646.1285714285714,1714.4,-1.7776785714285737,616.1285714285714,1814.6,-84.77767857142857,664.1285714285714,1932.7,-12.777678571428574,601.1285714285714,2039.2,66.22232142857143,545.1285714285714,2162.1,67.22232142857143,544.1285714285714,2270.6,67.22232142857143,544.1285714285714,2379.8,67.22232142857143,544.1285714285714,2493.9,67.22232142857143,544.1285714285714,2602.7,67.22232142857143,544.1285714285714,2717.6,67.22232142857143,544.1285714285714,2840.1,67.22232142857143,544.1285714285714,2950.3,67.22232142857143,544.1285714285714,3063,67.22232142857143,544.1285714285714,3177,67.22232142857143,544.1285714285714,3278,77.22232142857143,541.1285714285714,3384.1,181.22232142857143,533.1285714285714,3490,209.22232142857143,540.1285714285714,3612.9,221.22232142857143,546.1285714285714,3733.6,235.22232142857143,553.1285714285714,3841.4,235.22232142857143,553.1285714285714,3967.2,235.22232142857143,553.1285714285714,4070.6,235.22232142857143,553.1285714285714,4183.7,235.22232142857143,553.1285714285714,4284.9,235.22232142857143,553.1285714285714,4389.3,235.22232142857143,553.1285714285714,4509,235.22232142857143,553.1285714285714,4610.3,235.22232142857143,553.1285714285714,4712.3,235.22232142857143,553.1285714285714,4818.7,235.22232142857143,553.1285714285714,4929.7]","[1631.8,1631.8,1000,0,631.8,""smooth"",""down"",""down"",""good_move"",4725,3090.2,2406,1634.9,684.2,""smooth"",""down"",""down"",""good_move"",7800.6,3073.5,2530.8,4727.2,542.6,""smooth"",""down"",""down"",""good_move"",10191.1,2371.1,1881.8,7820.1,489.3,""oops"",""left"",""right"",""bad_move"",13775,3581,3083.8,10194.1,497.2,""oops"",""left"",""up"",""bad_move"",19581.4,5802.7,2533.3,13778.7,3269.4,""oops"",""left"",""left"",""good_move"",33283.5,13700.7,2658.9,30089.9,534.8,""oops"",""left"",""up"",""bad_move"",36905.3,3591.5,2784.7,33313.9,806.8,""smooth"",""down"",""down"",""good_move"",43963.9,7056.6,2644.7,40793.4,525.8,""oops"",""down"",""right"",""bad_move"",46837.9,2834.3,2371.4,44003.6,462.9,""oops"",""down"",""down"",""good_move"",49715.6,2859.9,2337.4,46855.8,522.5,""oops"",""left"",""left"",""good_move"",54871,5153.2,2468.7,49717.8,2684.5,""oops"",""left"",""up"",""bad_move"",60964.5,6091.3,2436.9,54873.3,3654.4,""smooth"",""left"",""left"",""good_move"",66348.9,5360,2557.4,60989,2802.6,""smooth"",""left"",""left"",""good_move"",70137.4,3781.9,2777.2,66355.5,1004.7,""oops"",""left"",""right"",""bad_move"",73151.3,3011.8,2508.2,70139.5,503.6,""smooth"",""left"",""left"",""good_move"",80242,7084.3,2623.9,73157.7,4460.4,""oops"",""left"",""left"",""good_move"",84779.8,4526.5,2295.6,80253.4,2230.9,""smooth"",""down"",""down"",""good_move""]","",""
"11734","","<div style=""width:500px;"">
  <p>What determined the result of this run?</p>
  </div>","77","html-slider-response","40","841091","0.0-5.0-1.6","170","1","2025-07-23 07:08:06","1f75c3e559b7213887762d5229550c2b","102.66.141.144","Mozilla/5.0 (Windows NT 10.0; Win64; x64) AppleWebKit/537.36 (KHTML, like Gecko) Chrome/137.0.0.0 Safari/537.36","WebKit","Chrome","137.0.0.0","Windows","10.0","https://app.prolific.com/","en-US,en;q=0.9","60f41ae35227aa02240ba0d9","683db9eb0562dbf637994deb","6880849d560983474c70b6c3","2","1","60f41ae35227aa02240ba0d9","2","1","2025-07-23T07:22:27.196Z","","","","","","","","","","","AttribQ","","50","","","","","","","","","","","","","","","","","","","","","","","","","","","","",""
"5606","","<div style=""width:500px;"">
  <p>How much control did you have over the ball?</p>
  </div>","62","html-slider-response","41","846727","0.0-5.0-2.6","170","1","2025-07-23 07:08:06","1f75c3e559b7213887762d5229550c2b","102.66.141.144","Mozilla/5.0 (Windows NT 10.0; Win64; x64) AppleWebKit/537.36 (KHTML, like Gecko) Chrome/137.0.0.0 Safari/537.36","WebKit","Chrome","137.0.0.0","Windows","10.0","https://app.prolific.com/","en-US,en;q=0.9","60f41ae35227aa02240ba0d9","683db9eb0562dbf637994deb","6880849d560983474c70b6c3","2","1","60f41ae35227aa02240ba0d9","2","1","2025-07-23T07:22:32.833Z","","","","","","","","","","","ControlQ","","50","","","","","","","","","","","","","","","","","","","","","","","","","","","","",""
"3751","","<div style=""width:500px;"">
  <p>How would you describe your current emotional state?</p>
  </div>","38","html-slider-response","42","850495","0.0-5.0-3.6","170","1","2025-07-23 07:08:06","1f75c3e559b7213887762d5229550c2b","102.66.141.144","Mozilla/5.0 (Windows NT 10.0; Win64; x64) AppleWebKit/537.36 (KHTML, like Gecko) Chrome/137.0.0.0 Safari/537.36","WebKit","Chrome","137.0.0.0","Windows","10.0","https://app.prolific.com/","en-US,en;q=0.9","60f41ae35227aa02240ba0d9","683db9eb0562dbf637994deb","6880849d560983474c70b6c3","2","1","60f41ae35227aa02240ba0d9","2","1","2025-07-23T07:22:36.601Z","","","","","","","","","","","StressQ","","50","","","","","","","","","","","","","","","","","","","","","","","","","","","","",""
"3329","","<div style=""width:500px;"">
  <p>What best describes how you currently feel?</p>
  </div>","69","html-slider-response","43","853828","0.0-5.0-4.6","170","1","2025-07-23 07:08:06","1f75c3e559b7213887762d5229550c2b","102.66.141.144","Mozilla/5.0 (Windows NT 10.0; Win64; x64) AppleWebKit/537.36 (KHTML, like Gecko) Chrome/137.0.0.0 Safari/537.36","WebKit","Chrome","137.0.0.0","Windows","10.0","https://app.prolific.com/","en-US,en;q=0.9","60f41ae35227aa02240ba0d9","683db9eb0562dbf637994deb","6880849d560983474c70b6c3","2","1","60f41ae35227aa02240ba0d9","2","1","2025-07-23T07:22:39.933Z","","","","","","","","","","","MotivationQ","","50","","","","","","","","","","","","","","","","","","","","","","","","","","","","",""
"","","","","ctl-task-cpt","44","968191","0.0-5.0-0.7","170","1","2025-07-23 07:08:06","1f75c3e559b7213887762d5229550c2b","102.66.141.144","Mozilla/5.0 (Windows NT 10.0; Win64; x64) AppleWebKit/537.36 (KHTML, like Gecko) Chrome/137.0.0.0 Safari/537.36","WebKit","Chrome","137.0.0.0","Windows","10.0","https://app.prolific.com/","en-US,en;q=0.9","60f41ae35227aa02240ba0d9","683db9eb0562dbf637994deb","6880849d560983474c70b6c3","2","1","60f41ae35227aa02240ba0d9","2","1","2025-07-23T07:24:34.297Z","","","","","","","","","","","","","","win-only","0","g1:NW,g2:SE","0.3","8","0","877847.4","3484.6","8509","111083.9","1","4","8","6","2","8","8","46","38","0.3484848484848485","1510.2","3000","870","[""down"",""right""]","{""num_key_presses"":24,""num_perfect"":6,""num_errors"":0,""num_randdir"":18,""num_randdir_good_moves"":9,""num_whilered"":0,""num_whileblue"":0,""num_blue"":3,""num_good_moves"":15}","[294.22232142857143,297.12857142857143,0.2,294.22232142857143,297.12857142857143,114.6,294.22232142857143,297.12857142857143,235.9,294.22232142857143,297.12857142857143,358.3,294.22232142857143,297.12857142857143,481,287.22232142857143,297.12857142857143,600.9,318.22232142857143,342.12857142857143,714.5,491.22232142857143,458.12857142857143,824.8,515.2223214285714,477.12857142857143,996.5,521.2223214285714,534.1285714285714,1108.1,545.2223214285714,553.1285714285714,1219.2,545.2223214285714,552.1285714285714,1331.1,545.2223214285714,552.1285714285714,1462.6,545.2223214285714,552.1285714285714,1575.6,545.2223214285714,552.1285714285714,1686.3,545.2223214285714,552.1285714285714,1808.9,545.2223214285714,552.1285714285714,1933.5,545.2223214285714,552.1285714285714,2052.1,545.2223214285714,552.1285714285714,2165.8,545.2223214285714,552.1285714285714,2283.8,545.2223214285714,552.1285714285714,2407.9,545.2223214285714,552.1285714285714,2532.1,545.2223214285714,552.1285714285714,2651,545.2223214285714,552.1285714285714,2768.9,545.2223214285714,552.1285714285714,2892.7,545.2223214285714,552.1285714285714,3015.2,482.22232142857143,548.1285714285714,3146.8,462.22232142857143,543.1285714285714,3258.7,461.22232142857143,541.1285714285714,3387.6,461.22232142857143,541.1285714285714,3510,461.22232142857143,541.1285714285714,3627,461.22232142857143,541.1285714285714,3758.2,461.22232142857143,541.1285714285714,3889.3,461.22232142857143,541.1285714285714,4008.8,461.22232142857143,541.1285714285714,4137.3,461.22232142857143,541.1285714285714,4264.3,461.22232142857143,541.1285714285714,4375.2,461.22232142857143,541.1285714285714,4490.8,461.22232142857143,541.1285714285714,4606.3,461.22232142857143,541.1285714285714,4706.5,461.22232142857143,541.1285714285714,4807.2,461.22232142857143,541.1285714285714,4928.6]","[1687.8,1687.8,1000,0,687.8,""oops"",""down"",""left"",""bad_move"",7916,6226.3,2002.9,1689.7,4223.4,""smooth"",""down"",""down"",""good_move"",11219.3,3297.5,2817,7921.9,480.5,""oops"",""down"",""left"",""bad_move"",15332.8,4111.6,2354.4,11221.4,1757.1,""smooth"",""down"",""down"",""good_move"",18752,3407.5,3024.8,15344.5,382.7,""smooth"",""down"",""down"",""good_move"",21792.8,3036.2,2570.2,18756.6,466,""oops"",""right"",""up"",""bad_move"",26591.7,4792.3,3173.6,21799.5,1618.7,""oops"",""right"",""down"",""good_move"",32709.4,6116.3,2326.6,29955,427.9,""oops"",""right"",""right"",""good_move"",35769.3,3057.8,2590.8,32711.5,467,""oops"",""right"",""left"",""bad_move"",41971.5,6200.2,2266.2,35771.3,3934,""oops"",""right"",""right"",""good_move"",47134.3,5160.9,1834.1,44850.5,449.7,""smooth"",""right"",""right"",""good_move"",50297.9,3156.5,2691.1,47141.4,465.4,""oops"",""right"",""left"",""bad_move"",58040.3,7739.8,2371.2,55009.5,659.6,""smooth"",""right"",""right"",""good_move"",61058.1,3015.6,2417.1,58042.6,598.5,""oops"",""right"",""left"",""bad_move"",67116.3,6047.2,2830,61069.1,3217.2,""oops"",""right"",""right"",""good_move"",69349.2,2231.5,1370.7,67117.8,860.7,""oops"",""right"",""left"",""bad_move"",75953,6601.1,2336.3,69352.1,4264.6,""oops"",""right"",""right"",""good_move"",79332.8,3377.2,2884.7,75955.6,492.6,""oops"",""right"",""up"",""bad_move"",83554.5,4217.5,2030.1,79337,2187.4,""oops"",""right"",""down"",""good_move"",86999.4,3442.5,2979.3,83557,463.1,""smooth"",""right"",""right"",""good_move"",89808.4,2806.7,2351,87001.7,455.7,""oops"",""right"",""right"",""good_move"",93083,3263.6,2774.9,89819.5,488.7,""oops"",""right"",""left"",""bad_move"",98781.9,5696.4,3202.7,93085.5,2493.7,""oops"",""right"",""right"",""good_move"",101699.7,2907.9,2391.8,98791.8,516.2,""oops"",""right"",""right"",""good_move""]","",""
"3818","","<div style=""width:500px;"">
  <p>What determined the result of this run?</p>
  </div>","80","html-slider-response","45","972030","0.0-5.0-1.7","170","1","2025-07-23 07:08:06","1f75c3e559b7213887762d5229550c2b","102.66.141.144","Mozilla/5.0 (Windows NT 10.0; Win64; x64) AppleWebKit/537.36 (KHTML, like Gecko) Chrome/137.0.0.0 Safari/537.36","WebKit","Chrome","137.0.0.0","Windows","10.0","https://app.prolific.com/","en-US,en;q=0.9","60f41ae35227aa02240ba0d9","683db9eb0562dbf637994deb","6880849d560983474c70b6c3","2","1","60f41ae35227aa02240ba0d9","2","1","2025-07-23T07:24:38.135Z","","","","","","","","","","","AttribQ","","50","","","","","","","","","","","","","","","","","","","","","","","","","","","","",""
"3120","","<div style=""width:500px;"">
  <p>How much control did you have over the ball?</p>
  </div>","31","html-slider-response","46","975158","0.0-5.0-2.7","170","1","2025-07-23 07:08:06","1f75c3e559b7213887762d5229550c2b","102.66.141.144","Mozilla/5.0 (Windows NT 10.0; Win64; x64) AppleWebKit/537.36 (KHTML, like Gecko) Chrome/137.0.0.0 Safari/537.36","WebKit","Chrome","137.0.0.0","Windows","10.0","https://app.prolific.com/","en-US,en;q=0.9","60f41ae35227aa02240ba0d9","683db9eb0562dbf637994deb","6880849d560983474c70b6c3","2","1","60f41ae35227aa02240ba0d9","2","1","2025-07-23T07:24:41.264Z","","","","","","","","","","","ControlQ","","50","","","","","","","","","","","","","","","","","","","","","","","","","","","","",""
"3811","","<div style=""width:500px;"">
  <p>How would you describe your current emotional state?</p>
  </div>","40","html-slider-response","47","978986","0.0-5.0-3.7","170","1","2025-07-23 07:08:06","1f75c3e559b7213887762d5229550c2b","102.66.141.144","Mozilla/5.0 (Windows NT 10.0; Win64; x64) AppleWebKit/537.36 (KHTML, like Gecko) Chrome/137.0.0.0 Safari/537.36","WebKit","Chrome","137.0.0.0","Windows","10.0","https://app.prolific.com/","en-US,en;q=0.9","60f41ae35227aa02240ba0d9","683db9eb0562dbf637994deb","6880849d560983474c70b6c3","2","1","60f41ae35227aa02240ba0d9","2","1","2025-07-23T07:24:45.092Z","","","","","","","","","","","StressQ","","50","","","","","","","","","","","","","","","","","","","","","","","","","","","","",""
"3514","","<div style=""width:500px;"">
  <p>What best describes how you currently feel?</p>
  </div>","69","html-slider-response","48","982504","0.0-5.0-4.7","170","1","2025-07-23 07:08:06","1f75c3e559b7213887762d5229550c2b","102.66.141.144","Mozilla/5.0 (Windows NT 10.0; Win64; x64) AppleWebKit/537.36 (KHTML, like Gecko) Chrome/137.0.0.0 Safari/537.36","WebKit","Chrome","137.0.0.0","Windows","10.0","https://app.prolific.com/","en-US,en;q=0.9","60f41ae35227aa02240ba0d9","683db9eb0562dbf637994deb","6880849d560983474c70b6c3","2","1","60f41ae35227aa02240ba0d9","2","1","2025-07-23T07:24:48.610Z","","","","","","","","","","","MotivationQ","","50","","","","","","","","","","","","","","","","","","","","","","","","","","","","",""
"","","","","ctl-task-cpt","49","1083042","0.0-5.0-0.8","170","1","2025-07-23 07:08:06","1f75c3e559b7213887762d5229550c2b","102.66.141.144","Mozilla/5.0 (Windows NT 10.0; Win64; x64) AppleWebKit/537.36 (KHTML, like Gecko) Chrome/137.0.0.0 Safari/537.36","WebKit","Chrome","137.0.0.0","Windows","10.0","https://app.prolific.com/","en-US,en;q=0.9","60f41ae35227aa02240ba0d9","683db9eb0562dbf637994deb","6880849d560983474c70b6c3","2","1","60f41ae35227aa02240ba0d9","2","1","2025-07-23T07:26:29.148Z","","","","","","","","","","","","","","win-only","1","g1:NE,g2:SW","0.2","9","0","1006310.5","1701","6711.4","97473","1","4","4","6","2","4","3","49","46","0.3712121212121212","1573","3000","1545","[""down"",""left""]","{""num_key_presses"":18,""num_perfect"":4,""num_errors"":1,""num_randdir"":13,""num_randdir_good_moves"":7,""num_whilered"":0,""num_whileblue"":1,""num_blue"":4,""num_good_moves"":12}","[297.22232142857143,298.12857142857143,0.2,297.22232142857143,298.12857142857143,100,297.22232142857143,298.12857142857143,208,297.22232142857143,298.12857142857143,316.6,297.22232142857143,298.12857142857143,416.5,337.22232142857143,268.12857142857143,555.9,348.22232142857143,301.12857142857143,695.7,214.22232142857143,481.12857142857143,845.1,123.22232142857143,494.12857142857143,964.7,51.222321428571426,500.12857142857143,1092.9,58.222321428571426,525.1285714285714,1213.7,62.222321428571426,539.1285714285714,1342.1,62.222321428571426,539.1285714285714,1443.1,62.222321428571426,539.1285714285714,1574.9,62.222321428571426,539.1285714285714,1683.2,62.222321428571426,539.1285714285714,1809.3,62.222321428571426,539.1285714285714,1966.6,62.222321428571426,539.1285714285714,2106.4,62.222321428571426,539.1285714285714,2211.4,62.222321428571426,539.1285714285714,2318.6,62.222321428571426,539.1285714285714,2434,98.22232142857143,524.1285714285714,2551.6,242.22232142857143,522.1285714285714,2689.7,256.22232142857143,532.1285714285714,2796.2,260.22232142857143,552.1285714285714,2912.4,260.22232142857143,556.1285714285714,3030.1,260.22232142857143,556.1285714285714,3133.7,260.22232142857143,556.1285714285714,3249.3,260.22232142857143,556.1285714285714,3376.3,260.22232142857143,556.1285714285714,3484.6,260.22232142857143,556.1285714285714,3588.9,260.22232142857143,556.1285714285714,3708.2,260.22232142857143,556.1285714285714,3820.6,260.22232142857143,556.1285714285714,3921.2,260.22232142857143,556.1285714285714,4039.4,260.22232142857143,556.1285714285714,4159.2,260.22232142857143,556.1285714285714,4283.2,260.22232142857143,556.1285714285714,4384.9,260.22232142857143,556.1285714285714,4500.2,260.22232142857143,556.1285714285714,4600.2,260.22232142857143,556.1285714285714,4705.9,260.22232142857143,556.1285714285714,4811.8,260.22232142857143,556.1285714285714,4939.5]","[4673.7,4673.8,2042.4,2059.9,571.5,""oops"",""down"",""right"",""bad_move"",6849.4,2171.6,1518.6,4677.8,653,""oops"",""down"",""up"",""bad_move"",18142.9,11292.9,2418.9,15147.4,576.6,""oops"",""down"",""right"",""bad_move"",21680.9,3535.9,3058,18145.2,477.7,""oops"",""down"",""left"",""good_move"",27145,5429.2,1422.4,21715.8,4006.8,""smooth"",""down"",""down"",""good_move"",30264.7,3117.9,2252.4,27146.8,865.5,""smooth"",""down"",""down"",""good_move"",33502.6,3235.8,2306.8,30266.9,928.9,""oops"",""down"",""down"",""good_move"",36630.5,3108.3,2539.2,33522.2,569.1,""oops"",""down"",""right"",""bad_move"",44073.4,7443.1,3228.8,40344.8,502.1,""oops"",""down"",""down"",""good_move"",46545.2,2460.7,1949.9,44084.6,510.8,""oops"",""left"",""up"",""bad_move"",50900.3,4337.9,2084.7,46563.2,2252.4,""smooth"",""left"",""left"",""good_move"",56015.9,5105.2,2018.6,50910.7,3086.7,""oops"",""left"",""left"",""good_move"",61678.1,5660,2998.1,56018.1,2661.9,""oops"",""left"",""left"",""good_move"",68359,6679.5,2359.5,61679.6,4320,""oops"",""left"",""up"",""bad_move"",76118.6,7747.6,7203.1,68371.1,544.5,""while_blue"",""left"",""left"",""good_move"",82404.4,6196.6,2659.6,76207.9,3536.9,""smooth"",""left"",""left"",""good_move"",86971,4563.5,2221.9,82407.5,2341.6,""oops"",""down"",""down"",""good_move"",90101.7,3106.9,2618.9,86994.8,488,""oops"",""down"",""down"",""good_move""]","",""
"4755","","<div style=""width:500px;"">
  <p>What determined the result of this run?</p>
  </div>","70","html-slider-response","50","1087804","0.0-5.0-1.8","170","1","2025-07-23 07:08:06","1f75c3e559b7213887762d5229550c2b","102.66.141.144","Mozilla/5.0 (Windows NT 10.0; Win64; x64) AppleWebKit/537.36 (KHTML, like Gecko) Chrome/137.0.0.0 Safari/537.36","WebKit","Chrome","137.0.0.0","Windows","10.0","https://app.prolific.com/","en-US,en;q=0.9","60f41ae35227aa02240ba0d9","683db9eb0562dbf637994deb","6880849d560983474c70b6c3","2","1","60f41ae35227aa02240ba0d9","2","1","2025-07-23T07:26:33.910Z","","","","","","","","","","","AttribQ","","50","","","","","","","","","","","","","","","","","","","","","","","","","","","","",""
"5120","","<div style=""width:500px;"">
  <p>How much control did you have over the ball?</p>
  </div>","31","html-slider-response","51","1092932","0.0-5.0-2.8","170","1","2025-07-23 07:08:06","1f75c3e559b7213887762d5229550c2b","102.66.141.144","Mozilla/5.0 (Windows NT 10.0; Win64; x64) AppleWebKit/537.36 (KHTML, like Gecko) Chrome/137.0.0.0 Safari/537.36","WebKit","Chrome","137.0.0.0","Windows","10.0","https://app.prolific.com/","en-US,en;q=0.9","60f41ae35227aa02240ba0d9","683db9eb0562dbf637994deb","6880849d560983474c70b6c3","2","1","60f41ae35227aa02240ba0d9","2","1","2025-07-23T07:26:39.037Z","","","","","","","","","","","ControlQ","","50","","","","","","","","","","","","","","","","","","","","","","","","","","","","",""
"4986","","<div style=""width:500px;"">
  <p>How would you describe your current emotional state?</p>
  </div>","50","html-slider-response","52","1097938","0.0-5.0-3.8","170","1","2025-07-23 07:08:06","1f75c3e559b7213887762d5229550c2b","102.66.141.144","Mozilla/5.0 (Windows NT 10.0; Win64; x64) AppleWebKit/537.36 (KHTML, like Gecko) Chrome/137.0.0.0 Safari/537.36","WebKit","Chrome","137.0.0.0","Windows","10.0","https://app.prolific.com/","en-US,en;q=0.9","60f41ae35227aa02240ba0d9","683db9eb0562dbf637994deb","6880849d560983474c70b6c3","2","1","60f41ae35227aa02240ba0d9","2","1","2025-07-23T07:26:44.043Z","","","","","","","","","","","StressQ","","50","","","","","","","","","","","","","","","","","","","","","","","","","","","","",""
"3519","","<div style=""width:500px;"">
  <p>What best describes how you currently feel?</p>
  </div>","70","html-slider-response","53","1101464","0.0-5.0-4.8","170","1","2025-07-23 07:08:06","1f75c3e559b7213887762d5229550c2b","102.66.141.144","Mozilla/5.0 (Windows NT 10.0; Win64; x64) AppleWebKit/537.36 (KHTML, like Gecko) Chrome/137.0.0.0 Safari/537.36","WebKit","Chrome","137.0.0.0","Windows","10.0","https://app.prolific.com/","en-US,en;q=0.9","60f41ae35227aa02240ba0d9","683db9eb0562dbf637994deb","6880849d560983474c70b6c3","2","1","60f41ae35227aa02240ba0d9","2","1","2025-07-23T07:26:47.569Z","","","","","","","","","","","MotivationQ","","50","","","","","","","","","","","","","","","","","","","","","","","","","","","","",""
"","","","","ctl-task-cpt","54","1147513","0.0-5.0-0.9","170","1","2025-07-23 07:08:06","1f75c3e559b7213887762d5229550c2b","102.66.141.144","Mozilla/5.0 (Windows NT 10.0; Win64; x64) AppleWebKit/537.36 (KHTML, like Gecko) Chrome/137.0.0.0 Safari/537.36","WebKit","Chrome","137.0.0.0","Windows","10.0","https://app.prolific.com/","en-US,en;q=0.9","60f41ae35227aa02240ba0d9","683db9eb0562dbf637994deb","6880849d560983474c70b6c3","2","1","60f41ae35227aa02240ba0d9","2","1","2025-07-23T07:27:33.619Z","","","","","","","","","","","","","","win-only","0","g1:NW,g2:SE","0.4","10","0","1125246.3","7001.4","12027.3","42986.5","1","4","8","6","2","8","8","57","49","0.4318181818181818","1457.8","3000","2320","[""down"",""right""]","{""num_key_presses"":8,""num_perfect"":4,""num_errors"":0,""num_randdir"":4,""num_randdir_good_moves"":3,""num_whilered"":0,""num_whileblue"":0,""num_blue"":1,""num_good_moves"":7}","[292.22232142857143,297.12857142857143,0.2,292.22232142857143,297.12857142857143,133.7,292.22232142857143,297.12857142857143,235.8,292.22232142857143,297.12857142857143,348.4,292.22232142857143,297.12857142857143,479.5,271.22232142857143,356.12857142857143,619.2,405.22232142857143,469.12857142857143,775.9,447.22232142857143,487.12857142857143,879.2,471.22232142857143,501.12857142857143,980.1,526.2223214285714,527.1285714285714,1126,526.2223214285714,527.1285714285714,1248.3,526.2223214285714,527.1285714285714,1349.9,526.2223214285714,527.1285714285714,1516.7,526.2223214285714,527.1285714285714,1631.2,526.2223214285714,527.1285714285714,1781.6,526.2223214285714,527.1285714285714,1886.7,526.2223214285714,527.1285714285714,2001.2,526.2223214285714,527.1285714285714,2107.9,526.2223214285714,527.1285714285714,2217.1,526.2223214285714,527.1285714285714,2339.2,312.22232142857143,531.1285714285714,2448.8,199.22232142857143,534.1285714285714,2615.9,199.22232142857143,534.1285714285714,2765.2,199.22232142857143,534.1285714285714,2876.1,199.22232142857143,534.1285714285714,2995.8,199.22232142857143,534.1285714285714,3100,199.22232142857143,534.1285714285714,3215.3,199.22232142857143,534.1285714285714,3315.4,199.22232142857143,534.1285714285714,3442.7,199.22232142857143,534.1285714285714,3559.5,199.22232142857143,534.1285714285714,3688.3,199.22232142857143,534.1285714285714,3789,199.22232142857143,534.1285714285714,3908.7,199.22232142857143,534.1285714285714,4010,199.22232142857143,534.1285714285714,4138.9,199.22232142857143,534.1285714285714,4239.5,199.22232142857143,534.1285714285714,4368.2,199.22232142857143,534.1285714285714,4498.9,199.22232142857143,534.1285714285714,4599.2,199.22232142857143,534.1285714285714,4748.4,199.22232142857143,534.1285714285714,4870.5,199.22232142857143,534.1285714285714,4973.6]","[1617.3,1617.3,1000,0,617.3,""smooth"",""down"",""down"",""good_move"",5406.5,3784.3,3152.1,1622.2,632.2,""smooth"",""down"",""down"",""good_move"",8575.6,3168.9,2701.9,5406.7,467,""smooth"",""down"",""down"",""good_move"",11722.7,3146.8,2642.5,8576,504.3,""smooth"",""right"",""right"",""good_move"",14393.1,2670,2211.1,11723.1,458.9,""oops"",""right"",""left"",""bad_move"",20520.2,6126.1,2534.3,14394.1,3591.8,""oops"",""right"",""right"",""good_move"",23993.6,3470,2886.1,20523.7,583.9,""oops"",""right"",""right"",""good_move"",30193.7,6198,2646.6,27066.3,480.8,""oops"",""right"",""right"",""good_move""]","",""
"3618","","<div style=""width:500px;"">
  <p>What determined the result of this run?</p>
  </div>","77","html-slider-response","55","1151146","0.0-5.0-1.9","170","1","2025-07-23 07:08:06","1f75c3e559b7213887762d5229550c2b","102.66.141.144","Mozilla/5.0 (Windows NT 10.0; Win64; x64) AppleWebKit/537.36 (KHTML, like Gecko) Chrome/137.0.0.0 Safari/537.36","WebKit","Chrome","137.0.0.0","Windows","10.0","https://app.prolific.com/","en-US,en;q=0.9","60f41ae35227aa02240ba0d9","683db9eb0562dbf637994deb","6880849d560983474c70b6c3","2","1","60f41ae35227aa02240ba0d9","2","1","2025-07-23T07:27:37.251Z","","","","","","","","","","","AttribQ","","50","","","","","","","","","","","","","","","","","","","","","","","","","","","","",""
"5060","","<div style=""width:500px;"">
  <p>How much control did you have over the ball?</p>
  </div>","84","html-slider-response","56","1156211","0.0-5.0-2.9","170","1","2025-07-23 07:08:06","1f75c3e559b7213887762d5229550c2b","102.66.141.144","Mozilla/5.0 (Windows NT 10.0; Win64; x64) AppleWebKit/537.36 (KHTML, like Gecko) Chrome/137.0.0.0 Safari/537.36","WebKit","Chrome","137.0.0.0","Windows","10.0","https://app.prolific.com/","en-US,en;q=0.9","60f41ae35227aa02240ba0d9","683db9eb0562dbf637994deb","6880849d560983474c70b6c3","2","1","60f41ae35227aa02240ba0d9","2","1","2025-07-23T07:27:42.316Z","","","","","","","","","","","ControlQ","","50","","","","","","","","","","","","","","","","","","","","","","","","","","","","",""
"4576","","<div style=""width:500px;"">
  <p>How would you describe your current emotional state?</p>
  </div>","28","html-slider-response","57","1160804","0.0-5.0-3.9","170","1","2025-07-23 07:08:06","1f75c3e559b7213887762d5229550c2b","102.66.141.144","Mozilla/5.0 (Windows NT 10.0; Win64; x64) AppleWebKit/537.36 (KHTML, like Gecko) Chrome/137.0.0.0 Safari/537.36","WebKit","Chrome","137.0.0.0","Windows","10.0","https://app.prolific.com/","en-US,en;q=0.9","60f41ae35227aa02240ba0d9","683db9eb0562dbf637994deb","6880849d560983474c70b6c3","2","1","60f41ae35227aa02240ba0d9","2","1","2025-07-23T07:27:46.909Z","","","","","","","","","","","StressQ","","50","","","","","","","","","","","","","","","","","","","","","","","","","","","","",""
"4296","","<div style=""width:500px;"">
  <p>What best describes how you currently feel?</p>
  </div>","73","html-slider-response","58","1165109","0.0-5.0-4.9","170","1","2025-07-23 07:08:06","1f75c3e559b7213887762d5229550c2b","102.66.141.144","Mozilla/5.0 (Windows NT 10.0; Win64; x64) AppleWebKit/537.36 (KHTML, like Gecko) Chrome/137.0.0.0 Safari/537.36","WebKit","Chrome","137.0.0.0","Windows","10.0","https://app.prolific.com/","en-US,en;q=0.9","60f41ae35227aa02240ba0d9","683db9eb0562dbf637994deb","6880849d560983474c70b6c3","2","1","60f41ae35227aa02240ba0d9","2","1","2025-07-23T07:27:51.215Z","","","","","","","","","","","MotivationQ","","50","","","","","","","","","","","","","","","","","","","","","","","","","","","","",""
"","","","","ctl-task-cpt","59","1203687","0.0-5.0-0.10","170","1","2025-07-23 07:08:06","1f75c3e559b7213887762d5229550c2b","102.66.141.144","Mozilla/5.0 (Windows NT 10.0; Win64; x64) AppleWebKit/537.36 (KHTML, like Gecko) Chrome/137.0.0.0 Safari/537.36","WebKit","Chrome","137.0.0.0","Windows","10.0","https://app.prolific.com/","en-US,en;q=0.9","60f41ae35227aa02240ba0d9","683db9eb0562dbf637994deb","6880849d560983474c70b6c3","2","1","60f41ae35227aa02240ba0d9","2","1","2025-07-23T07:28:29.795Z","","","","","","","","","","","","","","win-only","1","g1:NE,g2:SW","0.5","11","0","1188897.2","2433.1","7462.2","35472.1","1","4","4","6","2","4","4","61","57","0.4621212121212121","1473.7","3000","2550","[""down"",""left""]","{""num_key_presses"":6,""num_perfect"":5,""num_errors"":0,""num_randdir"":1,""num_randdir_good_moves"":1,""num_whilered"":0,""num_whileblue"":0,""num_blue"":0,""num_good_moves"":6}","[293.22232142857143,292.12857142857143,0.5,293.22232142857143,292.12857142857143,118.8,293.22232142857143,292.12857142857143,235.3,293.22232142857143,292.12857142857143,348.2,326.22232142857143,308.12857142857143,473.6,255.22232142857143,393.12857142857143,662.1,79.22232142857143,493.12857142857143,804.4,-5.777678571428574,546.1285714285714,954.8,35.222321428571426,569.1285714285714,1151.1,42.222321428571426,558.1285714285714,1285.3,42.222321428571426,558.1285714285714,1423.9,42.222321428571426,558.1285714285714,1537.5,42.222321428571426,558.1285714285714,1714.6,42.222321428571426,558.1285714285714,1868.3,42.222321428571426,558.1285714285714,2034.2,42.222321428571426,558.1285714285714,2161.9,42.222321428571426,558.1285714285714,2333.4,42.222321428571426,558.1285714285714,2454,42.222321428571426,558.1285714285714,2589,42.222321428571426,558.1285714285714,2696.2,42.222321428571426,558.1285714285714,2837.9,42.222321428571426,558.1285714285714,2983,42.222321428571426,558.1285714285714,3122.2,42.222321428571426,558.1285714285714,3262.6,42.222321428571426,558.1285714285714,3424.8,42.222321428571426,558.1285714285714,3561.6,42.222321428571426,558.1285714285714,3675.1,42.222321428571426,558.1285714285714,3804.2,42.222321428571426,558.1285714285714,3923.6,42.222321428571426,558.1285714285714,4047.1,42.222321428571426,558.1285714285714,4168.8,42.222321428571426,558.1285714285714,4288.2,42.222321428571426,558.1285714285714,4427.3,42.222321428571426,558.1285714285714,4543.3,42.222321428571426,558.1285714285714,4679.8,42.222321428571426,558.1285714285714,4794.6,42.222321428571426,558.1285714285714,4927.9]","[1703.8,1703.8,1000,0,703.8,""smooth"",""down"",""down"",""good_move"",5047.7,3340.8,2566.3,1707,774.5,""smooth"",""down"",""down"",""good_move"",8490.6,3439.8,2863.5,5050.9,576.2,""oops"",""down"",""left"",""good_move"",14357.1,5858,1835.8,8499.2,4022.1,""smooth"",""down"",""down"",""good_move"",17609.1,3250.7,2712.6,14358.4,538.1,""smooth"",""left"",""left"",""good_move"",26743.1,9116.3,2155.7,17626.8,6960.7,""smooth"",""left"",""left"",""good_move""]","",""
"4313","","<div style=""width:500px;"">
  <p>What determined the result of this run?</p>
  </div>","83","html-slider-response","60","1208009","0.0-5.0-1.10","170","1","2025-07-23 07:08:06","1f75c3e559b7213887762d5229550c2b","102.66.141.144","Mozilla/5.0 (Windows NT 10.0; Win64; x64) AppleWebKit/537.36 (KHTML, like Gecko) Chrome/137.0.0.0 Safari/537.36","WebKit","Chrome","137.0.0.0","Windows","10.0","https://app.prolific.com/","en-US,en;q=0.9","60f41ae35227aa02240ba0d9","683db9eb0562dbf637994deb","6880849d560983474c70b6c3","2","1","60f41ae35227aa02240ba0d9","2","1","2025-07-23T07:28:34.114Z","","","","","","","","","","","AttribQ","","50","","","","","","","","","","","","","","","","","","","","","","","","","","","","",""
"5707","","<div style=""width:500px;"">
  <p>How much control did you have over the ball?</p>
  </div>","74","html-slider-response","61","1213723","0.0-5.0-2.10","170","1","2025-07-23 07:08:06","1f75c3e559b7213887762d5229550c2b","102.66.141.144","Mozilla/5.0 (Windows NT 10.0; Win64; x64) AppleWebKit/537.36 (KHTML, like Gecko) Chrome/137.0.0.0 Safari/537.36","WebKit","Chrome","137.0.0.0","Windows","10.0","https://app.prolific.com/","en-US,en;q=0.9","60f41ae35227aa02240ba0d9","683db9eb0562dbf637994deb","6880849d560983474c70b6c3","2","1","60f41ae35227aa02240ba0d9","2","1","2025-07-23T07:28:39.829Z","","","","","","","","","","","ControlQ","","50","","","","","","","","","","","","","","","","","","","","","","","","","","","","",""
"4112","","<div style=""width:500px;"">
  <p>How would you describe your current emotional state?</p>
  </div>","46","html-slider-response","62","1217859","0.0-5.0-3.10","170","1","2025-07-23 07:08:06","1f75c3e559b7213887762d5229550c2b","102.66.141.144","Mozilla/5.0 (Windows NT 10.0; Win64; x64) AppleWebKit/537.36 (KHTML, like Gecko) Chrome/137.0.0.0 Safari/537.36","WebKit","Chrome","137.0.0.0","Windows","10.0","https://app.prolific.com/","en-US,en;q=0.9","60f41ae35227aa02240ba0d9","683db9eb0562dbf637994deb","6880849d560983474c70b6c3","2","1","60f41ae35227aa02240ba0d9","2","1","2025-07-23T07:28:43.965Z","","","","","","","","","","","StressQ","","50","","","","","","","","","","","","","","","","","","","","","","","","","","","","",""
"4380","","<div style=""width:500px;"">
  <p>What best describes how you currently feel?</p>
  </div>","69","html-slider-response","63","1222247","0.0-5.0-4.10","170","1","2025-07-23 07:08:06","1f75c3e559b7213887762d5229550c2b","102.66.141.144","Mozilla/5.0 (Windows NT 10.0; Win64; x64) AppleWebKit/537.36 (KHTML, like Gecko) Chrome/137.0.0.0 Safari/537.36","WebKit","Chrome","137.0.0.0","Windows","10.0","https://app.prolific.com/","en-US,en;q=0.9","60f41ae35227aa02240ba0d9","683db9eb0562dbf637994deb","6880849d560983474c70b6c3","2","1","60f41ae35227aa02240ba0d9","2","1","2025-07-23T07:28:48.353Z","","","","","","","","","","","MotivationQ","","50","","","","","","","","","","","","","","","","","","","","","","","","","","","","",""
"","","","","ctl-task-cpt","64","1385073","0.0-5.0-0.11","170","1","2025-07-23 07:08:06","1f75c3e559b7213887762d5229550c2b","102.66.141.144","Mozilla/5.0 (Windows NT 10.0; Win64; x64) AppleWebKit/537.36 (KHTML, like Gecko) Chrome/137.0.0.0 Safari/537.36","WebKit","Chrome","137.0.0.0","Windows","10.0","https://app.prolific.com/","en-US,en;q=0.9","60f41ae35227aa02240ba0d9","683db9eb0562dbf637994deb","6880849d560983474c70b6c3","2","1","60f41ae35227aa02240ba0d9","2","1","2025-07-23T07:31:31.218Z","","","","","","","","","","","","","","win-only","2","g1:SE,g2:NW","0.6","12","0","1246010.9","1763.6","6774.5","159386.7","1","4","8","6","2","8","8","69","61","0.5227272727272727","1583.5","3000","1330","[""left"",""up""]","{""num_key_presses"":24,""num_perfect"":14,""num_errors"":0,""num_randdir"":10,""num_randdir_good_moves"":1,""num_whilered"":0,""num_whileblue"":0,""num_blue"":4,""num_good_moves"":15}","[292.22232142857143,300.12857142857143,0.2,292.22232142857143,300.12857142857143,114,292.22232142857143,300.12857142857143,233,292.22232142857143,300.12857142857143,366.6,346.22232142857143,354.12857142857143,506.1,470.22232142857143,407.12857142857143,610.5,510.22232142857143,449.12857142857143,719.5,266.22232142857143,288.12857142857143,870,117.22232142857143,118.12857142857143,977,96.22232142857143,85.12857142857143,1137.9,69.22232142857143,76.12857142857143,1240.2,60.222321428571426,76.12857142857143,1402.2,60.222321428571426,76.12857142857143,1531.6,60.222321428571426,76.12857142857143,1676.2,60.222321428571426,76.12857142857143,1814.1,60.222321428571426,76.12857142857143,1944.7,48.222321428571426,120.12857142857143,2092.3,8.222321428571426,492.12857142857143,2241.3,8.222321428571426,516.1285714285714,2347.2,8.222321428571426,516.1285714285714,2486.8,8.222321428571426,516.1285714285714,2602.4,8.222321428571426,516.1285714285714,2724.4,8.222321428571426,516.1285714285714,2824.5,8.222321428571426,516.1285714285714,2936,8.222321428571426,516.1285714285714,3066.2,8.222321428571426,516.1285714285714,3235.1,8.222321428571426,516.1285714285714,3377.3,8.222321428571426,516.1285714285714,3504.8,8.222321428571426,516.1285714285714,3611.2,8.222321428571426,516.1285714285714,3746.9,8.222321428571426,516.1285714285714,3864.3,8.222321428571426,516.1285714285714,3996.8,8.222321428571426,516.1285714285714,4098.9,8.222321428571426,516.1285714285714,4208.6,8.222321428571426,516.1285714285714,4440.4,8.222321428571426,516.1285714285714,4605.8,8.222321428571426,516.1285714285714,4736.2,8.222321428571426,516.1285714285714,4850.3]","[4433.8,4433.8,1779.4,2024.8,629.6,""smooth"",""up"",""up"",""good_move"",10506,6064,3050.3,4442,3013.7,""smooth"",""up"",""up"",""good_move"",20026.1,9520.1,3019.2,10506.1,6500.9,""smooth"",""up"",""up"",""good_move"",29996.3,9968,2973,20028.4,6995,""oops"",""left"",""right"",""bad_move"",33575.1,3576.9,2880.7,29998.3,696.1,""oops"",""left"",""down"",""bad_move"",37819.9,4175.5,2865.7,33644.5,1309.8,""smooth"",""left"",""left"",""good_move"",46142.3,8313.9,3160.3,37828.4,5153.6,""smooth"",""left"",""left"",""good_move"",54218.9,8072.4,3634.7,46146.5,4437.8,""smooth"",""left"",""left"",""good_move"",64409.3,10188.1,2232.7,54221.2,7955.5,""oops"",""left"",""right"",""bad_move"",68131.1,3720,3138.5,64411.1,584.8,""oops"",""left"",""right"",""bad_move"",74556.5,6419.5,2571.7,71451.8,533,""oops"",""left"",""right"",""bad_move"",78018,3460.2,2528.4,74557.9,931.7,""smooth"",""left"",""left"",""good_move"",87919,9899.3,2538.3,84878.6,502.2,""smooth"",""left"",""left"",""good_move"",97850.1,9928.8,1707.3,95610,532.8,""smooth"",""left"",""left"",""good_move"",104972,7120.7,1950.8,97851.4,5169.9,""oops"",""left"",""down"",""bad_move"",108476.5,3501.3,2818.3,104975.2,683,""smooth"",""left"",""left"",""good_move"",115284,6801,2714.4,108483,4086.6,""oops"",""up"",""down"",""bad_move"",119026.6,3741.5,3123.6,115285.2,617.9,""smooth"",""up"",""up"",""good_move"",124805.2,5752.9,2551.3,119052.3,3201.6,""smooth"",""up"",""up"",""good_move"",131404.1,6597.7,2830.9,124806.5,3766.7,""oops"",""up"",""down"",""bad_move"",134365.3,2945.4,2374.8,131420,570.6,""oops"",""up"",""down"",""bad_move"",137981,3605.7,3053.7,134375.4,552,""smooth"",""up"",""up"",""good_move"",145599.9,7615.9,3057.9,137984,4558,""oops"",""up"",""up"",""good_move"",152204.8,6582.4,2312.3,145622.4,4270.1,""smooth"",""up"",""up"",""good_move""]","",""
"9506","","<div style=""width:500px;"">
  <p>What determined the result of this run?</p>
  </div>","77","html-slider-response","65","1395513","0.0-5.0-1.11","170","1","2025-07-23 07:08:06","1f75c3e559b7213887762d5229550c2b","102.66.141.144","Mozilla/5.0 (Windows NT 10.0; Win64; x64) AppleWebKit/537.36 (KHTML, like Gecko) Chrome/137.0.0.0 Safari/537.36","WebKit","Chrome","137.0.0.0","Windows","10.0","https://app.prolific.com/","en-US,en;q=0.9","60f41ae35227aa02240ba0d9","683db9eb0562dbf637994deb","6880849d560983474c70b6c3","2","1","60f41ae35227aa02240ba0d9","2","1","2025-07-23T07:31:41.618Z","","","","","","","","","","","AttribQ","","50","","","","","","","","","","","","","","","","","","","","","","","","","","","","",""
"6756","","<div style=""width:500px;"">
  <p>How much control did you have over the ball?</p>
  </div>","38","html-slider-response","66","1402320","0.0-5.0-2.11","170","1","2025-07-23 07:08:06","1f75c3e559b7213887762d5229550c2b","102.66.141.144","Mozilla/5.0 (Windows NT 10.0; Win64; x64) AppleWebKit/537.36 (KHTML, like Gecko) Chrome/137.0.0.0 Safari/537.36","WebKit","Chrome","137.0.0.0","Windows","10.0","https://app.prolific.com/","en-US,en;q=0.9","60f41ae35227aa02240ba0d9","683db9eb0562dbf637994deb","6880849d560983474c70b6c3","2","1","60f41ae35227aa02240ba0d9","2","1","2025-07-23T07:31:48.425Z","","","","","","","","","","","ControlQ","","50","","","","","","","","","","","","","","","","","","","","","","","","","","","","",""
"5768","","<div style=""width:500px;"">
  <p>How would you describe your current emotional state?</p>
  </div>","35","html-slider-response","67","1408098","0.0-5.0-3.11","170","1","2025-07-23 07:08:06","1f75c3e559b7213887762d5229550c2b","102.66.141.144","Mozilla/5.0 (Windows NT 10.0; Win64; x64) AppleWebKit/537.36 (KHTML, like Gecko) Chrome/137.0.0.0 Safari/537.36","WebKit","Chrome","137.0.0.0","Windows","10.0","https://app.prolific.com/","en-US,en;q=0.9","60f41ae35227aa02240ba0d9","683db9eb0562dbf637994deb","6880849d560983474c70b6c3","2","1","60f41ae35227aa02240ba0d9","2","1","2025-07-23T07:31:54.203Z","","","","","","","","","","","StressQ","","50","","","","","","","","","","","","","","","","","","","","","","","","","","","","",""
"4199","","<div style=""width:500px;"">
  <p>What best describes how you currently feel?</p>
  </div>","72","html-slider-response","68","1412307","0.0-5.0-4.11","170","1","2025-07-23 07:08:06","1f75c3e559b7213887762d5229550c2b","102.66.141.144","Mozilla/5.0 (Windows NT 10.0; Win64; x64) AppleWebKit/537.36 (KHTML, like Gecko) Chrome/137.0.0.0 Safari/537.36","WebKit","Chrome","137.0.0.0","Windows","10.0","https://app.prolific.com/","en-US,en;q=0.9","60f41ae35227aa02240ba0d9","683db9eb0562dbf637994deb","6880849d560983474c70b6c3","2","1","60f41ae35227aa02240ba0d9","2","1","2025-07-23T07:31:58.412Z","","","","","","","","","","","MotivationQ","","50","","","","","","","","","","","","","","","","","","","","","","","","","","","","",""
"","","","","ctl-task-cpt","69","1479598","0.0-5.0-0.12","170","1","2025-07-23 07:08:06","1f75c3e559b7213887762d5229550c2b","102.66.141.144","Mozilla/5.0 (Windows NT 10.0; Win64; x64) AppleWebKit/537.36 (KHTML, like Gecko) Chrome/137.0.0.0 Safari/537.36","WebKit","Chrome","137.0.0.0","Windows","10.0","https://app.prolific.com/","en-US,en;q=0.9","60f41ae35227aa02240ba0d9","683db9eb0562dbf637994deb","6880849d560983474c70b6c3","2","1","60f41ae35227aa02240ba0d9","2","1","2025-07-23T07:33:05.703Z","","","","","","","","","","","","","","win-only","0","g1:NW,g2:SE","0.7","13","0","1436476.2","3371.4","8383.4","63760.2","1","4","4","6","2","4","4","73","69","0.553030303030303","2051.7","3000","2325","[""down"",""right""]","{""num_key_presses"":10,""num_perfect"":7,""num_errors"":0,""num_randdir"":3,""num_randdir_good_moves"":1,""num_whilered"":0,""num_whileblue"":0,""num_blue"":4,""num_good_moves"":8}","[294.22232142857143,294.12857142857143,0.2,294.22232142857143,294.12857142857143,139.3,294.22232142857143,294.12857142857143,260.8,294.22232142857143,294.12857142857143,382.1,294.22232142857143,294.12857142857143,492,294.22232142857143,294.12857142857143,649.6,417.22232142857143,333.12857142857143,863.1,482.22232142857143,465.12857142857143,1029.9,480.22232142857143,476.12857142857143,1135.1,480.22232142857143,476.12857142857143,1271.8,515.2223214285714,508.12857142857143,1477.9,551.2223214285714,549.1285714285714,1665.4,538.2223214285714,549.1285714285714,1780.2,531.2223214285714,549.1285714285714,1882.6,531.2223214285714,549.1285714285714,1990.3,531.2223214285714,549.1285714285714,2106.1,531.2223214285714,549.1285714285714,2237.8,531.2223214285714,549.1285714285714,2385.7,531.2223214285714,549.1285714285714,2672.5,531.2223214285714,549.1285714285714,2855.7,531.2223214285714,549.1285714285714,2991.4,531.2223214285714,549.1285714285714,3125.8,531.2223214285714,549.1285714285714,3407.6,531.2223214285714,549.1285714285714,3532.6,531.2223214285714,549.1285714285714,3634.4,531.2223214285714,549.1285714285714,3746.4,531.2223214285714,549.1285714285714,3886.7,531.2223214285714,549.1285714285714,4002.1,531.2223214285714,549.1285714285714,4120.7,531.2223214285714,549.1285714285714,4249.7,531.2223214285714,549.1285714285714,4367.8,531.2223214285714,549.1285714285714,4476.3,531.2223214285714,549.1285714285714,4579.7,531.2223214285714,549.1285714285714,4693.8,531.2223214285714,549.1285714285714,4814.5,531.2223214285714,549.1285714285714,4918.3]","[10181.8,10181.9,2647.8,6939.5,594.6,""smooth"",""down"",""down"",""good_move"",13878.2,3686.1,3047.9,10192.2,638.2,""smooth"",""down"",""down"",""good_move"",16778.7,2900.3,2276.6,13878.4,623.7,""oops"",""down"",""left"",""bad_move"",28655.8,11858.1,2405.1,25728.2,522.5,""oops"",""down"",""left"",""bad_move"",35657.6,6999.3,1948.9,28658.4,5050.3,""smooth"",""down"",""down"",""good_move"",39232,3562.9,2960.3,35669.1,602.6,""smooth"",""right"",""right"",""good_move"",45773.5,6518.6,2703.5,42503,567,""smooth"",""right"",""right"",""good_move"",49168.4,3382,2768.4,45786.4,613.6,""smooth"",""right"",""right"",""good_move"",51428.3,2257.6,1349.6,49170.7,908,""oops"",""right"",""right"",""good_move"",54177,2746.6,2145.4,51430.4,601.2,""smooth"",""right"",""right"",""good_move""]","",""
"3991","","<div style=""width:500px;"">
  <p>What determined the result of this run?</p>
  </div>","78","html-slider-response","70","1483600","0.0-5.0-1.12","170","1","2025-07-23 07:08:06","1f75c3e559b7213887762d5229550c2b","102.66.141.144","Mozilla/5.0 (Windows NT 10.0; Win64; x64) AppleWebKit/537.36 (KHTML, like Gecko) Chrome/137.0.0.0 Safari/537.36","WebKit","Chrome","137.0.0.0","Windows","10.0","https://app.prolific.com/","en-US,en;q=0.9","60f41ae35227aa02240ba0d9","683db9eb0562dbf637994deb","6880849d560983474c70b6c3","2","1","60f41ae35227aa02240ba0d9","2","1","2025-07-23T07:33:09.706Z","","","","","","","","","","","AttribQ","","50","","","","","","","","","","","","","","","","","","","","","","","","","","","","",""
"5156","","<div style=""width:500px;"">
  <p>How much control did you have over the ball?</p>
  </div>","73","html-slider-response","71","1488762","0.0-5.0-2.12","170","1","2025-07-23 07:08:06","1f75c3e559b7213887762d5229550c2b","102.66.141.144","Mozilla/5.0 (Windows NT 10.0; Win64; x64) AppleWebKit/537.36 (KHTML, like Gecko) Chrome/137.0.0.0 Safari/537.36","WebKit","Chrome","137.0.0.0","Windows","10.0","https://app.prolific.com/","en-US,en;q=0.9","60f41ae35227aa02240ba0d9","683db9eb0562dbf637994deb","6880849d560983474c70b6c3","2","1","60f41ae35227aa02240ba0d9","2","1","2025-07-23T07:33:14.867Z","","","","","","","","","","","ControlQ","","50","","","","","","","","","","","","","","","","","","","","","","","","","","","","",""
"3828","","<div style=""width:500px;"">
  <p>How would you describe your current emotional state?</p>
  </div>","47","html-slider-response","72","1492596","0.0-5.0-3.12","170","1","2025-07-23 07:08:06","1f75c3e559b7213887762d5229550c2b","102.66.141.144","Mozilla/5.0 (Windows NT 10.0; Win64; x64) AppleWebKit/537.36 (KHTML, like Gecko) Chrome/137.0.0.0 Safari/537.36","WebKit","Chrome","137.0.0.0","Windows","10.0","https://app.prolific.com/","en-US,en;q=0.9","60f41ae35227aa02240ba0d9","683db9eb0562dbf637994deb","6880849d560983474c70b6c3","2","1","60f41ae35227aa02240ba0d9","2","1","2025-07-23T07:33:18.702Z","","","","","","","","","","","StressQ","","50","","","","","","","","","","","","","","","","","","","","","","","","","","","","",""
"4182","","<div style=""width:500px;"">
  <p>What best describes how you currently feel?</p>
  </div>","78","html-slider-response","73","1496786","0.0-5.0-4.12","170","1","2025-07-23 07:08:06","1f75c3e559b7213887762d5229550c2b","102.66.141.144","Mozilla/5.0 (Windows NT 10.0; Win64; x64) AppleWebKit/537.36 (KHTML, like Gecko) Chrome/137.0.0.0 Safari/537.36","WebKit","Chrome","137.0.0.0","Windows","10.0","https://app.prolific.com/","en-US,en;q=0.9","60f41ae35227aa02240ba0d9","683db9eb0562dbf637994deb","6880849d560983474c70b6c3","2","1","60f41ae35227aa02240ba0d9","2","1","2025-07-23T07:33:22.892Z","","","","","","","","","","","MotivationQ","","50","","","","","","","","","","","","","","","","","","","","","","","","","","","","",""
