"rt","response_timestamp","stimulus","response","trial_type","trial_index","time_elapsed","internal_node_id","run_id","condition","recorded_at","source_code_version","ip","user_agent","device","browser","browser_version","platform","platform_version","referer","accept_language","PROLIFIC_PID","STUDY_ID","SESSION_ID","WEEK","BATCH","prolific_id","week","batch","realtime","success","responses","item_order","radio_event_ids","radio_event_times","key_event_times","mouse_event_times","straightlining","zigzagging","honeypot","eventType","view_history","slider_start","which_type","canvas_config","goals_layout","control_level","trial_number","tutorial_trial_number","trial_start_time","phase1_start_time","phase2_start_time","phase3_start_time","goal_1_value","goal_1_distance","goal_2_value","goal_2_distance","goal_selected","outcome","outcome_total","participant_final_score","participant_initial_score","participant_final_score_prop","goal_choice_rt","allocated_time","allocated_time_remaining","goal_direction","counts","mouse_movements","key_presses","question_order","question_id"
"1787","1753171890819","<p style='font-size:40px;line-height:1.25'><strong>Welcome to the experiment!</strong></p><p style='font-size:1.1em;line-height:1.25'>Thank you for participanting in our experiment again! You will be asked to play the Dysfunctional Ball Game again. We will briefly recap the rules before we start.</p><p style='font-size:1.1em;line-height:1.25'>Press <strong>Next</strong> to continue.</p>","0","custom-html-button-response","0","1802","0.0-0.0","137","1","2025-07-22 08:11:21","1f75c3e559b7213887762d5229550c2b","92.40.201.96","Mozilla/5.0 (Windows NT 10.0; Win64; x64; rv:140.0) Gecko/20100101 Firefox/140.0","","Firefox","140.0","Windows","10.0","https://app.prolific.com/","en-GB,en;q=0.5","676e882e8a97b91ee272efe4","686e379bc37a29ffa5cdc956","687f477955aefd18f901c9f6","1","1","676e882e8a97b91ee272efe4","1","1","2025-07-22T08:11:30.820Z","","","","","","","","","","","","","","","","","","","","","","","","","","","","","","","","","","","","","","","","","",""
"17817","","","","fullscreen","1","20679","0.0-1.0","137","1","2025-07-22 08:11:21","1f75c3e559b7213887762d5229550c2b","92.40.201.96","Mozilla/5.0 (Windows NT 10.0; Win64; x64; rv:140.0) Gecko/20100101 Firefox/140.0","","Firefox","140.0","Windows","10.0","https://app.prolific.com/","en-GB,en;q=0.5","676e882e8a97b91ee272efe4","686e379bc37a29ffa5cdc956","687f477955aefd18f901c9f6","1","1","676e882e8a97b91ee272efe4","1","1","","true","","","","","","","","","","","","","","","","","","","","","","","","","","","","","","","","","","","","","","","","",""
"1548","1753171911249","<p style='font-size:1.1em;line-height:1.25'>In the following, we will ask you a few questions relating to your feelings in the last 24 hours.<br></p><p style='font-size:1.1em;line-height:1.25'>Press the <strong>Next</strong> button to continue.</p>","0","custom-html-button-response","2","22232","0.0-2.0-0.0","137","1","2025-07-22 08:11:21","1f75c3e559b7213887762d5229550c2b","92.40.201.96","Mozilla/5.0 (Windows NT 10.0; Win64; x64; rv:140.0) Gecko/20100101 Firefox/140.0","","Firefox","140.0","Windows","10.0","https://app.prolific.com/","en-GB,en;q=0.5","676e882e8a97b91ee272efe4","686e379bc37a29ffa5cdc956","687f477955aefd18f901c9f6","1","1","676e882e8a97b91ee272efe4","1","1","2025-07-22T08:11:51.250Z","","","","","","","","","","","","","","","","","","","","","","","","","","","","","","","","","","","","","","","","","",""
"101771","","","","survey-template","3","124010","0.0-2.0-1.0","137","1","2025-07-22 08:11:21","1f75c3e559b7213887762d5229550c2b","92.40.201.96","Mozilla/5.0 (Windows NT 10.0; Win64; x64; rv:140.0) Gecko/20100101 Firefox/140.0","","Firefox","140.0","Windows","10.0","https://app.prolific.com/","en-GB,en;q=0.5","676e882e8a97b91ee272efe4","686e379bc37a29ffa5cdc956","687f477955aefd18f901c9f6","1","1","676e882e8a97b91ee272efe4","1","1","2025-07-22T08:13:33.028Z","","{""Q01"":""1"",""Q02"":""1"",""Q03"":""1"",""Q04"":""2"",""Q05"":""2"",""Q06"":""3"",""Q07"":""1"",""Q08"":""1"",""Q09"":""2"",""Q10"":""3"",""Q11"":""3"",""Q12"":""1"",""Q13"":""5"",""Q14"":""1"",""Q15"":""2"",""Q16"":""1"",""Q17"":""1"",""Q18"":""1"",""Q19"":""2"",""Q20"":""1"",""Q21"":""2"",""Q22"":""1""}","[0,1,2,3,4,5,6,7,8,9,10,11,12,13,14,15,16,17,18,19,20,21]","[""Q01"",""Q02"",""Q03"",""Q04"",""Q05"",""Q06"",""Q07"",""Q08"",""Q09"",""Q10"",""Q11"",""Q12"",""Q13"",""Q14"",""Q15"",""Q16"",""Q17"",""Q18"",""Q19"",""Q20"",""Q21"",""Q22""]","[35199,37387,46149,47949,49713,52112,53671,56199,58929,60416,63018,67230,69273,72558,74990,79883,83389,85535,91315,94049,97494,99558]","[]","[0,35199,37387,46149,47949,49713,52112,53671,56199,58929,60416,63018,67230,69273,72558,74990,79883,83389,85535,91315,94049,97494,99558,101768]","0.5454545454545454","0.47619047619047616","0","drsp","","","","","","","","","","","","","","","","","","","","","","","","","","","","","","",""
"12075","","","","survey-template","4","136091","0.0-2.0-2.0","137","1","2025-07-22 08:11:21","1f75c3e559b7213887762d5229550c2b","92.40.201.96","Mozilla/5.0 (Windows NT 10.0; Win64; x64; rv:140.0) Gecko/20100101 Firefox/140.0","","Firefox","140.0","Windows","10.0","https://app.prolific.com/","en-GB,en;q=0.5","676e882e8a97b91ee272efe4","686e379bc37a29ffa5cdc956","687f477955aefd18f901c9f6","1","1","676e882e8a97b91ee272efe4","1","1","2025-07-22T08:13:45.110Z","","{""Q01"":""2"",""Q02"":""3"",""Q03"":""2""}","[0,1,2]","[""Q01"",""Q02"",""Q01"",""Q02"",""Q03""]","[3173,5278,7903,9229,10956]","[]","[3173,5278,7903,9229,10956,12075]","1","0","0","stress","","","","","","","","","","","","","","","","","","","","","","","","","","","","","","",""
"27605","","","","instructions","5","163700","0.0-3.0-0.0","137","1","2025-07-22 08:11:21","1f75c3e559b7213887762d5229550c2b","92.40.201.96","Mozilla/5.0 (Windows NT 10.0; Win64; x64; rv:140.0) Gecko/20100101 Firefox/140.0","","Firefox","140.0","Windows","10.0","https://app.prolific.com/","en-GB,en;q=0.5","676e882e8a97b91ee272efe4","686e379bc37a29ffa5cdc956","687f477955aefd18f901c9f6","1","1","676e882e8a97b91ee272efe4","1","1","","","","","","","","","","","","","[{""page_index"":0,""viewing_time"":27605}]","","","","","","","","","","","","","","","","","","","","","","","","","","","","","",""
"8589","","<p>Before you start with this game please answer the following three questions yourself. </p>
  <p>Through this game, we measure several aspects of your cognitive performance, such as reaction times, multi-tasking capabilities </p>
  <p>and the ability to assess the situation you are in.</p>
  <p></p>
  <p><b>How good do you usually are in such tasks?</b></p>","51","html-slider-response","6","172292","0.0-4.0-0.0","137","1","2025-07-22 08:11:21","1f75c3e559b7213887762d5229550c2b","92.40.201.96","Mozilla/5.0 (Windows NT 10.0; Win64; x64; rv:140.0) Gecko/20100101 Firefox/140.0","","Firefox","140.0","Windows","10.0","https://app.prolific.com/","en-GB,en;q=0.5","676e882e8a97b91ee272efe4","686e379bc37a29ffa5cdc956","687f477955aefd18f901c9f6","1","1","676e882e8a97b91ee272efe4","1","1","2025-07-22T08:14:21.310Z","","","","","","","","","","","PreSkillQ","","50","","","","","","","","","","","","","","","","","","","","","","","","","","","","",""
"8941","","<div style=""width:500px;"">
  <p>How well do you think you will perform in this task compared to other participants?</p>
  </div>","54","html-slider-response","7","181236","0.0-4.0-1.0","137","1","2025-07-22 08:11:21","1f75c3e559b7213887762d5229550c2b","92.40.201.96","Mozilla/5.0 (Windows NT 10.0; Win64; x64; rv:140.0) Gecko/20100101 Firefox/140.0","","Firefox","140.0","Windows","10.0","https://app.prolific.com/","en-GB,en;q=0.5","676e882e8a97b91ee272efe4","686e379bc37a29ffa5cdc956","687f477955aefd18f901c9f6","1","1","676e882e8a97b91ee272efe4","1","1","2025-07-22T08:14:30.254Z","","","","","","","","","","","PrePerfQ","","50","","","","","","","","","","","","","","","","","","","","","","","","","","","","",""
"4283","","<div style=""width:500px;"">
  <p>What best describes how you currently feel?</p>
  </div>","43","html-slider-response","8","185521","0.0-4.0-2.0","137","1","2025-07-22 08:11:21","1f75c3e559b7213887762d5229550c2b","92.40.201.96","Mozilla/5.0 (Windows NT 10.0; Win64; x64; rv:140.0) Gecko/20100101 Firefox/140.0","","Firefox","140.0","Windows","10.0","https://app.prolific.com/","en-GB,en;q=0.5","676e882e8a97b91ee272efe4","686e379bc37a29ffa5cdc956","687f477955aefd18f901c9f6","1","1","676e882e8a97b91ee272efe4","1","1","2025-07-22T08:14:34.540Z","","","","","","","","","","","PreMotivationQ","","50","","","","","","","","","","","","","","","","","","","","","","","","","","","","",""
"","","","","ctl-task-cpt","9","213545","0.0-5.0-0.0","137","1","2025-07-22 08:11:21","1f75c3e559b7213887762d5229550c2b","92.40.201.96","Mozilla/5.0 (Windows NT 10.0; Win64; x64; rv:140.0) Gecko/20100101 Firefox/140.0","","Firefox","140.0","Windows","10.0","https://app.prolific.com/","en-GB,en;q=0.5","676e882e8a97b91ee272efe4","686e379bc37a29ffa5cdc956","687f477955aefd18f901c9f6","1","1","676e882e8a97b91ee272efe4","1","1","2025-07-22T08:15:02.563Z","","","","","","","","","","","","","","win-only","2","g1:SE,g2:NW","1","1","0","193044","1359","6366","25006","1","4","4","6","1","1","1","1","0","0.007575757575757576","5007","3000","1940","[""down"",""right""]","{""num_key_presses"":4,""num_perfect"":4,""num_errors"":0,""num_randdir"":0,""num_randdir_good_moves"":0,""num_whilered"":0,""num_whileblue"":0,""num_blue"":2,""num_good_moves"":4}","[409.0714133126395,425.0714362008231,0,409.0714133126395,425.0714362008231,102,409.0714133126395,425.0714362008231,215,409.0714133126395,425.0714362008231,324,409.0714133126395,425.0714362008231,436,409.0714133126395,425.0714362008231,547,417.8214133126395,428.8214362008231,657,475.3214133126395,448.8214362008231,769,477.8214133126395,448.8214362008231,880,477.8214133126395,448.8214362008231,992,477.8214133126395,448.8214362008231,1102,477.8214133126395,448.8214362008231,1214,477.8214133126395,448.8214362008231,1325,477.8214133126395,448.8214362008231,1436,477.8214133126395,448.8214362008231,1548,479.0714133126395,448.8214362008231,1660,480.3214133126395,446.3214362008231,1769,480.3214133126395,445.0714362008231,1880,449.0714133126395,461.3214362008231,1992,444.0714133126395,463.8214362008231,2103,504.0714133126395,478.8214362008231,2214,514.0714133126395,482.5714362008231,2325,510.3214133126395,480.0714362008231,2436,459.0714133126395,477.5714362008231,2547,394.0714133126395,480.0714362008231,2657,367.8214133126395,481.3214362008231,2767,365.3214133126395,482.5714362008231,2878,365.3214133126395,482.5714362008231,2990,365.3214133126395,482.5714362008231,3100,365.3214133126395,482.5714362008231,3210,365.3214133126395,482.5714362008231,3323,365.3214133126395,482.5714362008231,3433,365.3214133126395,482.5714362008231,3544,365.3214133126395,482.5714362008231,3656,365.3214133126395,482.5714362008231,3766,365.3214133126395,482.5714362008231,3876,365.3214133126395,482.5714362008231,3989,365.3214133126395,482.5714362008231,4100,365.3214133126395,482.5714362008231,4211,365.3214133126395,482.5714362008231,4322,365.3214133126395,482.5714362008231,4434,365.3214133126395,482.5714362008231,4546,365.3214133126395,482.5714362008231,4657,365.3214133126395,482.5714362008231,4769,365.3214133126395,482.5714362008231,4880,365.3214133126395,482.5714362008231,4991]","[2761,2761,1000,0,1761,""smooth"",""right"",""right"",""good_move"",12028,9267,2706.7,8770,551.3,""smooth"",""down"",""down"",""good_move"",15317,3289,2587,12028,702,""smooth"",""right"",""right"",""good_move"",18362,3044,2621.1,15318,422.9,""smooth"",""down"",""down"",""good_move""]","",""
"8594","","<div style=""width:500px;"">
  <p>What determined the result of this run?</p>
  </div>","60","html-slider-response","10","222143","0.0-5.0-1.0","137","1","2025-07-22 08:11:21","1f75c3e559b7213887762d5229550c2b","92.40.201.96","Mozilla/5.0 (Windows NT 10.0; Win64; x64; rv:140.0) Gecko/20100101 Firefox/140.0","","Firefox","140.0","Windows","10.0","https://app.prolific.com/","en-GB,en;q=0.5","676e882e8a97b91ee272efe4","686e379bc37a29ffa5cdc956","687f477955aefd18f901c9f6","1","1","676e882e8a97b91ee272efe4","1","1","2025-07-22T08:15:11.161Z","","","","","","","","","","","AttribQ","","50","","","","","","","","","","","","","","","","","","","","","","","","","","","","",""
"5531","","<div style=""width:500px;"">
  <p>How much control did you have over the ball?</p>
  </div>","100","html-slider-response","11","227677","0.0-5.0-2.0","137","1","2025-07-22 08:11:21","1f75c3e559b7213887762d5229550c2b","92.40.201.96","Mozilla/5.0 (Windows NT 10.0; Win64; x64; rv:140.0) Gecko/20100101 Firefox/140.0","","Firefox","140.0","Windows","10.0","https://app.prolific.com/","en-GB,en;q=0.5","676e882e8a97b91ee272efe4","686e379bc37a29ffa5cdc956","687f477955aefd18f901c9f6","1","1","676e882e8a97b91ee272efe4","1","1","2025-07-22T08:15:16.695Z","","","","","","","","","","","ControlQ","","50","","","","","","","","","","","","","","","","","","","","","","","","","","","","",""
"5680","","<div style=""width:500px;"">
  <p>How would you describe your current emotional state?</p>
  </div>","51","html-slider-response","12","233359","0.0-5.0-3.0","137","1","2025-07-22 08:11:21","1f75c3e559b7213887762d5229550c2b","92.40.201.96","Mozilla/5.0 (Windows NT 10.0; Win64; x64; rv:140.0) Gecko/20100101 Firefox/140.0","","Firefox","140.0","Windows","10.0","https://app.prolific.com/","en-GB,en;q=0.5","676e882e8a97b91ee272efe4","686e379bc37a29ffa5cdc956","687f477955aefd18f901c9f6","1","1","676e882e8a97b91ee272efe4","1","1","2025-07-22T08:15:22.377Z","","","","","","","","","","","StressQ","","50","","","","","","","","","","","","","","","","","","","","","","","","","","","","",""
"4911","","<div style=""width:500px;"">
  <p>What best describes how you currently feel?</p>
  </div>","49","html-slider-response","13","238272","0.0-5.0-4.0","137","1","2025-07-22 08:11:21","1f75c3e559b7213887762d5229550c2b","92.40.201.96","Mozilla/5.0 (Windows NT 10.0; Win64; x64; rv:140.0) Gecko/20100101 Firefox/140.0","","Firefox","140.0","Windows","10.0","https://app.prolific.com/","en-GB,en;q=0.5","676e882e8a97b91ee272efe4","686e379bc37a29ffa5cdc956","687f477955aefd18f901c9f6","1","1","676e882e8a97b91ee272efe4","1","1","2025-07-22T08:15:27.290Z","","","","","","","","","","","MotivationQ","","50","","","","","","","","","","","","","","","","","","","","","","","","","","","","",""
"","","","","ctl-task-cpt","14","274133","0.0-5.0-0.1","137","1","2025-07-22 08:11:21","1f75c3e559b7213887762d5229550c2b","92.40.201.96","Mozilla/5.0 (Windows NT 10.0; Win64; x64; rv:140.0) Gecko/20100101 Firefox/140.0","","Firefox","140.0","Windows","10.0","https://app.prolific.com/","en-GB,en;q=0.5","676e882e8a97b91ee272efe4","686e379bc37a29ffa5cdc956","687f477955aefd18f901c9f6","1","1","676e882e8a97b91ee272efe4","1","1","2025-07-22T08:16:03.151Z","","","","","","","","","","","","","","win-only","3","g1:SW,g2:NE","0.9","2","0","245793","2124","7127","32844","1","4","8","6","2","8","8","9","1","0.06818181818181818","5003","3000","1745","[""up"",""right""]","{""num_key_presses"":6,""num_perfect"":5,""num_errors"":0,""num_randdir"":1,""num_randdir_good_moves"":1,""num_whilered"":0,""num_whileblue"":0,""num_blue"":2,""num_good_moves"":6}","[419.0714133126395,420.0714362008231,0,419.0714133126395,420.0714362008231,113,419.0714133126395,420.0714362008231,224,419.0714133126395,420.0714362008231,335,419.0714133126395,420.0714362008231,447,419.0714133126395,420.0714362008231,558,419.0714133126395,420.0714362008231,669,419.0714133126395,420.0714362008231,780,419.0714133126395,420.0714362008231,893,419.0714133126395,420.0714362008231,1005,419.0714133126395,420.0714362008231,1116,419.0714133126395,420.0714362008231,1229,419.0714133126395,420.0714362008231,1340,419.0714133126395,420.0714362008231,1451,419.0714133126395,420.0714362008231,1563,419.0714133126395,420.0714362008231,1676,419.0714133126395,420.0714362008231,1788,419.0714133126395,420.0714362008231,1899,419.0714133126395,420.0714362008231,2012,419.0714133126395,420.0714362008231,2122,419.0714133126395,420.0714362008231,2234,419.0714133126395,420.0714362008231,2344,419.0714133126395,420.0714362008231,2455,419.0714133126395,420.0714362008231,2564,419.0714133126395,420.0714362008231,2664,419.0714133126395,420.0714362008231,2776,419.0714133126395,420.0714362008231,2888,419.0714133126395,420.0714362008231,2999,419.0714133126395,420.0714362008231,3111,419.0714133126395,420.0714362008231,3222,419.0714133126395,420.0714362008231,3334,419.0714133126395,420.0714362008231,3445,419.0714133126395,420.0714362008231,3556,419.0714133126395,420.0714362008231,3668,419.0714133126395,420.0714362008231,3779,419.0714133126395,420.0714362008231,3891,419.0714133126395,420.0714362008231,4003,419.0714133126395,420.0714362008231,4114,419.0714133126395,420.0714362008231,4225,419.0714133126395,420.0714362008231,4336,419.0714133126395,420.0714362008231,4447,419.0714133126395,420.0714362008231,4556,419.0714133126395,420.0714362008231,4669,419.0714133126395,420.0714362008231,4779,419.0714133126395,420.0714362008231,4893]","[5666,5666,3124.2,2024,517.8,""smooth"",""right"",""right"",""good_move"",11580,5914,1967.8,9016,596.2,""oops"",""right"",""up"",""good_move"",15124,3544,2150.3,11580,1393.7,""smooth"",""right"",""right"",""good_move"",18569,3445,2355.3,15124,1089.7,""smooth"",""right"",""right"",""good_move"",21593,3024,2551.3,18569,472.7,""smooth"",""up"",""up"",""good_move"",25443,3849,3285.5,21594,563.5,""smooth"",""up"",""up"",""good_move""]","",""
"6802","","<div style=""width:500px;"">
  <p>What determined the result of this run?</p>
  </div>","54","html-slider-response","15","280937","0.0-5.0-1.1","137","1","2025-07-22 08:11:21","1f75c3e559b7213887762d5229550c2b","92.40.201.96","Mozilla/5.0 (Windows NT 10.0; Win64; x64; rv:140.0) Gecko/20100101 Firefox/140.0","","Firefox","140.0","Windows","10.0","https://app.prolific.com/","en-GB,en;q=0.5","676e882e8a97b91ee272efe4","686e379bc37a29ffa5cdc956","687f477955aefd18f901c9f6","1","1","676e882e8a97b91ee272efe4","1","1","2025-07-22T08:16:09.955Z","","","","","","","","","","","AttribQ","","50","","","","","","","","","","","","","","","","","","","","","","","","","","","","",""
"2572","","<div style=""width:500px;"">
  <p>How much control did you have over the ball?</p>
  </div>","43","html-slider-response","16","283511","0.0-5.0-2.1","137","1","2025-07-22 08:11:21","1f75c3e559b7213887762d5229550c2b","92.40.201.96","Mozilla/5.0 (Windows NT 10.0; Win64; x64; rv:140.0) Gecko/20100101 Firefox/140.0","","Firefox","140.0","Windows","10.0","https://app.prolific.com/","en-GB,en;q=0.5","676e882e8a97b91ee272efe4","686e379bc37a29ffa5cdc956","687f477955aefd18f901c9f6","1","1","676e882e8a97b91ee272efe4","1","1","2025-07-22T08:16:12.529Z","","","","","","","","","","","ControlQ","","50","","","","","","","","","","","","","","","","","","","","","","","","","","","","",""
"4973","","<div style=""width:500px;"">
  <p>How would you describe your current emotional state?</p>
  </div>","50","html-slider-response","17","288486","0.0-5.0-3.1","137","1","2025-07-22 08:11:21","1f75c3e559b7213887762d5229550c2b","92.40.201.96","Mozilla/5.0 (Windows NT 10.0; Win64; x64; rv:140.0) Gecko/20100101 Firefox/140.0","","Firefox","140.0","Windows","10.0","https://app.prolific.com/","en-GB,en;q=0.5","676e882e8a97b91ee272efe4","686e379bc37a29ffa5cdc956","687f477955aefd18f901c9f6","1","1","676e882e8a97b91ee272efe4","1","1","2025-07-22T08:16:17.504Z","","","","","","","","","","","StressQ","","50","","","","","","","","","","","","","","","","","","","","","","","","","","","","",""
"5432","","<div style=""width:500px;"">
  <p>What best describes how you currently feel?</p>
  </div>","47","html-slider-response","18","293920","0.0-5.0-4.1","137","1","2025-07-22 08:11:21","1f75c3e559b7213887762d5229550c2b","92.40.201.96","Mozilla/5.0 (Windows NT 10.0; Win64; x64; rv:140.0) Gecko/20100101 Firefox/140.0","","Firefox","140.0","Windows","10.0","https://app.prolific.com/","en-GB,en;q=0.5","676e882e8a97b91ee272efe4","686e379bc37a29ffa5cdc956","687f477955aefd18f901c9f6","1","1","676e882e8a97b91ee272efe4","1","1","2025-07-22T08:16:22.938Z","","","","","","","","","","","MotivationQ","","50","","","","","","","","","","","","","","","","","","","","","","","","","","","","",""
"","","","","ctl-task-cpt","19","342794","0.0-5.0-0.2","137","1","2025-07-22 08:11:21","1f75c3e559b7213887762d5229550c2b","92.40.201.96","Mozilla/5.0 (Windows NT 10.0; Win64; x64; rv:140.0) Gecko/20100101 Firefox/140.0","","Firefox","140.0","Windows","10.0","https://app.prolific.com/","en-GB,en;q=0.5","676e882e8a97b91ee272efe4","686e379bc37a29ffa5cdc956","687f477955aefd18f901c9f6","1","1","676e882e8a97b91ee272efe4","1","1","2025-07-22T08:17:11.812Z","","","","","","","","","","","","","","win-only","0","g1:NW,g2:SE","0.8","3","0","301440","22578","27580","45858","1","4","4","6","2","4","3","12","9","0.09090909090909091","5002","3000","2015","[""down"",""right""]","{""num_key_presses"":6,""num_perfect"":5,""num_errors"":1,""num_randdir"":0,""num_randdir_good_moves"":0,""num_whilered"":0,""num_whileblue"":1,""num_blue"":1,""num_good_moves"":6}","[414.0714133126395,420.0714362008231,0,414.0714133126395,420.0714362008231,105,414.0714133126395,420.0714362008231,215,414.0714133126395,420.0714362008231,327,414.0714133126395,420.0714362008231,437,414.0714133126395,420.0714362008231,549,414.0714133126395,420.0714362008231,660,414.0714133126395,420.0714362008231,770,414.0714133126395,420.0714362008231,881,414.0714133126395,420.0714362008231,991,414.0714133126395,420.0714362008231,1103,414.0714133126395,420.0714362008231,1214,414.0714133126395,420.0714362008231,1325,414.0714133126395,420.0714362008231,1436,414.0714133126395,420.0714362008231,1548,414.0714133126395,420.0714362008231,1659,414.0714133126395,420.0714362008231,1770,414.0714133126395,420.0714362008231,1882,414.0714133126395,420.0714362008231,1992,414.0714133126395,420.0714362008231,2103,414.0714133126395,420.0714362008231,2214,414.0714133126395,420.0714362008231,2326,414.0714133126395,420.0714362008231,2437,414.0714133126395,420.0714362008231,2548,414.0714133126395,420.0714362008231,2659,414.0714133126395,420.0714362008231,2770,414.0714133126395,420.0714362008231,2882,414.0714133126395,420.0714362008231,2993,414.0714133126395,420.0714362008231,3103,414.0714133126395,420.0714362008231,3214,414.0714133126395,420.0714362008231,3326,414.0714133126395,420.0714362008231,3437,414.0714133126395,420.0714362008231,3549,414.0714133126395,420.0714362008231,3660,414.0714133126395,420.0714362008231,3772,414.0714133126395,420.0714362008231,3883,414.0714133126395,420.0714362008231,3998,414.0714133126395,420.0714362008231,4109,414.0714133126395,420.0714362008231,4220,414.0714133126395,420.0714362008231,4332,414.0714133126395,420.0714362008231,4442,414.0714133126395,420.0714362008231,4554,414.0714133126395,420.0714362008231,4665,414.0714133126395,420.0714362008231,4775,414.0714133126395,420.0714362008231,4887]","[2488,2488,1000,0,1488,""smooth"",""right"",""right"",""good_move"",5372,2884,2427,2488,457,""smooth"",""down"",""down"",""good_move"",8606,3234,2824.4,5372,409.6,""smooth"",""down"",""down"",""good_move"",11879,3273,2847.7,8606,425.3,""smooth"",""right"",""right"",""good_move"",14869,2989,2641,11880,348,""while_blue"",""down"",""right"",""good_move"",17989,3119,2681.3,14870,437.7,""smooth"",""down"",""down"",""good_move""]","",""
"4002","","<div style=""width:500px;"">
  <p>What determined the result of this run?</p>
  </div>","52","html-slider-response","20","346797","0.0-5.0-1.2","137","1","2025-07-22 08:11:21","1f75c3e559b7213887762d5229550c2b","92.40.201.96","Mozilla/5.0 (Windows NT 10.0; Win64; x64; rv:140.0) Gecko/20100101 Firefox/140.0","","Firefox","140.0","Windows","10.0","https://app.prolific.com/","en-GB,en;q=0.5","676e882e8a97b91ee272efe4","686e379bc37a29ffa5cdc956","687f477955aefd18f901c9f6","1","1","676e882e8a97b91ee272efe4","1","1","2025-07-22T08:17:15.815Z","","","","","","","","","","","AttribQ","","50","","","","","","","","","","","","","","","","","","","","","","","","","","","","",""
"5680","","<div style=""width:500px;"">
  <p>How much control did you have over the ball?</p>
  </div>","53","html-slider-response","21","352479","0.0-5.0-2.2","137","1","2025-07-22 08:11:21","1f75c3e559b7213887762d5229550c2b","92.40.201.96","Mozilla/5.0 (Windows NT 10.0; Win64; x64; rv:140.0) Gecko/20100101 Firefox/140.0","","Firefox","140.0","Windows","10.0","https://app.prolific.com/","en-GB,en;q=0.5","676e882e8a97b91ee272efe4","686e379bc37a29ffa5cdc956","687f477955aefd18f901c9f6","1","1","676e882e8a97b91ee272efe4","1","1","2025-07-22T08:17:21.497Z","","","","","","","","","","","ControlQ","","50","","","","","","","","","","","","","","","","","","","","","","","","","","","","",""
"5150","","<div style=""width:500px;"">
  <p>How would you describe your current emotional state?</p>
  </div>","53","html-slider-response","22","357631","0.0-5.0-3.2","137","1","2025-07-22 08:11:21","1f75c3e559b7213887762d5229550c2b","92.40.201.96","Mozilla/5.0 (Windows NT 10.0; Win64; x64; rv:140.0) Gecko/20100101 Firefox/140.0","","Firefox","140.0","Windows","10.0","https://app.prolific.com/","en-GB,en;q=0.5","676e882e8a97b91ee272efe4","686e379bc37a29ffa5cdc956","687f477955aefd18f901c9f6","1","1","676e882e8a97b91ee272efe4","1","1","2025-07-22T08:17:26.649Z","","","","","","","","","","","StressQ","","50","","","","","","","","","","","","","","","","","","","","","","","","","","","","",""
"77567","","<div style=""width:500px;"">
  <p>What best describes how you currently feel?</p>
  </div>","37","html-slider-response","23","435201","0.0-5.0-4.2","137","1","2025-07-22 08:11:21","1f75c3e559b7213887762d5229550c2b","92.40.201.96","Mozilla/5.0 (Windows NT 10.0; Win64; x64; rv:140.0) Gecko/20100101 Firefox/140.0","","Firefox","140.0","Windows","10.0","https://app.prolific.com/","en-GB,en;q=0.5","676e882e8a97b91ee272efe4","686e379bc37a29ffa5cdc956","687f477955aefd18f901c9f6","1","1","676e882e8a97b91ee272efe4","1","1","2025-07-22T08:18:44.219Z","","","","","","","","","","","MotivationQ","","50","","","","","","","","","","","","","","","","","","","","","","","","","","","","",""
"","","","","ctl-task-cpt","24","472361","0.0-5.0-0.3","137","1","2025-07-22 08:11:21","1f75c3e559b7213887762d5229550c2b","92.40.201.96","Mozilla/5.0 (Windows NT 10.0; Win64; x64; rv:140.0) Gecko/20100101 Firefox/140.0","","Firefox","140.0","Windows","10.0","https://app.prolific.com/","en-GB,en;q=0.5","676e882e8a97b91ee272efe4","686e379bc37a29ffa5cdc956","687f477955aefd18f901c9f6","1","1","676e882e8a97b91ee272efe4","1","1","2025-07-22T08:19:21.379Z","","","","","","","","","","","","","","win-only","1","g1:NE,g2:SW","0.7","4","0","442721","1294","6305","34143","1","4","8","6","2","8","7","19","12","0.14393939393939395","5011","3000","1865","[""down"",""left""]","{""num_key_presses"":7,""num_perfect"":4,""num_errors"":1,""num_randdir"":2,""num_randdir_good_moves"":2,""num_whilered"":0,""num_whileblue"":0,""num_blue"":3,""num_good_moves"":6}","[419.0714133126395,417.5714362008231,0,419.0714133126395,417.5714362008231,109,419.0714133126395,417.5714362008231,220,419.0714133126395,417.5714362008231,331,419.0714133126395,417.5714362008231,443,419.0714133126395,417.5714362008231,553,419.0714133126395,417.5714362008231,665,419.0714133126395,417.5714362008231,776,419.0714133126395,417.5714362008231,888,419.0714133126395,417.5714362008231,1000,419.0714133126395,417.5714362008231,1112,419.0714133126395,417.5714362008231,1224,419.0714133126395,417.5714362008231,1335,419.0714133126395,417.5714362008231,1448,419.0714133126395,417.5714362008231,1559,419.0714133126395,417.5714362008231,1670,419.0714133126395,420.0714362008231,1783,420.3214133126395,423.8214362008231,1894,421.5714133126395,423.8214362008231,2004,421.5714133126395,425.0714362008231,2117,421.5714133126395,425.0714362008231,2226,421.5714133126395,425.0714362008231,2337,421.5714133126395,425.0714362008231,2448,421.5714133126395,425.0714362008231,2560,421.5714133126395,425.0714362008231,2669,421.5714133126395,425.0714362008231,2780,421.5714133126395,425.0714362008231,2893,421.5714133126395,425.0714362008231,3003,421.5714133126395,425.0714362008231,3116,421.5714133126395,425.0714362008231,3226,421.5714133126395,425.0714362008231,3338,421.5714133126395,425.0714362008231,3450,421.5714133126395,425.0714362008231,3560,421.5714133126395,425.0714362008231,3673,421.5714133126395,425.0714362008231,3784,421.5714133126395,425.0714362008231,3895,421.5714133126395,425.0714362008231,4007,421.5714133126395,425.0714362008231,4118,421.5714133126395,425.0714362008231,4229,421.5714133126395,425.0714362008231,4339,421.5714133126395,425.0714362008231,4451,421.5714133126395,425.0714362008231,4563,421.5714133126395,425.0714362008231,4675,421.5714133126395,425.0714362008231,4787,421.5714133126395,425.0714362008231,4898]","[7622,7622,2098.2,5051,472.8,""oops"",""left"",""left"",""good_move"",10911,3289,1693.1,7622,1595.9,""oops"",""left"",""down"",""good_move"",17195,6284,2593.9,14082,519.1,""smooth"",""left"",""left"",""good_move"",20524,3329,2376.1,17195,952.9,""smooth"",""down"",""down"",""good_move"",24063,3539,3088.7,20524,450.3,""smooth"",""down"",""down"",""good_move"",27548,3485,2474.4,24063,1010.6,""smooth"",""left"",""left"",""good_move"",27709,161,3021.2,27548,-2860.2,""error"",""-"",""-"",""no_move""]","",""
"8147","","<div style=""width:500px;"">
  <p>What determined the result of this run?</p>
  </div>","55","html-slider-response","25","480510","0.0-5.0-1.3","137","1","2025-07-22 08:11:21","1f75c3e559b7213887762d5229550c2b","92.40.201.96","Mozilla/5.0 (Windows NT 10.0; Win64; x64; rv:140.0) Gecko/20100101 Firefox/140.0","","Firefox","140.0","Windows","10.0","https://app.prolific.com/","en-GB,en;q=0.5","676e882e8a97b91ee272efe4","686e379bc37a29ffa5cdc956","687f477955aefd18f901c9f6","1","1","676e882e8a97b91ee272efe4","1","1","2025-07-22T08:19:29.528Z","","","","","","","","","","","AttribQ","","50","","","","","","","","","","","","","","","","","","","","","","","","","","","","",""
"6778","","<div style=""width:500px;"">
  <p>How much control did you have over the ball?</p>
  </div>","95","html-slider-response","26","487290","0.0-5.0-2.3","137","1","2025-07-22 08:11:21","1f75c3e559b7213887762d5229550c2b","92.40.201.96","Mozilla/5.0 (Windows NT 10.0; Win64; x64; rv:140.0) Gecko/20100101 Firefox/140.0","","Firefox","140.0","Windows","10.0","https://app.prolific.com/","en-GB,en;q=0.5","676e882e8a97b91ee272efe4","686e379bc37a29ffa5cdc956","687f477955aefd18f901c9f6","1","1","676e882e8a97b91ee272efe4","1","1","2025-07-22T08:19:36.308Z","","","","","","","","","","","ControlQ","","50","","","","","","","","","","","","","","","","","","","","","","","","","","","","",""
"4304","","<div style=""width:500px;"">
  <p>How would you describe your current emotional state?</p>
  </div>","57","html-slider-response","27","491596","0.0-5.0-3.3","137","1","2025-07-22 08:11:21","1f75c3e559b7213887762d5229550c2b","92.40.201.96","Mozilla/5.0 (Windows NT 10.0; Win64; x64; rv:140.0) Gecko/20100101 Firefox/140.0","","Firefox","140.0","Windows","10.0","https://app.prolific.com/","en-GB,en;q=0.5","676e882e8a97b91ee272efe4","686e379bc37a29ffa5cdc956","687f477955aefd18f901c9f6","1","1","676e882e8a97b91ee272efe4","1","1","2025-07-22T08:19:40.614Z","","","","","","","","","","","StressQ","","50","","","","","","","","","","","","","","","","","","","","","","","","","","","","",""
"2666","","<div style=""width:500px;"">
  <p>What best describes how you currently feel?</p>
  </div>","62","html-slider-response","28","494264","0.0-5.0-4.3","137","1","2025-07-22 08:11:21","1f75c3e559b7213887762d5229550c2b","92.40.201.96","Mozilla/5.0 (Windows NT 10.0; Win64; x64; rv:140.0) Gecko/20100101 Firefox/140.0","","Firefox","140.0","Windows","10.0","https://app.prolific.com/","en-GB,en;q=0.5","676e882e8a97b91ee272efe4","686e379bc37a29ffa5cdc956","687f477955aefd18f901c9f6","1","1","676e882e8a97b91ee272efe4","1","1","2025-07-22T08:19:43.282Z","","","","","","","","","","","MotivationQ","","50","","","","","","","","","","","","","","","","","","","","","","","","","","","","",""
"","","","","ctl-task-cpt","29","533635","0.0-5.0-0.4","137","1","2025-07-22 08:11:21","1f75c3e559b7213887762d5229550c2b","92.40.201.96","Mozilla/5.0 (Windows NT 10.0; Win64; x64; rv:140.0) Gecko/20100101 Firefox/140.0","","Firefox","140.0","Windows","10.0","https://app.prolific.com/","en-GB,en;q=0.5","676e882e8a97b91ee272efe4","686e379bc37a29ffa5cdc956","687f477955aefd18f901c9f6","1","1","676e882e8a97b91ee272efe4","1","1","2025-07-22T08:20:22.653Z","","","","","","","","","","","","","","win-only","2","g1:SE,g2:NW","0.6","5","0","501786","1452","6455","36362","1","4","4","6","1","1","1","20","19","0.15151515151515152","5003","3000","1770","[""down"",""right""]","{""num_key_presses"":8,""num_perfect"":5,""num_errors"":0,""num_randdir"":3,""num_randdir_good_moves"":1,""num_whilered"":0,""num_whileblue"":0,""num_blue"":2,""num_good_moves"":6}","[420.3214133126395,423.8214362008231,0,420.3214133126395,423.8214362008231,115,420.3214133126395,423.8214362008231,228,420.3214133126395,423.8214362008231,339,420.3214133126395,423.8214362008231,451,420.3214133126395,423.8214362008231,561,420.3214133126395,423.8214362008231,674,420.3214133126395,423.8214362008231,785,420.3214133126395,423.8214362008231,895,420.3214133126395,423.8214362008231,1008,420.3214133126395,423.8214362008231,1118,420.3214133126395,423.8214362008231,1231,420.3214133126395,423.8214362008231,1342,420.3214133126395,423.8214362008231,1453,420.3214133126395,423.8214362008231,1564,420.3214133126395,423.8214362008231,1677,420.3214133126395,423.8214362008231,1788,420.3214133126395,423.8214362008231,1900,420.3214133126395,423.8214362008231,2011,420.3214133126395,423.8214362008231,2122,420.3214133126395,423.8214362008231,2233,420.3214133126395,423.8214362008231,2343,420.3214133126395,423.8214362008231,2454,420.3214133126395,423.8214362008231,2565,420.3214133126395,423.8214362008231,2676,420.3214133126395,423.8214362008231,2789,420.3214133126395,423.8214362008231,2901,420.3214133126395,423.8214362008231,3014,420.3214133126395,423.8214362008231,3124,420.3214133126395,423.8214362008231,3235,420.3214133126395,423.8214362008231,3345,420.3214133126395,423.8214362008231,3456,420.3214133126395,423.8214362008231,3570,420.3214133126395,423.8214362008231,3682,420.3214133126395,423.8214362008231,3794,420.3214133126395,423.8214362008231,3906,420.3214133126395,423.8214362008231,4017,420.3214133126395,423.8214362008231,4127,420.3214133126395,423.8214362008231,4240,420.3214133126395,423.8214362008231,4350,420.3214133126395,423.8214362008231,4461,420.3214133126395,423.8214362008231,4572,420.3214133126395,423.8214362008231,4682,420.3214133126395,423.8214362008231,4794,420.3214133126395,423.8214362008231,4907]","[1576,1576,1000,0,576,""smooth"",""right"",""right"",""good_move"",3986,2410,1947.1,1576,462.9,""oops"",""right"",""left"",""bad_move"",12186,8200,3947.4,7697,541.6,""smooth"",""down"",""down"",""good_move"",19046,6860,3032.7,15421,592.3,""oops"",""down"",""left"",""bad_move"",22250,3203,2676.6,19047,526.4,""smooth"",""right"",""right"",""good_move"",24903,2653,2148.8,22250,504.2,""smooth"",""right"",""right"",""good_move"",27131,2228,1769.4,24903,458.6,""oops"",""right"",""right"",""good_move"",29630,2499,2097,27131,402,""smooth"",""down"",""down"",""good_move""]","",""
"4124","","<div style=""width:500px;"">
  <p>What determined the result of this run?</p>
  </div>","37","html-slider-response","30","537759","0.0-5.0-1.4","137","1","2025-07-22 08:11:21","1f75c3e559b7213887762d5229550c2b","92.40.201.96","Mozilla/5.0 (Windows NT 10.0; Win64; x64; rv:140.0) Gecko/20100101 Firefox/140.0","","Firefox","140.0","Windows","10.0","https://app.prolific.com/","en-GB,en;q=0.5","676e882e8a97b91ee272efe4","686e379bc37a29ffa5cdc956","687f477955aefd18f901c9f6","1","1","676e882e8a97b91ee272efe4","1","1","2025-07-22T08:20:26.777Z","","","","","","","","","","","AttribQ","","50","","","","","","","","","","","","","","","","","","","","","","","","","","","","",""
"6625","","<div style=""width:500px;"">
  <p>How much control did you have over the ball?</p>
  </div>","42","html-slider-response","31","544386","0.0-5.0-2.4","137","1","2025-07-22 08:11:21","1f75c3e559b7213887762d5229550c2b","92.40.201.96","Mozilla/5.0 (Windows NT 10.0; Win64; x64; rv:140.0) Gecko/20100101 Firefox/140.0","","Firefox","140.0","Windows","10.0","https://app.prolific.com/","en-GB,en;q=0.5","676e882e8a97b91ee272efe4","686e379bc37a29ffa5cdc956","687f477955aefd18f901c9f6","1","1","676e882e8a97b91ee272efe4","1","1","2025-07-22T08:20:33.404Z","","","","","","","","","","","ControlQ","","50","","","","","","","","","","","","","","","","","","","","","","","","","","","","",""
"10040","","<div style=""width:500px;"">
  <p>How would you describe your current emotional state?</p>
  </div>","54","html-slider-response","32","554429","0.0-5.0-3.4","137","1","2025-07-22 08:11:21","1f75c3e559b7213887762d5229550c2b","92.40.201.96","Mozilla/5.0 (Windows NT 10.0; Win64; x64; rv:140.0) Gecko/20100101 Firefox/140.0","","Firefox","140.0","Windows","10.0","https://app.prolific.com/","en-GB,en;q=0.5","676e882e8a97b91ee272efe4","686e379bc37a29ffa5cdc956","687f477955aefd18f901c9f6","1","1","676e882e8a97b91ee272efe4","1","1","2025-07-22T08:20:43.448Z","","","","","","","","","","","StressQ","","50","","","","","","","","","","","","","","","","","","","","","","","","","","","","",""
"14001","","<div style=""width:500px;"">
  <p>What best describes how you currently feel?</p>
  </div>","45","html-slider-response","33","568432","0.0-5.0-4.4","137","1","2025-07-22 08:11:21","1f75c3e559b7213887762d5229550c2b","92.40.201.96","Mozilla/5.0 (Windows NT 10.0; Win64; x64; rv:140.0) Gecko/20100101 Firefox/140.0","","Firefox","140.0","Windows","10.0","https://app.prolific.com/","en-GB,en;q=0.5","676e882e8a97b91ee272efe4","686e379bc37a29ffa5cdc956","687f477955aefd18f901c9f6","1","1","676e882e8a97b91ee272efe4","1","1","2025-07-22T08:20:57.450Z","","","","","","","","","","","MotivationQ","","50","","","","","","","","","","","","","","","","","","","","","","","","","","","","",""
"","","","","ctl-task-cpt","34","577959","0.0-5.0-0.5","137","1","2025-07-22 08:11:21","1f75c3e559b7213887762d5229550c2b","92.40.201.96","Mozilla/5.0 (Windows NT 10.0; Win64; x64; rv:140.0) Gecko/20100101 Firefox/140.0","","Firefox","140.0","Windows","10.0","https://app.prolific.com/","en-GB,en;q=0.5","676e882e8a97b91ee272efe4","686e379bc37a29ffa5cdc956","687f477955aefd18f901c9f6","1","1","676e882e8a97b91ee272efe4","1","1","2025-07-22T08:21:06.977Z","","","","","","","","","","","","","","win-only","3","g1:SW,g2:NE","0.5","6","0","575952","1508","-9999","6524","1","4","8","6","-9999","-4","-4","16","20","0.12121212121212122","-9999","3000","3000","[]","{""num_key_presses"":0,""num_perfect"":0,""num_errors"":0,""num_randdir"":0,""num_randdir_good_moves"":0,""num_whilered"":0,""num_whileblue"":0,""num_blue"":0,""num_good_moves"":0}","[405.3214133126395,416.3214362008231,0,405.3214133126395,416.3214362008231,110,405.3214133126395,416.3214362008231,222,405.3214133126395,416.3214362008231,333,405.3214133126395,416.3214362008231,445,405.3214133126395,416.3214362008231,556,405.3214133126395,416.3214362008231,667,405.3214133126395,416.3214362008231,778,405.3214133126395,416.3214362008231,890,405.3214133126395,416.3214362008231,1001,405.3214133126395,416.3214362008231,1113,405.3214133126395,416.3214362008231,1224,405.3214133126395,416.3214362008231,1336,405.3214133126395,416.3214362008231,1448,405.3214133126395,416.3214362008231,1560,405.3214133126395,416.3214362008231,1671,405.3214133126395,416.3214362008231,1784,405.3214133126395,416.3214362008231,1896,405.3214133126395,416.3214362008231,2009,405.3214133126395,416.3214362008231,2119,405.3214133126395,416.3214362008231,2230,405.3214133126395,416.3214362008231,2341,405.3214133126395,416.3214362008231,2452,405.3214133126395,416.3214362008231,2562,405.3214133126395,416.3214362008231,2674,405.3214133126395,416.3214362008231,2785,405.3214133126395,416.3214362008231,2898,405.3214133126395,416.3214362008231,3010,405.3214133126395,416.3214362008231,3122,405.3214133126395,416.3214362008231,3233,405.3214133126395,416.3214362008231,3345,405.3214133126395,416.3214362008231,3457,405.3214133126395,416.3214362008231,3569,405.3214133126395,416.3214362008231,3678,405.3214133126395,416.3214362008231,3791,405.3214133126395,416.3214362008231,3903,405.3214133126395,416.3214362008231,4016,405.3214133126395,416.3214362008231,4127,405.3214133126395,416.3214362008231,4238,405.3214133126395,416.3214362008231,4349,405.3214133126395,416.3214362008231,4460,405.3214133126395,416.3214362008231,4571,405.3214133126395,416.3214362008231,4682,405.3214133126395,416.3214362008231,4793,405.3214133126395,416.3214362008231,4905]","[]","",""
"2801","","<div style=""width:500px;"">
  <p>What determined the result of this run?</p>
  </div>","0","html-slider-response","35","580761","0.0-5.0-1.5","137","1","2025-07-22 08:11:21","1f75c3e559b7213887762d5229550c2b","92.40.201.96","Mozilla/5.0 (Windows NT 10.0; Win64; x64; rv:140.0) Gecko/20100101 Firefox/140.0","","Firefox","140.0","Windows","10.0","https://app.prolific.com/","en-GB,en;q=0.5","676e882e8a97b91ee272efe4","686e379bc37a29ffa5cdc956","687f477955aefd18f901c9f6","1","1","676e882e8a97b91ee272efe4","1","1","2025-07-22T08:21:09.779Z","","","","","","","","","","","AttribQ","","50","","","","","","","","","","","","","","","","","","","","","","","","","","","","",""
"3481","","<div style=""width:500px;"">
  <p>How much control did you have over the ball?</p>
  </div>","0","html-slider-response","36","584244","0.0-5.0-2.5","137","1","2025-07-22 08:11:21","1f75c3e559b7213887762d5229550c2b","92.40.201.96","Mozilla/5.0 (Windows NT 10.0; Win64; x64; rv:140.0) Gecko/20100101 Firefox/140.0","","Firefox","140.0","Windows","10.0","https://app.prolific.com/","en-GB,en;q=0.5","676e882e8a97b91ee272efe4","686e379bc37a29ffa5cdc956","687f477955aefd18f901c9f6","1","1","676e882e8a97b91ee272efe4","1","1","2025-07-22T08:21:13.262Z","","","","","","","","","","","ControlQ","","50","","","","","","","","","","","","","","","","","","","","","","","","","","","","",""
"2735","","<div style=""width:500px;"">
  <p>How would you describe your current emotional state?</p>
  </div>","75","html-slider-response","37","586982","0.0-5.0-3.5","137","1","2025-07-22 08:11:21","1f75c3e559b7213887762d5229550c2b","92.40.201.96","Mozilla/5.0 (Windows NT 10.0; Win64; x64; rv:140.0) Gecko/20100101 Firefox/140.0","","Firefox","140.0","Windows","10.0","https://app.prolific.com/","en-GB,en;q=0.5","676e882e8a97b91ee272efe4","686e379bc37a29ffa5cdc956","687f477955aefd18f901c9f6","1","1","676e882e8a97b91ee272efe4","1","1","2025-07-22T08:21:16.000Z","","","","","","","","","","","StressQ","","50","","","","","","","","","","","","","","","","","","","","","","","","","","","","",""
"3740","","<div style=""width:500px;"">
  <p>What best describes how you currently feel?</p>
  </div>","24","html-slider-response","38","590725","0.0-5.0-4.5","137","1","2025-07-22 08:11:21","1f75c3e559b7213887762d5229550c2b","92.40.201.96","Mozilla/5.0 (Windows NT 10.0; Win64; x64; rv:140.0) Gecko/20100101 Firefox/140.0","","Firefox","140.0","Windows","10.0","https://app.prolific.com/","en-GB,en;q=0.5","676e882e8a97b91ee272efe4","686e379bc37a29ffa5cdc956","687f477955aefd18f901c9f6","1","1","676e882e8a97b91ee272efe4","1","1","2025-07-22T08:21:19.743Z","","","","","","","","","","","MotivationQ","","50","","","","","","","","","","","","","","","","","","","","","","","","","","","","",""
"","","","","ctl-task-cpt","39","600162","0.0-5.0-0.6","137","1","2025-07-22 08:11:21","1f75c3e559b7213887762d5229550c2b","92.40.201.96","Mozilla/5.0 (Windows NT 10.0; Win64; x64; rv:140.0) Gecko/20100101 Firefox/140.0","","Firefox","140.0","Windows","10.0","https://app.prolific.com/","en-GB,en;q=0.5","676e882e8a97b91ee272efe4","686e379bc37a29ffa5cdc956","687f477955aefd18f901c9f6","1","1","676e882e8a97b91ee272efe4","1","1","2025-07-22T08:21:29.180Z","","","","","","","","","","","","","","win-only","3","g1:SW,g2:NE","0.4","7","0","598246","1412","-9999","6428","1","4","4","6","-9999","-4","-4","12","16","0.09090909090909091","-9999","3000","3000","[]","{""num_key_presses"":0,""num_perfect"":0,""num_errors"":0,""num_randdir"":0,""num_randdir_good_moves"":0,""num_whilered"":0,""num_whileblue"":0,""num_blue"":0,""num_good_moves"":0}","[422.8214133126395,417.5714362008231,0,422.8214133126395,417.5714362008231,107,422.8214133126395,417.5714362008231,220,422.8214133126395,417.5714362008231,330,422.8214133126395,417.5714362008231,442,422.8214133126395,417.5714362008231,552,422.8214133126395,417.5714362008231,663,422.8214133126395,417.5714362008231,775,422.8214133126395,417.5714362008231,886,422.8214133126395,417.5714362008231,998,422.8214133126395,417.5714362008231,1110,422.8214133126395,417.5714362008231,1221,422.8214133126395,417.5714362008231,1332,422.8214133126395,417.5714362008231,1444,422.8214133126395,417.5714362008231,1555,422.8214133126395,417.5714362008231,1667,422.8214133126395,417.5714362008231,1779,422.8214133126395,417.5714362008231,1891,422.8214133126395,417.5714362008231,2001,422.8214133126395,417.5714362008231,2113,422.8214133126395,417.5714362008231,2224,422.8214133126395,417.5714362008231,2336,422.8214133126395,417.5714362008231,2447,422.8214133126395,417.5714362008231,2558,422.8214133126395,417.5714362008231,2670,422.8214133126395,417.5714362008231,2782,422.8214133126395,417.5714362008231,2894,422.8214133126395,417.5714362008231,3006,422.8214133126395,417.5714362008231,3118,422.8214133126395,417.5714362008231,3228,422.8214133126395,417.5714362008231,3339,422.8214133126395,417.5714362008231,3450,422.8214133126395,417.5714362008231,3561,422.8214133126395,417.5714362008231,3673,422.8214133126395,417.5714362008231,3783,422.8214133126395,417.5714362008231,3897,422.8214133126395,417.5714362008231,4009,422.8214133126395,417.5714362008231,4121,422.8214133126395,417.5714362008231,4233,422.8214133126395,417.5714362008231,4344,422.8214133126395,417.5714362008231,4454,422.8214133126395,417.5714362008231,4566,422.8214133126395,417.5714362008231,4681,422.8214133126395,417.5714362008231,4791,422.8214133126395,417.5714362008231,4902]","[]","",""
"3201","","<div style=""width:500px;"">
  <p>What determined the result of this run?</p>
  </div>","0","html-slider-response","40","603365","0.0-5.0-1.6","137","1","2025-07-22 08:11:21","1f75c3e559b7213887762d5229550c2b","92.40.201.96","Mozilla/5.0 (Windows NT 10.0; Win64; x64; rv:140.0) Gecko/20100101 Firefox/140.0","","Firefox","140.0","Windows","10.0","https://app.prolific.com/","en-GB,en;q=0.5","676e882e8a97b91ee272efe4","686e379bc37a29ffa5cdc956","687f477955aefd18f901c9f6","1","1","676e882e8a97b91ee272efe4","1","1","2025-07-22T08:21:32.383Z","","","","","","","","","","","AttribQ","","50","","","","","","","","","","","","","","","","","","","","","","","","","","","","",""
"3229","","<div style=""width:500px;"">
  <p>How much control did you have over the ball?</p>
  </div>","0","html-slider-response","41","606596","0.0-5.0-2.6","137","1","2025-07-22 08:11:21","1f75c3e559b7213887762d5229550c2b","92.40.201.96","Mozilla/5.0 (Windows NT 10.0; Win64; x64; rv:140.0) Gecko/20100101 Firefox/140.0","","Firefox","140.0","Windows","10.0","https://app.prolific.com/","en-GB,en;q=0.5","676e882e8a97b91ee272efe4","686e379bc37a29ffa5cdc956","687f477955aefd18f901c9f6","1","1","676e882e8a97b91ee272efe4","1","1","2025-07-22T08:21:35.614Z","","","","","","","","","","","ControlQ","","50","","","","","","","","","","","","","","","","","","","","","","","","","","","","",""
"3068","","<div style=""width:500px;"">
  <p>How would you describe your current emotional state?</p>
  </div>","93","html-slider-response","42","609666","0.0-5.0-3.6","137","1","2025-07-22 08:11:21","1f75c3e559b7213887762d5229550c2b","92.40.201.96","Mozilla/5.0 (Windows NT 10.0; Win64; x64; rv:140.0) Gecko/20100101 Firefox/140.0","","Firefox","140.0","Windows","10.0","https://app.prolific.com/","en-GB,en;q=0.5","676e882e8a97b91ee272efe4","686e379bc37a29ffa5cdc956","687f477955aefd18f901c9f6","1","1","676e882e8a97b91ee272efe4","1","1","2025-07-22T08:21:38.684Z","","","","","","","","","","","StressQ","","50","","","","","","","","","","","","","","","","","","","","","","","","","","","","",""
"2926","","<div style=""width:500px;"">
  <p>What best describes how you currently feel?</p>
  </div>","4","html-slider-response","43","612594","0.0-5.0-4.6","137","1","2025-07-22 08:11:21","1f75c3e559b7213887762d5229550c2b","92.40.201.96","Mozilla/5.0 (Windows NT 10.0; Win64; x64; rv:140.0) Gecko/20100101 Firefox/140.0","","Firefox","140.0","Windows","10.0","https://app.prolific.com/","en-GB,en;q=0.5","676e882e8a97b91ee272efe4","686e379bc37a29ffa5cdc956","687f477955aefd18f901c9f6","1","1","676e882e8a97b91ee272efe4","1","1","2025-07-22T08:21:41.612Z","","","","","","","","","","","MotivationQ","","50","","","","","","","","","","","","","","","","","","","","","","","","","","","","",""
"","","","","ctl-task-cpt","44","679230","0.0-5.0-0.7","137","1","2025-07-22 08:11:21","1f75c3e559b7213887762d5229550c2b","92.40.201.96","Mozilla/5.0 (Windows NT 10.0; Win64; x64; rv:140.0) Gecko/20100101 Firefox/140.0","","Firefox","140.0","Windows","10.0","https://app.prolific.com/","en-GB,en;q=0.5","676e882e8a97b91ee272efe4","686e379bc37a29ffa5cdc956","687f477955aefd18f901c9f6","1","1","676e882e8a97b91ee272efe4","1","1","2025-07-22T08:22:48.248Z","","","","","","","","","","","","","","win-only","3","g1:SW,g2:NE","0.3","8","0","620113","1624","6639","63626","1","4","8","6","1","-1","-1","11","12","0.08333333333333333","5015","3000","-945","[""down"",""left""]","{""num_key_presses"":14,""num_perfect"":4,""num_errors"":0,""num_randdir"":10,""num_randdir_good_moves"":4,""num_whilered"":0,""num_whileblue"":0,""num_blue"":3,""num_good_moves"":8}","[419.0714133126395,418.8214362008231,0,419.0714133126395,418.8214362008231,110,419.0714133126395,418.8214362008231,223,419.0714133126395,418.8214362008231,333,419.0714133126395,418.8214362008231,444,419.0714133126395,418.8214362008231,555,419.0714133126395,418.8214362008231,665,419.0714133126395,418.8214362008231,777,419.0714133126395,418.8214362008231,889,419.0714133126395,418.8214362008231,1000,419.0714133126395,418.8214362008231,1111,419.0714133126395,418.8214362008231,1223,419.0714133126395,418.8214362008231,1335,419.0714133126395,418.8214362008231,1446,419.0714133126395,418.8214362008231,1558,419.0714133126395,418.8214362008231,1670,419.0714133126395,418.8214362008231,1782,419.0714133126395,418.8214362008231,1894,419.0714133126395,418.8214362008231,2006,419.0714133126395,418.8214362008231,2118,419.0714133126395,418.8214362008231,2229,419.0714133126395,418.8214362008231,2339,419.0714133126395,418.8214362008231,2450,419.0714133126395,418.8214362008231,2561,419.0714133126395,418.8214362008231,2673,419.0714133126395,418.8214362008231,2784,419.0714133126395,418.8214362008231,2897,419.0714133126395,418.8214362008231,3009,419.0714133126395,418.8214362008231,3122,419.0714133126395,418.8214362008231,3232,419.0714133126395,418.8214362008231,3343,419.0714133126395,418.8214362008231,3454,419.0714133126395,418.8214362008231,3566,419.0714133126395,418.8214362008231,3679,419.0714133126395,418.8214362008231,3790,419.0714133126395,418.8214362008231,3902,419.0714133126395,418.8214362008231,4013,419.0714133126395,418.8214362008231,4125,419.0714133126395,418.8214362008231,4236,419.0714133126395,418.8214362008231,4346,419.0714133126395,418.8214362008231,4458,419.0714133126395,418.8214362008231,4568,419.0714133126395,418.8214362008231,4680,419.0714133126395,418.8214362008231,4791,419.0714133126395,418.8214362008231,4903]","[3721,3721,1000,0,2721,""oops"",""left"",""up"",""bad_move"",7452,3731,2612.1,3721,1118.9,""oops"",""left"",""up"",""bad_move"",14742,7290,3153.1,11171,417.9,""smooth"",""down"",""down"",""good_move"",21119,6377,2219.5,18460,439.5,""smooth"",""down"",""down"",""good_move"",24104,2985,2521.6,21119,463.4,""oops"",""down"",""left"",""good_move"",27263,3160,2782.5,24104,377.5,""oops"",""down"",""up"",""bad_move"",30599,3335,2759.6,27264,575.4,""smooth"",""down"",""down"",""good_move"",33221,2622,2209.2,30599,412.8,""oops"",""down"",""down"",""good_move"",36085,2864,2366.1,33221,497.9,""oops"",""left"",""up"",""bad_move"",42393,6308,2196.6,39772,424.4,""oops"",""down"",""down"",""good_move"",44572,2179,1697.3,42393,481.7,""oops"",""down"",""right"",""bad_move"",47431,2859,2381,44572,478,""smooth"",""left"",""left"",""good_move"",50500,3069,2079.8,47431,989.2,""oops"",""down"",""up"",""bad_move"",53583,3083,2446,50500,637,""oops"",""down"",""left"",""good_move""]","",""
"3488","","<div style=""width:500px;"">
  <p>What determined the result of this run?</p>
  </div>","2","html-slider-response","45","682719","0.0-5.0-1.7","137","1","2025-07-22 08:11:21","1f75c3e559b7213887762d5229550c2b","92.40.201.96","Mozilla/5.0 (Windows NT 10.0; Win64; x64; rv:140.0) Gecko/20100101 Firefox/140.0","","Firefox","140.0","Windows","10.0","https://app.prolific.com/","en-GB,en;q=0.5","676e882e8a97b91ee272efe4","686e379bc37a29ffa5cdc956","687f477955aefd18f901c9f6","1","1","676e882e8a97b91ee272efe4","1","1","2025-07-22T08:22:51.737Z","","","","","","","","","","","AttribQ","","50","","","","","","","","","","","","","","","","","","","","","","","","","","","","",""
"2892","","<div style=""width:500px;"">
  <p>How much control did you have over the ball?</p>
  </div>","0","html-slider-response","46","685613","0.0-5.0-2.7","137","1","2025-07-22 08:11:21","1f75c3e559b7213887762d5229550c2b","92.40.201.96","Mozilla/5.0 (Windows NT 10.0; Win64; x64; rv:140.0) Gecko/20100101 Firefox/140.0","","Firefox","140.0","Windows","10.0","https://app.prolific.com/","en-GB,en;q=0.5","676e882e8a97b91ee272efe4","686e379bc37a29ffa5cdc956","687f477955aefd18f901c9f6","1","1","676e882e8a97b91ee272efe4","1","1","2025-07-22T08:22:54.631Z","","","","","","","","","","","ControlQ","","50","","","","","","","","","","","","","","","","","","","","","","","","","","","","",""
"2590","","<div style=""width:500px;"">
  <p>How would you describe your current emotional state?</p>
  </div>","92","html-slider-response","47","688204","0.0-5.0-3.7","137","1","2025-07-22 08:11:21","1f75c3e559b7213887762d5229550c2b","92.40.201.96","Mozilla/5.0 (Windows NT 10.0; Win64; x64; rv:140.0) Gecko/20100101 Firefox/140.0","","Firefox","140.0","Windows","10.0","https://app.prolific.com/","en-GB,en;q=0.5","676e882e8a97b91ee272efe4","686e379bc37a29ffa5cdc956","687f477955aefd18f901c9f6","1","1","676e882e8a97b91ee272efe4","1","1","2025-07-22T08:22:57.222Z","","","","","","","","","","","StressQ","","50","","","","","","","","","","","","","","","","","","","","","","","","","","","","",""
"2235","","<div style=""width:500px;"">
  <p>What best describes how you currently feel?</p>
  </div>","4","html-slider-response","48","690440","0.0-5.0-4.7","137","1","2025-07-22 08:11:21","1f75c3e559b7213887762d5229550c2b","92.40.201.96","Mozilla/5.0 (Windows NT 10.0; Win64; x64; rv:140.0) Gecko/20100101 Firefox/140.0","","Firefox","140.0","Windows","10.0","https://app.prolific.com/","en-GB,en;q=0.5","676e882e8a97b91ee272efe4","686e379bc37a29ffa5cdc956","687f477955aefd18f901c9f6","1","1","676e882e8a97b91ee272efe4","1","1","2025-07-22T08:22:59.458Z","","","","","","","","","","","MotivationQ","","50","","","","","","","","","","","","","","","","","","","","","","","","","","","","",""
"","","","","ctl-task-cpt","49","743644","0.0-5.0-0.8","137","1","2025-07-22 08:11:21","1f75c3e559b7213887762d5229550c2b","92.40.201.96","Mozilla/5.0 (Windows NT 10.0; Win64; x64; rv:140.0) Gecko/20100101 Firefox/140.0","","Firefox","140.0","Windows","10.0","https://app.prolific.com/","en-GB,en;q=0.5","676e882e8a97b91ee272efe4","686e379bc37a29ffa5cdc956","687f477955aefd18f901c9f6","1","1","676e882e8a97b91ee272efe4","1","1","2025-07-22T08:23:52.662Z","","","","","","","","","","","","","","win-only","1","g1:NE,g2:SW","0.2","9","0","697961","1341","6355","50200","1","4","4","6","1","1","1","12","11","0.09090909090909091","5014","3000","1430","[""up"",""right""]","{""num_key_presses"":12,""num_perfect"":4,""num_errors"":0,""num_randdir"":8,""num_randdir_good_moves"":4,""num_whilered"":0,""num_whileblue"":0,""num_blue"":2,""num_good_moves"":8}","[417.8214133126395,423.8214362008231,0,417.8214133126395,423.8214362008231,101,417.8214133126395,423.8214362008231,212,417.8214133126395,423.8214362008231,323,417.8214133126395,423.8214362008231,435,417.8214133126395,423.8214362008231,546,417.8214133126395,423.8214362008231,657,417.8214133126395,423.8214362008231,768,417.8214133126395,423.8214362008231,879,417.8214133126395,423.8214362008231,990,417.8214133126395,423.8214362008231,1101,417.8214133126395,423.8214362008231,1213,417.8214133126395,423.8214362008231,1325,417.8214133126395,423.8214362008231,1436,417.8214133126395,423.8214362008231,1548,417.8214133126395,423.8214362008231,1660,417.8214133126395,423.8214362008231,1772,417.8214133126395,423.8214362008231,1883,417.8214133126395,423.8214362008231,1994,417.8214133126395,423.8214362008231,2106,417.8214133126395,423.8214362008231,2216,417.8214133126395,423.8214362008231,2328,417.8214133126395,423.8214362008231,2438,417.8214133126395,423.8214362008231,2550,417.8214133126395,423.8214362008231,2662,417.8214133126395,423.8214362008231,2774,417.8214133126395,423.8214362008231,2883,417.8214133126395,423.8214362008231,2994,417.8214133126395,423.8214362008231,3107,417.8214133126395,423.8214362008231,3218,417.8214133126395,423.8214362008231,3328,417.8214133126395,423.8214362008231,3440,417.8214133126395,423.8214362008231,3551,417.8214133126395,423.8214362008231,3661,417.8214133126395,423.8214362008231,3772,417.8214133126395,423.8214362008231,3882,417.8214133126395,423.8214362008231,3994,417.8214133126395,423.8214362008231,4105,417.8214133126395,423.8214362008231,4216,417.8214133126395,423.8214362008231,4328,417.8214133126395,423.8214362008231,4439,417.8214133126395,423.8214362008231,4550,417.8214133126395,423.8214362008231,4662,417.8214133126395,423.8214362008231,4774,417.8214133126395,423.8214362008231,4884,417.8214133126395,423.8214362008231,4998]","[4659,4659,2224.8,2015,419.2,""oops"",""right"",""up"",""good_move"",7823,3164,2600,4659,564,""oops"",""right"",""left"",""bad_move"",11102,3279,2560.8,7823,718.2,""oops"",""up"",""up"",""good_move"",14212,3110,2337.2,11102,772.8,""smooth"",""right"",""right"",""good_move"",16865,2653,2273.3,14212,379.7,""oops"",""right"",""down"",""bad_move"",20364,3499,3060.9,16865,438.1,""smooth"",""right"",""right"",""good_move"",23168,2804,2407.6,20364,396.4,""oops"",""right"",""right"",""good_move"",26998,3830,3471.2,23168,358.8,""oops"",""up"",""left"",""bad_move"",33378,6380,2314.9,30698,365.1,""oops"",""right"",""down"",""bad_move"",36747,3369,2898.5,33378,470.5,""oops"",""right"",""right"",""good_move"",40111,3364,2935.3,36747,428.7,""smooth"",""up"",""up"",""good_move"",43545,3434,2992,40111,442,""smooth"",""up"",""up"",""good_move""]","",""
"4078","","<div style=""width:500px;"">
  <p>What determined the result of this run?</p>
  </div>","11","html-slider-response","50","747724","0.0-5.0-1.8","137","1","2025-07-22 08:11:21","1f75c3e559b7213887762d5229550c2b","92.40.201.96","Mozilla/5.0 (Windows NT 10.0; Win64; x64; rv:140.0) Gecko/20100101 Firefox/140.0","","Firefox","140.0","Windows","10.0","https://app.prolific.com/","en-GB,en;q=0.5","676e882e8a97b91ee272efe4","686e379bc37a29ffa5cdc956","687f477955aefd18f901c9f6","1","1","676e882e8a97b91ee272efe4","1","1","2025-07-22T08:23:56.742Z","","","","","","","","","","","AttribQ","","50","","","","","","","","","","","","","","","","","","","","","","","","","","","","",""
"5431","","<div style=""width:500px;"">
  <p>How much control did you have over the ball?</p>
  </div>","38","html-slider-response","51","753156","0.0-5.0-2.8","137","1","2025-07-22 08:11:21","1f75c3e559b7213887762d5229550c2b","92.40.201.96","Mozilla/5.0 (Windows NT 10.0; Win64; x64; rv:140.0) Gecko/20100101 Firefox/140.0","","Firefox","140.0","Windows","10.0","https://app.prolific.com/","en-GB,en;q=0.5","676e882e8a97b91ee272efe4","686e379bc37a29ffa5cdc956","687f477955aefd18f901c9f6","1","1","676e882e8a97b91ee272efe4","1","1","2025-07-22T08:24:02.174Z","","","","","","","","","","","ControlQ","","50","","","","","","","","","","","","","","","","","","","","","","","","","","","","",""
"4052","","<div style=""width:500px;"">
  <p>How would you describe your current emotional state?</p>
  </div>","80","html-slider-response","52","757211","0.0-5.0-3.8","137","1","2025-07-22 08:11:21","1f75c3e559b7213887762d5229550c2b","92.40.201.96","Mozilla/5.0 (Windows NT 10.0; Win64; x64; rv:140.0) Gecko/20100101 Firefox/140.0","","Firefox","140.0","Windows","10.0","https://app.prolific.com/","en-GB,en;q=0.5","676e882e8a97b91ee272efe4","686e379bc37a29ffa5cdc956","687f477955aefd18f901c9f6","1","1","676e882e8a97b91ee272efe4","1","1","2025-07-22T08:24:06.229Z","","","","","","","","","","","StressQ","","50","","","","","","","","","","","","","","","","","","","","","","","","","","","","",""
"2984","","<div style=""width:500px;"">
  <p>What best describes how you currently feel?</p>
  </div>","15","html-slider-response","53","760195","0.0-5.0-4.8","137","1","2025-07-22 08:11:21","1f75c3e559b7213887762d5229550c2b","92.40.201.96","Mozilla/5.0 (Windows NT 10.0; Win64; x64; rv:140.0) Gecko/20100101 Firefox/140.0","","Firefox","140.0","Windows","10.0","https://app.prolific.com/","en-GB,en;q=0.5","676e882e8a97b91ee272efe4","686e379bc37a29ffa5cdc956","687f477955aefd18f901c9f6","1","1","676e882e8a97b91ee272efe4","1","1","2025-07-22T08:24:09.213Z","","","","","","","","","","","MotivationQ","","50","","","","","","","","","","","","","","","","","","","","","","","","","","","","",""
"","","","","ctl-task-cpt","54","824197","0.0-5.0-0.9","137","1","2025-07-22 08:11:21","1f75c3e559b7213887762d5229550c2b","92.40.201.96","Mozilla/5.0 (Windows NT 10.0; Win64; x64; rv:140.0) Gecko/20100101 Firefox/140.0","","Firefox","140.0","Windows","10.0","https://app.prolific.com/","en-GB,en;q=0.5","676e882e8a97b91ee272efe4","686e379bc37a29ffa5cdc956","687f477955aefd18f901c9f6","1","1","676e882e8a97b91ee272efe4","1","1","2025-07-22T08:25:13.215Z","","","","","","","","","","","","","","win-only","2","g1:SE,g2:NW","0.4","10","0","767716","1149","6163","60995","1","4","8","6","2","8","8","20","12","0.15151515151515152","5014","3000","1340","[""left"",""up""]","{""num_key_presses"":12,""num_perfect"":5,""num_errors"":0,""num_randdir"":7,""num_randdir_good_moves"":4,""num_whilered"":0,""num_whileblue"":0,""num_blue"":5,""num_good_moves"":9}","[414.0714133126395,411.3214362008231,0,414.0714133126395,411.3214362008231,104,414.0714133126395,411.3214362008231,216,414.0714133126395,411.3214362008231,327,414.0714133126395,411.3214362008231,439,414.0714133126395,411.3214362008231,549,414.0714133126395,411.3214362008231,660,414.0714133126395,411.3214362008231,771,414.0714133126395,411.3214362008231,883,414.0714133126395,411.3214362008231,994,414.0714133126395,411.3214362008231,1106,414.0714133126395,411.3214362008231,1219,414.0714133126395,411.3214362008231,1330,414.0714133126395,411.3214362008231,1442,414.0714133126395,411.3214362008231,1553,414.0714133126395,411.3214362008231,1663,414.0714133126395,411.3214362008231,1776,414.0714133126395,411.3214362008231,1888,414.0714133126395,411.3214362008231,1999,414.0714133126395,411.3214362008231,2111,414.0714133126395,411.3214362008231,2222,414.0714133126395,411.3214362008231,2333,414.0714133126395,411.3214362008231,2445,414.0714133126395,411.3214362008231,2559,414.0714133126395,411.3214362008231,2670,414.0714133126395,411.3214362008231,2782,414.0714133126395,411.3214362008231,2893,414.0714133126395,411.3214362008231,3004,414.0714133126395,411.3214362008231,3116,414.0714133126395,411.3214362008231,3227,414.0714133126395,411.3214362008231,3338,414.0714133126395,411.3214362008231,3450,414.0714133126395,411.3214362008231,3562,414.0714133126395,411.3214362008231,3674,414.0714133126395,411.3214362008231,3787,414.0714133126395,411.3214362008231,3899,414.0714133126395,411.3214362008231,4010,414.0714133126395,411.3214362008231,4123,414.0714133126395,411.3214362008231,4233,414.0714133126395,411.3214362008231,4345,414.0714133126395,411.3214362008231,4456,414.0714133126395,411.3214362008231,4568,414.0714133126395,411.3214362008231,4680,414.0714133126395,411.3214362008231,4791,414.0714133126395,411.3214362008231,4904]","[5396,5396,2986.9,2010,399.1,""oops"",""left"",""down"",""bad_move"",7949,2552,2019.1,5397,532.9,""smooth"",""left"",""left"",""good_move"",11063,3114,2121.2,7949,992.8,""oops"",""left"",""left"",""good_move"",17832,6769,2263.8,15168,400.2,""oops"",""left"",""up"",""good_move"",21021,3189,2286.2,17832,902.8,""smooth"",""left"",""left"",""good_move"",28083,7062,2925,24740,418,""smooth"",""up"",""up"",""good_move"",31461,3378,2948.8,28083,429.2,""oops"",""up"",""down"",""bad_move"",38345,6883,3016.3,34773,555.7,""smooth"",""up"",""up"",""good_move"",41544,3198,2523.9,38346,674.1,""oops"",""up"",""down"",""bad_move"",44602,3057,2587.9,41545,469.1,""oops"",""up"",""up"",""good_move"",47673,3071,2469.2,44602,601.8,""smooth"",""up"",""up"",""good_move"",54548,6875,2448.7,51629,470.3,""oops"",""up"",""up"",""good_move""]","",""
"2926","","<div style=""width:500px;"">
  <p>What determined the result of this run?</p>
  </div>","30","html-slider-response","55","827124","0.0-5.0-1.9","137","1","2025-07-22 08:11:21","1f75c3e559b7213887762d5229550c2b","92.40.201.96","Mozilla/5.0 (Windows NT 10.0; Win64; x64; rv:140.0) Gecko/20100101 Firefox/140.0","","Firefox","140.0","Windows","10.0","https://app.prolific.com/","en-GB,en;q=0.5","676e882e8a97b91ee272efe4","686e379bc37a29ffa5cdc956","687f477955aefd18f901c9f6","1","1","676e882e8a97b91ee272efe4","1","1","2025-07-22T08:25:16.143Z","","","","","","","","","","","AttribQ","","50","","","","","","","","","","","","","","","","","","","","","","","","","","","","",""
"3619","","<div style=""width:500px;"">
  <p>How much control did you have over the ball?</p>
  </div>","37","html-slider-response","56","830744","0.0-5.0-2.9","137","1","2025-07-22 08:11:21","1f75c3e559b7213887762d5229550c2b","92.40.201.96","Mozilla/5.0 (Windows NT 10.0; Win64; x64; rv:140.0) Gecko/20100101 Firefox/140.0","","Firefox","140.0","Windows","10.0","https://app.prolific.com/","en-GB,en;q=0.5","676e882e8a97b91ee272efe4","686e379bc37a29ffa5cdc956","687f477955aefd18f901c9f6","1","1","676e882e8a97b91ee272efe4","1","1","2025-07-22T08:25:19.762Z","","","","","","","","","","","ControlQ","","50","","","","","","","","","","","","","","","","","","","","","","","","","","","","",""
"4220","","<div style=""width:500px;"">
  <p>How would you describe your current emotional state?</p>
  </div>","65","html-slider-response","57","834967","0.0-5.0-3.9","137","1","2025-07-22 08:11:21","1f75c3e559b7213887762d5229550c2b","92.40.201.96","Mozilla/5.0 (Windows NT 10.0; Win64; x64; rv:140.0) Gecko/20100101 Firefox/140.0","","Firefox","140.0","Windows","10.0","https://app.prolific.com/","en-GB,en;q=0.5","676e882e8a97b91ee272efe4","686e379bc37a29ffa5cdc956","687f477955aefd18f901c9f6","1","1","676e882e8a97b91ee272efe4","1","1","2025-07-22T08:25:23.985Z","","","","","","","","","","","StressQ","","50","","","","","","","","","","","","","","","","","","","","","","","","","","","","",""
"5780","","<div style=""width:500px;"">
  <p>What best describes how you currently feel?</p>
  </div>","48","html-slider-response","58","840748","0.0-5.0-4.9","137","1","2025-07-22 08:11:21","1f75c3e559b7213887762d5229550c2b","92.40.201.96","Mozilla/5.0 (Windows NT 10.0; Win64; x64; rv:140.0) Gecko/20100101 Firefox/140.0","","Firefox","140.0","Windows","10.0","https://app.prolific.com/","en-GB,en;q=0.5","676e882e8a97b91ee272efe4","686e379bc37a29ffa5cdc956","687f477955aefd18f901c9f6","1","1","676e882e8a97b91ee272efe4","1","1","2025-07-22T08:25:29.766Z","","","","","","","","","","","MotivationQ","","50","","","","","","","","","","","","","","","","","","","","","","","","","","","","",""
"","","","","ctl-task-cpt","59","879528","0.0-5.0-0.10","137","1","2025-07-22 08:11:21","1f75c3e559b7213887762d5229550c2b","92.40.201.96","Mozilla/5.0 (Windows NT 10.0; Win64; x64; rv:140.0) Gecko/20100101 Firefox/140.0","","Firefox","140.0","Windows","10.0","https://app.prolific.com/","en-GB,en;q=0.5","676e882e8a97b91ee272efe4","686e379bc37a29ffa5cdc956","687f477955aefd18f901c9f6","1","1","676e882e8a97b91ee272efe4","1","1","2025-07-22T08:26:08.546Z","","","","","","","","","","","","","","win-only","2","g1:SE,g2:NW","0.5","11","0","848269","1482","6489","35763","1","4","8","6","1","1","1","21","20","0.1590909090909091","5007","3000","1895","[""down"",""right""]","{""num_key_presses"":8,""num_perfect"":5,""num_errors"":0,""num_randdir"":3,""num_randdir_good_moves"":1,""num_whilered"":0,""num_whileblue"":0,""num_blue"":2,""num_good_moves"":6}","[414.0714133126395,408.8214362008231,1,414.0714133126395,408.8214362008231,105,414.0714133126395,408.8214362008231,216,414.0714133126395,408.8214362008231,327,414.0714133126395,408.8214362008231,438,414.0714133126395,408.8214362008231,549,414.0714133126395,408.8214362008231,660,414.0714133126395,408.8214362008231,770,414.0714133126395,408.8214362008231,882,414.0714133126395,408.8214362008231,994,414.0714133126395,408.8214362008231,1107,414.0714133126395,408.8214362008231,1217,414.0714133126395,408.8214362008231,1328,414.0714133126395,408.8214362008231,1441,414.0714133126395,408.8214362008231,1554,414.0714133126395,408.8214362008231,1666,414.0714133126395,408.8214362008231,1776,414.0714133126395,408.8214362008231,1889,414.0714133126395,408.8214362008231,2001,414.0714133126395,408.8214362008231,2114,414.0714133126395,408.8214362008231,2224,414.0714133126395,408.8214362008231,2336,414.0714133126395,408.8214362008231,2448,414.0714133126395,408.8214362008231,2556,414.0714133126395,408.8214362008231,2667,414.0714133126395,408.8214362008231,2779,414.0714133126395,408.8214362008231,2891,414.0714133126395,408.8214362008231,3003,414.0714133126395,408.8214362008231,3115,414.0714133126395,408.8214362008231,3226,414.0714133126395,408.8214362008231,3336,414.0714133126395,408.8214362008231,3448,414.0714133126395,408.8214362008231,3558,414.0714133126395,408.8214362008231,3669,414.0714133126395,408.8214362008231,3780,414.0714133126395,408.8214362008231,3893,414.0714133126395,408.8214362008231,4004,414.0714133126395,408.8214362008231,4116,414.0714133126395,408.8214362008231,4226,414.0714133126395,408.8214362008231,4338,414.0714133126395,408.8214362008231,4449,414.0714133126395,408.8214362008231,4558,414.0714133126395,408.8214362008231,4671,414.0714133126395,408.8214362008231,4781,414.0714133126395,408.8214362008231,4894]","[1571,1571,1000,0,571,""smooth"",""down"",""down"",""good_move"",4545,2974,2498.3,1571,475.7,""oops"",""right"",""right"",""good_move"",7004,2459,2068.2,4545,390.8,""oops"",""down"",""left"",""bad_move"",10458,3454,2999.2,7004,454.8,""oops"",""down"",""up"",""bad_move"",13637,3179,2527.1,10458,651.9,""smooth"",""down"",""down"",""good_move"",16272,2635,2202.1,13637,432.9,""smooth"",""down"",""down"",""good_move"",23190,6918,2890.9,19861,438.1,""smooth"",""right"",""right"",""good_move"",28985,5795,1783.9,26802,399.1,""smooth"",""right"",""right"",""good_move""]","",""
"6744","","<div style=""width:500px;"">
  <p>What determined the result of this run?</p>
  </div>","42","html-slider-response","60","886274","0.0-5.0-1.10","137","1","2025-07-22 08:11:21","1f75c3e559b7213887762d5229550c2b","92.40.201.96","Mozilla/5.0 (Windows NT 10.0; Win64; x64; rv:140.0) Gecko/20100101 Firefox/140.0","","Firefox","140.0","Windows","10.0","https://app.prolific.com/","en-GB,en;q=0.5","676e882e8a97b91ee272efe4","686e379bc37a29ffa5cdc956","687f477955aefd18f901c9f6","1","1","676e882e8a97b91ee272efe4","1","1","2025-07-22T08:26:15.292Z","","","","","","","","","","","AttribQ","","50","","","","","","","","","","","","","","","","","","","","","","","","","","","","",""
"4309","","<div style=""width:500px;"">
  <p>How much control did you have over the ball?</p>
  </div>","40","html-slider-response","61","890584","0.0-5.0-2.10","137","1","2025-07-22 08:11:21","1f75c3e559b7213887762d5229550c2b","92.40.201.96","Mozilla/5.0 (Windows NT 10.0; Win64; x64; rv:140.0) Gecko/20100101 Firefox/140.0","","Firefox","140.0","Windows","10.0","https://app.prolific.com/","en-GB,en;q=0.5","676e882e8a97b91ee272efe4","686e379bc37a29ffa5cdc956","687f477955aefd18f901c9f6","1","1","676e882e8a97b91ee272efe4","1","1","2025-07-22T08:26:19.602Z","","","","","","","","","","","ControlQ","","50","","","","","","","","","","","","","","","","","","","","","","","","","","","","",""
"4612","","<div style=""width:500px;"">
  <p>How would you describe your current emotional state?</p>
  </div>","63","html-slider-response","62","895199","0.0-5.0-3.10","137","1","2025-07-22 08:11:21","1f75c3e559b7213887762d5229550c2b","92.40.201.96","Mozilla/5.0 (Windows NT 10.0; Win64; x64; rv:140.0) Gecko/20100101 Firefox/140.0","","Firefox","140.0","Windows","10.0","https://app.prolific.com/","en-GB,en;q=0.5","676e882e8a97b91ee272efe4","686e379bc37a29ffa5cdc956","687f477955aefd18f901c9f6","1","1","676e882e8a97b91ee272efe4","1","1","2025-07-22T08:26:24.217Z","","","","","","","","","","","StressQ","","50","","","","","","","","","","","","","","","","","","","","","","","","","","","","",""
"4185","","<div style=""width:500px;"">
  <p>What best describes how you currently feel?</p>
  </div>","37","html-slider-response","63","899385","0.0-5.0-4.10","137","1","2025-07-22 08:11:21","1f75c3e559b7213887762d5229550c2b","92.40.201.96","Mozilla/5.0 (Windows NT 10.0; Win64; x64; rv:140.0) Gecko/20100101 Firefox/140.0","","Firefox","140.0","Windows","10.0","https://app.prolific.com/","en-GB,en;q=0.5","676e882e8a97b91ee272efe4","686e379bc37a29ffa5cdc956","687f477955aefd18f901c9f6","1","1","676e882e8a97b91ee272efe4","1","1","2025-07-22T08:26:28.403Z","","","","","","","","","","","MotivationQ","","50","","","","","","","","","","","","","","","","","","","","","","","","","","","","",""
"","","","","ctl-task-cpt","64","942435","0.0-5.0-0.11","137","1","2025-07-22 08:11:21","1f75c3e559b7213887762d5229550c2b","92.40.201.96","Mozilla/5.0 (Windows NT 10.0; Win64; x64; rv:140.0) Gecko/20100101 Firefox/140.0","","Firefox","140.0","Windows","10.0","https://app.prolific.com/","en-GB,en;q=0.5","676e882e8a97b91ee272efe4","686e379bc37a29ffa5cdc956","687f477955aefd18f901c9f6","1","1","676e882e8a97b91ee272efe4","1","1","2025-07-22T08:27:11.453Z","","","","","","","","","","","","","","win-only","1","g1:NE,g2:SW","0.6","12","0","906905","2224","7232","40037","1","4","4","6","2","4","4","25","21","0.1893939393939394","5008","3000","2025","[""down"",""left""]","{""num_key_presses"":6,""num_perfect"":6,""num_errors"":0,""num_randdir"":0,""num_randdir_good_moves"":0,""num_whilered"":0,""num_whileblue"":0,""num_blue"":4,""num_good_moves"":6}","[407.8214133126395,413.8214362008231,0,407.8214133126395,413.8214362008231,110,407.8214133126395,413.8214362008231,222,407.8214133126395,413.8214362008231,333,407.8214133126395,413.8214362008231,443,407.8214133126395,413.8214362008231,555,407.8214133126395,413.8214362008231,666,407.8214133126395,413.8214362008231,777,407.8214133126395,413.8214362008231,888,407.8214133126395,413.8214362008231,998,407.8214133126395,413.8214362008231,1110,407.8214133126395,413.8214362008231,1221,407.8214133126395,413.8214362008231,1334,407.8214133126395,413.8214362008231,1444,407.8214133126395,413.8214362008231,1556,407.8214133126395,413.8214362008231,1669,407.8214133126395,413.8214362008231,1781,407.8214133126395,413.8214362008231,1891,407.8214133126395,413.8214362008231,2003,407.8214133126395,413.8214362008231,2116,407.8214133126395,413.8214362008231,2226,407.8214133126395,413.8214362008231,2338,407.8214133126395,413.8214362008231,2449,407.8214133126395,413.8214362008231,2560,407.8214133126395,413.8214362008231,2671,407.8214133126395,413.8214362008231,2784,407.8214133126395,413.8214362008231,2895,407.8214133126395,413.8214362008231,3007,407.8214133126395,413.8214362008231,3118,407.8214133126395,413.8214362008231,3228,407.8214133126395,413.8214362008231,3340,407.8214133126395,413.8214362008231,3452,407.8214133126395,413.8214362008231,3563,407.8214133126395,413.8214362008231,3674,407.8214133126395,413.8214362008231,3787,407.8214133126395,413.8214362008231,3899,407.8214133126395,413.8214362008231,4010,407.8214133126395,413.8214362008231,4122,407.8214133126395,413.8214362008231,4232,407.8214133126395,413.8214362008231,4343,407.8214133126395,413.8214362008231,4452,407.8214133126395,413.8214362008231,4564,407.8214133126395,413.8214362008231,4675,407.8214133126395,413.8214362008231,4786,407.8214133126395,413.8214362008231,4897]","[1537,1537,1000,0,537,""smooth"",""down"",""down"",""good_move"",8492,6955,3250.3,4711,530.7,""smooth"",""down"",""down"",""good_move"",12076,3584,2847.9,8492,736.1,""smooth"",""down"",""down"",""good_move"",14415,2338,1891.8,12077,446.2,""smooth"",""left"",""left"",""good_move"",17528,3113,2583.9,14415,529.1,""smooth"",""left"",""left"",""good_move"",32526,14998,3310.9,28728,487.1,""smooth"",""left"",""left"",""good_move""]","",""
"5232","","<div style=""width:500px;"">
  <p>What determined the result of this run?</p>
  </div>","77","html-slider-response","65","947668","0.0-5.0-1.11","137","1","2025-07-22 08:11:21","1f75c3e559b7213887762d5229550c2b","92.40.201.96","Mozilla/5.0 (Windows NT 10.0; Win64; x64; rv:140.0) Gecko/20100101 Firefox/140.0","","Firefox","140.0","Windows","10.0","https://app.prolific.com/","en-GB,en;q=0.5","676e882e8a97b91ee272efe4","686e379bc37a29ffa5cdc956","687f477955aefd18f901c9f6","1","1","676e882e8a97b91ee272efe4","1","1","2025-07-22T08:27:16.686Z","","","","","","","","","","","AttribQ","","50","","","","","","","","","","","","","","","","","","","","","","","","","","","","",""
"3386","","<div style=""width:500px;"">
  <p>How much control did you have over the ball?</p>
  </div>","79","html-slider-response","66","951057","0.0-5.0-2.11","137","1","2025-07-22 08:11:21","1f75c3e559b7213887762d5229550c2b","92.40.201.96","Mozilla/5.0 (Windows NT 10.0; Win64; x64; rv:140.0) Gecko/20100101 Firefox/140.0","","Firefox","140.0","Windows","10.0","https://app.prolific.com/","en-GB,en;q=0.5","676e882e8a97b91ee272efe4","686e379bc37a29ffa5cdc956","687f477955aefd18f901c9f6","1","1","676e882e8a97b91ee272efe4","1","1","2025-07-22T08:27:20.075Z","","","","","","","","","","","ControlQ","","50","","","","","","","","","","","","","","","","","","","","","","","","","","","","",""
"5886","","<div style=""width:500px;"">
  <p>How would you describe your current emotional state?</p>
  </div>","50","html-slider-response","67","956945","0.0-5.0-3.11","137","1","2025-07-22 08:11:21","1f75c3e559b7213887762d5229550c2b","92.40.201.96","Mozilla/5.0 (Windows NT 10.0; Win64; x64; rv:140.0) Gecko/20100101 Firefox/140.0","","Firefox","140.0","Windows","10.0","https://app.prolific.com/","en-GB,en;q=0.5","676e882e8a97b91ee272efe4","686e379bc37a29ffa5cdc956","687f477955aefd18f901c9f6","1","1","676e882e8a97b91ee272efe4","1","1","2025-07-22T08:27:25.964Z","","","","","","","","","","","StressQ","","50","","","","","","","","","","","","","","","","","","","","","","","","","","","","",""
"2707","","<div style=""width:500px;"">
  <p>What best describes how you currently feel?</p>
  </div>","55","html-slider-response","68","959657","0.0-5.0-4.11","137","1","2025-07-22 08:11:21","1f75c3e559b7213887762d5229550c2b","92.40.201.96","Mozilla/5.0 (Windows NT 10.0; Win64; x64; rv:140.0) Gecko/20100101 Firefox/140.0","","Firefox","140.0","Windows","10.0","https://app.prolific.com/","en-GB,en;q=0.5","676e882e8a97b91ee272efe4","686e379bc37a29ffa5cdc956","687f477955aefd18f901c9f6","1","1","676e882e8a97b91ee272efe4","1","1","2025-07-22T08:27:28.675Z","","","","","","","","","","","MotivationQ","","50","","","","","","","","","","","","","","","","","","","","","","","","","","","","",""
"","","","","ctl-task-cpt","69","988393","0.0-5.0-0.12","137","1","2025-07-22 08:11:21","1f75c3e559b7213887762d5229550c2b","92.40.201.96","Mozilla/5.0 (Windows NT 10.0; Win64; x64; rv:140.0) Gecko/20100101 Firefox/140.0","","Firefox","140.0","Windows","10.0","https://app.prolific.com/","en-GB,en;q=0.5","676e882e8a97b91ee272efe4","686e379bc37a29ffa5cdc956","687f477955aefd18f901c9f6","1","1","676e882e8a97b91ee272efe4","1","1","2025-07-22T08:27:57.411Z","","","","","","","","","","","","","","win-only","0","g1:NW,g2:SE","0.7","13","0","967177","1341","6354","25734","1","4","8","6","1","1","1","26","25","0.19696969696969696","5013","3000","2420","[""left"",""up""]","{""num_key_presses"":4,""num_perfect"":4,""num_errors"":0,""num_randdir"":0,""num_randdir_good_moves"":0,""num_whilered"":0,""num_whileblue"":0,""num_blue"":2,""num_good_moves"":4}","[411.5714133126395,418.8214362008231,0,411.5714133126395,418.8214362008231,106,411.5714133126395,418.8214362008231,215,411.5714133126395,418.8214362008231,327,411.5714133126395,418.8214362008231,438,411.5714133126395,418.8214362008231,551,411.5714133126395,418.8214362008231,662,411.5714133126395,418.8214362008231,772,411.5714133126395,418.8214362008231,884,411.5714133126395,418.8214362008231,995,411.5714133126395,418.8214362008231,1107,411.5714133126395,418.8214362008231,1219,411.5714133126395,418.8214362008231,1331,411.5714133126395,418.8214362008231,1442,411.5714133126395,418.8214362008231,1555,411.5714133126395,418.8214362008231,1666,411.5714133126395,418.8214362008231,1778,411.5714133126395,418.8214362008231,1890,411.5714133126395,418.8214362008231,2001,411.5714133126395,418.8214362008231,2113,411.5714133126395,418.8214362008231,2224,411.5714133126395,418.8214362008231,2336,411.5714133126395,418.8214362008231,2447,411.5714133126395,418.8214362008231,2558,411.5714133126395,418.8214362008231,2670,411.5714133126395,418.8214362008231,2782,411.5714133126395,418.8214362008231,2894,411.5714133126395,418.8214362008231,3005,411.5714133126395,418.8214362008231,3116,411.5714133126395,418.8214362008231,3227,411.5714133126395,418.8214362008231,3340,411.5714133126395,418.8214362008231,3451,411.5714133126395,418.8214362008231,3563,411.5714133126395,418.8214362008231,3674,411.5714133126395,418.8214362008231,3786,411.5714133126395,418.8214362008231,3898,411.5714133126395,418.8214362008231,4011,411.5714133126395,418.8214362008231,4121,411.5714133126395,418.8214362008231,4233,411.5714133126395,418.8214362008231,4344,411.5714133126395,418.8214362008231,4455,411.5714133126395,418.8214362008231,4565,411.5714133126395,418.8214362008231,4678,411.5714133126395,418.8214362008231,4789,411.5714133126395,418.8214362008231,4901]","[9301,9301,2661.5,6141,498.5,""smooth"",""left"",""left"",""good_move"",12776,3474,2985.1,9302,488.9,""smooth"",""left"",""left"",""good_move"",15905,3129,1982.5,12776,1146.5,""smooth"",""up"",""up"",""good_move"",19095,3190,2546.7,15905,643.3,""smooth"",""up"",""up"",""good_move""]","",""
"4047","","<div style=""width:500px;"">
  <p>What determined the result of this run?</p>
  </div>","88","html-slider-response","70","992443","0.0-5.0-1.12","137","1","2025-07-22 08:11:21","1f75c3e559b7213887762d5229550c2b","92.40.201.96","Mozilla/5.0 (Windows NT 10.0; Win64; x64; rv:140.0) Gecko/20100101 Firefox/140.0","","Firefox","140.0","Windows","10.0","https://app.prolific.com/","en-GB,en;q=0.5","676e882e8a97b91ee272efe4","686e379bc37a29ffa5cdc956","687f477955aefd18f901c9f6","1","1","676e882e8a97b91ee272efe4","1","1","2025-07-22T08:28:01.461Z","","","","","","","","","","","AttribQ","","50","","","","","","","","","","","","","","","","","","","","","","","","","","","","",""
"3394","","<div style=""width:500px;"">
  <p>How much control did you have over the ball?</p>
  </div>","86","html-slider-response","71","995839","0.0-5.0-2.12","137","1","2025-07-22 08:11:21","1f75c3e559b7213887762d5229550c2b","92.40.201.96","Mozilla/5.0 (Windows NT 10.0; Win64; x64; rv:140.0) Gecko/20100101 Firefox/140.0","","Firefox","140.0","Windows","10.0","https://app.prolific.com/","en-GB,en;q=0.5","676e882e8a97b91ee272efe4","686e379bc37a29ffa5cdc956","687f477955aefd18f901c9f6","1","1","676e882e8a97b91ee272efe4","1","1","2025-07-22T08:28:04.857Z","","","","","","","","","","","ControlQ","","50","","","","","","","","","","","","","","","","","","","","","","","","","","","","",""
"4149","","<div style=""width:500px;"">
  <p>How would you describe your current emotional state?</p>
  </div>","43","html-slider-response","72","999989","0.0-5.0-3.12","137","1","2025-07-22 08:11:21","1f75c3e559b7213887762d5229550c2b","92.40.201.96","Mozilla/5.0 (Windows NT 10.0; Win64; x64; rv:140.0) Gecko/20100101 Firefox/140.0","","Firefox","140.0","Windows","10.0","https://app.prolific.com/","en-GB,en;q=0.5","676e882e8a97b91ee272efe4","686e379bc37a29ffa5cdc956","687f477955aefd18f901c9f6","1","1","676e882e8a97b91ee272efe4","1","1","2025-07-22T08:28:09.007Z","","","","","","","","","","","StressQ","","50","","","","","","","","","","","","","","","","","","","","","","","","","","","","",""
"3163","","<div style=""width:500px;"">
  <p>What best describes how you currently feel?</p>
  </div>","64","html-slider-response","73","1003155","0.0-5.0-4.12","137","1","2025-07-22 08:11:21","1f75c3e559b7213887762d5229550c2b","92.40.201.96","Mozilla/5.0 (Windows NT 10.0; Win64; x64; rv:140.0) Gecko/20100101 Firefox/140.0","","Firefox","140.0","Windows","10.0","https://app.prolific.com/","en-GB,en;q=0.5","676e882e8a97b91ee272efe4","686e379bc37a29ffa5cdc956","687f477955aefd18f901c9f6","1","1","676e882e8a97b91ee272efe4","1","1","2025-07-22T08:28:12.173Z","","","","","","","","","","","MotivationQ","","50","","","","","","","","","","","","","","","","","","","","","","","","","","","","",""
"","","","","ctl-task-cpt","74","1039410","0.0-5.0-0.13","137","1","2025-07-22 08:11:21","1f75c3e559b7213887762d5229550c2b","92.40.201.96","Mozilla/5.0 (Windows NT 10.0; Win64; x64; rv:140.0) Gecko/20100101 Firefox/140.0","","Firefox","140.0","Windows","10.0","https://app.prolific.com/","en-GB,en;q=0.5","676e882e8a97b91ee272efe4","686e379bc37a29ffa5cdc956","687f477955aefd18f901c9f6","1","1","676e882e8a97b91ee272efe4","1","1","2025-07-22T08:28:48.428Z","","","","","","","","","","","","","","win-only","3","g1:SW,g2:NE","0.8","14","0","1010675","13973","18984","33237","1","4","4","6","1","1","1","27","26","0.20454545454545456","5011","3000","2410","[""down"",""left""]","{""num_key_presses"":4,""num_perfect"":4,""num_errors"":0,""num_randdir"":0,""num_randdir_good_moves"":0,""num_whilered"":0,""num_whileblue"":0,""num_blue"":1,""num_good_moves"":4}","[412.8214133126395,412.5714362008231,0,412.8214133126395,412.5714362008231,116,412.8214133126395,412.5714362008231,226,412.8214133126395,412.5714362008231,337,412.8214133126395,412.5714362008231,449,412.8214133126395,412.5714362008231,561,412.8214133126395,412.5714362008231,673,412.8214133126395,412.5714362008231,785,412.8214133126395,412.5714362008231,896,412.8214133126395,412.5714362008231,1008,412.8214133126395,412.5714362008231,1119,412.8214133126395,412.5714362008231,1230,412.8214133126395,412.5714362008231,1341,412.8214133126395,412.5714362008231,1452,412.8214133126395,412.5714362008231,1563,412.8214133126395,412.5714362008231,1674,412.8214133126395,412.5714362008231,1785,412.8214133126395,412.5714362008231,1896,412.8214133126395,412.5714362008231,2007,412.8214133126395,412.5714362008231,2119,412.8214133126395,412.5714362008231,2230,412.8214133126395,412.5714362008231,2341,412.8214133126395,412.5714362008231,2452,412.8214133126395,412.5714362008231,2561,412.8214133126395,412.5714362008231,2674,412.8214133126395,412.5714362008231,2782,412.8214133126395,412.5714362008231,2895,412.8214133126395,412.5714362008231,3008,412.8214133126395,412.5714362008231,3120,412.8214133126395,412.5714362008231,3229,412.8214133126395,412.5714362008231,3339,412.8214133126395,412.5714362008231,3451,412.8214133126395,412.5714362008231,3562,412.8214133126395,412.5714362008231,3673,412.8214133126395,412.5714362008231,3785,412.8214133126395,412.5714362008231,3896,412.8214133126395,412.5714362008231,4009,412.8214133126395,412.5714362008231,4120,412.8214133126395,412.5714362008231,4230,412.8214133126395,412.5714362008231,4342,412.8214133126395,412.5714362008231,4453,412.8214133126395,412.5714362008231,4565,412.8214133126395,412.5714362008231,4676,412.8214133126395,412.5714362008231,4787,412.8214133126395,412.5714362008231,4898]","[5161,5161,2586.5,2021,553.5,""smooth"",""down"",""down"",""good_move"",8112,2951,2445,5161,506,""smooth"",""left"",""left"",""good_move"",11468,3355,2897.3,8113,457.7,""smooth"",""down"",""down"",""good_move"",13968,2499,2092.2,11469,406.8,""smooth"",""left"",""left"",""good_move""]","",""
"2633","","<div style=""width:500px;"">
  <p>What determined the result of this run?</p>
  </div>","91","html-slider-response","75","1042048","0.0-5.0-1.13","137","1","2025-07-22 08:11:21","1f75c3e559b7213887762d5229550c2b","92.40.201.96","Mozilla/5.0 (Windows NT 10.0; Win64; x64; rv:140.0) Gecko/20100101 Firefox/140.0","","Firefox","140.0","Windows","10.0","https://app.prolific.com/","en-GB,en;q=0.5","676e882e8a97b91ee272efe4","686e379bc37a29ffa5cdc956","687f477955aefd18f901c9f6","1","1","676e882e8a97b91ee272efe4","1","1","2025-07-22T08:28:51.066Z","","","","","","","","","","","AttribQ","","50","","","","","","","","","","","","","","","","","","","","","","","","","","","","",""
"4859","","<div style=""width:500px;"">
  <p>How much control did you have over the ball?</p>
  </div>","98","html-slider-response","76","1046909","0.0-5.0-2.13","137","1","2025-07-22 08:11:21","1f75c3e559b7213887762d5229550c2b","92.40.201.96","Mozilla/5.0 (Windows NT 10.0; Win64; x64; rv:140.0) Gecko/20100101 Firefox/140.0","","Firefox","140.0","Windows","10.0","https://app.prolific.com/","en-GB,en;q=0.5","676e882e8a97b91ee272efe4","686e379bc37a29ffa5cdc956","687f477955aefd18f901c9f6","1","1","676e882e8a97b91ee272efe4","1","1","2025-07-22T08:28:55.927Z","","","","","","","","","","","ControlQ","","50","","","","","","","","","","","","","","","","","","","","","","","","","","","","",""
"3561","","<div style=""width:500px;"">
  <p>How would you describe your current emotional state?</p>
  </div>","37","html-slider-response","77","1050472","0.0-5.0-3.13","137","1","2025-07-22 08:11:21","1f75c3e559b7213887762d5229550c2b","92.40.201.96","Mozilla/5.0 (Windows NT 10.0; Win64; x64; rv:140.0) Gecko/20100101 Firefox/140.0","","Firefox","140.0","Windows","10.0","https://app.prolific.com/","en-GB,en;q=0.5","676e882e8a97b91ee272efe4","686e379bc37a29ffa5cdc956","687f477955aefd18f901c9f6","1","1","676e882e8a97b91ee272efe4","1","1","2025-07-22T08:28:59.490Z","","","","","","","","","","","StressQ","","50","","","","","","","","","","","","","","","","","","","","","","","","","","","","",""
"5325","","<div style=""width:500px;"">
  <p>What best describes how you currently feel?</p>
  </div>","57","html-slider-response","78","1055799","0.0-5.0-4.13","137","1","2025-07-22 08:11:21","1f75c3e559b7213887762d5229550c2b","92.40.201.96","Mozilla/5.0 (Windows NT 10.0; Win64; x64; rv:140.0) Gecko/20100101 Firefox/140.0","","Firefox","140.0","Windows","10.0","https://app.prolific.com/","en-GB,en;q=0.5","676e882e8a97b91ee272efe4","686e379bc37a29ffa5cdc956","687f477955aefd18f901c9f6","1","1","676e882e8a97b91ee272efe4","1","1","2025-07-22T08:29:04.817Z","","","","","","","","","","","MotivationQ","","50","","","","","","","","","","","","","","","","","","","","","","","","","","","","",""
"","","","","ctl-task-cpt","79","1079573","0.0-5.0-0.14","137","1","2025-07-22 08:11:21","1f75c3e559b7213887762d5229550c2b","92.40.201.96","Mozilla/5.0 (Windows NT 10.0; Win64; x64; rv:140.0) Gecko/20100101 Firefox/140.0","","Firefox","140.0","Windows","10.0","https://app.prolific.com/","en-GB,en;q=0.5","676e882e8a97b91ee272efe4","686e379bc37a29ffa5cdc956","687f477955aefd18f901c9f6","1","1","676e882e8a97b91ee272efe4","1","1","2025-07-22T08:29:28.591Z","","","","","","","","","","","","","","win-only","1","g1:NE,g2:SW","0.9","15","0","1063321","1714","6720","20758","1","4","4","6","1","1","1","28","27","0.21212121212121213","5006","3000","2475","[""up"",""right""]","{""num_key_presses"":4,""num_perfect"":4,""num_errors"":0,""num_randdir"":0,""num_randdir_good_moves"":0,""num_whilered"":0,""num_whileblue"":0,""num_blue"":1,""num_good_moves"":4}","[414.0714133126395,421.3214362008231,0,414.0714133126395,421.3214362008231,102,414.0714133126395,421.3214362008231,215,414.0714133126395,421.3214362008231,326,414.0714133126395,421.3214362008231,438,414.0714133126395,421.3214362008231,549,414.0714133126395,421.3214362008231,661,414.0714133126395,421.3214362008231,772,414.0714133126395,421.3214362008231,883,414.0714133126395,421.3214362008231,995,414.0714133126395,421.3214362008231,1107,414.0714133126395,421.3214362008231,1218,414.0714133126395,421.3214362008231,1331,414.0714133126395,421.3214362008231,1443,414.0714133126395,421.3214362008231,1554,414.0714133126395,421.3214362008231,1666,414.0714133126395,421.3214362008231,1777,414.0714133126395,421.3214362008231,1890,414.0714133126395,421.3214362008231,2001,414.0714133126395,421.3214362008231,2116,414.0714133126395,421.3214362008231,2224,414.0714133126395,421.3214362008231,2336,414.0714133126395,421.3214362008231,2447,414.0714133126395,421.3214362008231,2558,414.0714133126395,421.3214362008231,2671,414.0714133126395,421.3214362008231,2781,414.0714133126395,421.3214362008231,2894,414.0714133126395,421.3214362008231,3006,414.0714133126395,421.3214362008231,3117,414.0714133126395,421.3214362008231,3227,414.0714133126395,421.3214362008231,3338,414.0714133126395,421.3214362008231,3450,414.0714133126395,421.3214362008231,3557,414.0714133126395,421.3214362008231,3672,414.0714133126395,421.3214362008231,3783,414.0714133126395,421.3214362008231,3893,414.0714133126395,421.3214362008231,4004,414.0714133126395,421.3214362008231,4116,414.0714133126395,421.3214362008231,4228,414.0714133126395,421.3214362008231,4338,414.0714133126395,421.3214362008231,4449,414.0714133126395,421.3214362008231,4559,414.0714133126395,421.3214362008231,4671,414.0714133126395,421.3214362008231,4781,414.0714133126395,421.3214362008231,4894]","[1488,1488,1000,0,488,""smooth"",""right"",""right"",""good_move"",7471,5983,2462.1,4526,482.9,""smooth"",""right"",""right"",""good_move"",10705,3234,2824.4,7471,409.6,""smooth"",""up"",""up"",""good_move"",13765,3059,2063.3,10706,995.7,""smooth"",""up"",""up"",""good_move""]","",""
"4401","","<div style=""width:500px;"">
  <p>What determined the result of this run?</p>
  </div>","99","html-slider-response","80","1083978","0.0-5.0-1.14","137","1","2025-07-22 08:11:21","1f75c3e559b7213887762d5229550c2b","92.40.201.96","Mozilla/5.0 (Windows NT 10.0; Win64; x64; rv:140.0) Gecko/20100101 Firefox/140.0","","Firefox","140.0","Windows","10.0","https://app.prolific.com/","en-GB,en;q=0.5","676e882e8a97b91ee272efe4","686e379bc37a29ffa5cdc956","687f477955aefd18f901c9f6","1","1","676e882e8a97b91ee272efe4","1","1","2025-07-22T08:29:32.997Z","","","","","","","","","","","AttribQ","","50","","","","","","","","","","","","","","","","","","","","","","","","","","","","",""
"4054","","<div style=""width:500px;"">
  <p>How much control did you have over the ball?</p>
  </div>","100","html-slider-response","81","1088035","0.0-5.0-2.14","137","1","2025-07-22 08:11:21","1f75c3e559b7213887762d5229550c2b","92.40.201.96","Mozilla/5.0 (Windows NT 10.0; Win64; x64; rv:140.0) Gecko/20100101 Firefox/140.0","","Firefox","140.0","Windows","10.0","https://app.prolific.com/","en-GB,en;q=0.5","676e882e8a97b91ee272efe4","686e379bc37a29ffa5cdc956","687f477955aefd18f901c9f6","1","1","676e882e8a97b91ee272efe4","1","1","2025-07-22T08:29:37.053Z","","","","","","","","","","","ControlQ","","50","","","","","","","","","","","","","","","","","","","","","","","","","","","","",""
"4465","","<div style=""width:500px;"">
  <p>How would you describe your current emotional state?</p>
  </div>","46","html-slider-response","82","1092501","0.0-5.0-3.14","137","1","2025-07-22 08:11:21","1f75c3e559b7213887762d5229550c2b","92.40.201.96","Mozilla/5.0 (Windows NT 10.0; Win64; x64; rv:140.0) Gecko/20100101 Firefox/140.0","","Firefox","140.0","Windows","10.0","https://app.prolific.com/","en-GB,en;q=0.5","676e882e8a97b91ee272efe4","686e379bc37a29ffa5cdc956","687f477955aefd18f901c9f6","1","1","676e882e8a97b91ee272efe4","1","1","2025-07-22T08:29:41.519Z","","","","","","","","","","","StressQ","","50","","","","","","","","","","","","","","","","","","","","","","","","","","","","",""
"3221","","<div style=""width:500px;"">
  <p>What best describes how you currently feel?</p>
  </div>","47","html-slider-response","83","1095725","0.0-5.0-4.14","137","1","2025-07-22 08:11:21","1f75c3e559b7213887762d5229550c2b","92.40.201.96","Mozilla/5.0 (Windows NT 10.0; Win64; x64; rv:140.0) Gecko/20100101 Firefox/140.0","","Firefox","140.0","Windows","10.0","https://app.prolific.com/","en-GB,en;q=0.5","676e882e8a97b91ee272efe4","686e379bc37a29ffa5cdc956","687f477955aefd18f901c9f6","1","1","676e882e8a97b91ee272efe4","1","1","2025-07-22T08:29:44.743Z","","","","","","","","","","","MotivationQ","","50","","","","","","","","","","","","","","","","","","","","","","","","","","","","",""
