"rt","response_timestamp","stimulus","response","trial_type","trial_index","time_elapsed","internal_node_id","run_id","condition","recorded_at","source_code_version","ip","user_agent","device","browser","browser_version","platform","platform_version","referer","accept_language","PROLIFIC_PID","STUDY_ID","SESSION_ID","WEEK","BATCH","prolific_id","week","batch","realtime","success","responses","item_order","radio_event_ids","radio_event_times","key_event_times","mouse_event_times","straightlining","zigzagging","honeypot","eventType","view_history","slider_start","which_type","canvas_config","goals_layout","control_level","trial_number","tutorial_trial_number","trial_start_time","phase1_start_time","phase2_start_time","phase3_start_time","goal_1_value","goal_1_distance","goal_2_value","goal_2_distance","goal_selected","outcome","outcome_total","participant_final_score","participant_initial_score","participant_final_score_prop","goal_choice_rt","allocated_time","allocated_time_remaining","goal_direction","counts","mouse_movements","key_presses","question_order","question_id"
"20305","1753943665080","<p style='font-size:40px;line-height:1.25'><strong>Welcome to the experiment!</strong></p><p style='font-size:1.1em;line-height:1.25'>Thank you for participanting in our experiment again! You will be asked to play the Dysfunctional Ball Game again. We will briefly recap the rules before we start.</p><p style='font-size:1.1em;line-height:1.25'>Press <strong>Next</strong> to continue.</p>","0","custom-html-button-response","0","20341","0.0-0.0","304","1","2025-07-31 06:33:42","1f75c3e559b7213887762d5229550c2b","197.184.109.79","Mozilla/5.0 (Windows NT 10.0; Win64; x64) AppleWebKit/537.36 (KHTML, like Gecko) Chrome/138.0.0.0 Safari/537.36","WebKit","Chrome","138.0.0.0","Windows","10.0","https://app.prolific.com/","en-US,en;q=0.9","67eaee55a9b4d89e82b8df37","6877631c9844ddd5501205fc","688b0e24ea2bfd0ebd3ebc73","3","1","67eaee55a9b4d89e82b8df37","3","1","2025-07-31T06:34:25.097Z","","","","","","","","","","","","","","","","","","","","","","","","","","","","","","","","","","","","","","","","","",""
"8951","","","","fullscreen","1","30484","0.0-1.0","304","1","2025-07-31 06:33:42","1f75c3e559b7213887762d5229550c2b","197.184.109.79","Mozilla/5.0 (Windows NT 10.0; Win64; x64) AppleWebKit/537.36 (KHTML, like Gecko) Chrome/138.0.0.0 Safari/537.36","WebKit","Chrome","138.0.0.0","Windows","10.0","https://app.prolific.com/","en-US,en;q=0.9","67eaee55a9b4d89e82b8df37","6877631c9844ddd5501205fc","688b0e24ea2bfd0ebd3ebc73","3","1","67eaee55a9b4d89e82b8df37","3","1","","true","","","","","","","","","","","","","","","","","","","","","","","","","","","","","","","","","","","","","","","","",""
"3732","1753943678975","<p style='font-size:1.1em;line-height:1.25'>In the following, we will ask you a few questions relating to your feelings in the last 24 hours.<br></p><p style='font-size:1.1em;line-height:1.25'>Press the <strong>Next</strong> button to continue.</p>","0","custom-html-button-response","2","34231","0.0-2.0-0.0","304","1","2025-07-31 06:33:42","1f75c3e559b7213887762d5229550c2b","197.184.109.79","Mozilla/5.0 (Windows NT 10.0; Win64; x64) AppleWebKit/537.36 (KHTML, like Gecko) Chrome/138.0.0.0 Safari/537.36","WebKit","Chrome","138.0.0.0","Windows","10.0","https://app.prolific.com/","en-US,en;q=0.9","67eaee55a9b4d89e82b8df37","6877631c9844ddd5501205fc","688b0e24ea2bfd0ebd3ebc73","3","1","67eaee55a9b4d89e82b8df37","3","1","2025-07-31T06:34:38.985Z","","","","","","","","","","","","","","","","","","","","","","","","","","","","","","","","","","","","","","","","","",""
"118745.59999990463","","","","survey-template","3","153142","0.0-2.0-1.0","304","1","2025-07-31 06:33:42","1f75c3e559b7213887762d5229550c2b","197.184.109.79","Mozilla/5.0 (Windows NT 10.0; Win64; x64) AppleWebKit/537.36 (KHTML, like Gecko) Chrome/138.0.0.0 Safari/537.36","WebKit","Chrome","138.0.0.0","Windows","10.0","https://app.prolific.com/","en-US,en;q=0.9","67eaee55a9b4d89e82b8df37","6877631c9844ddd5501205fc","688b0e24ea2bfd0ebd3ebc73","3","1","67eaee55a9b4d89e82b8df37","3","1","2025-07-31T06:36:37.895Z","","{""Q01"":""0"",""Q02"":""0"",""Q03"":""1"",""Q04"":""0"",""Q05"":""1"",""Q06"":""0"",""Q07"":""1"",""Q08"":""0"",""Q09"":""0"",""Q10"":""1"",""Q11"":""1"",""Q12"":""0"",""Q13"":""5"",""Q14"":""0"",""Q15"":""1"",""Q16"":""0"",""Q17"":""0"",""Q18"":""1"",""Q19"":""0"",""Q20"":""0"",""Q21"":""1"",""Q22"":""0""}","[0,1,2,3,4,5,6,7,8,9,10,11,12,13,14,15,16,17,18,19,20,21]","[""Q01"",""Q02"",""Q01"",""Q03"",""Q04"",""Q05"",""Q06"",""Q07"",""Q08"",""Q09"",""Q10"",""Q12"",""Q11"",""Q13"",""Q14"",""Q15"",""Q16"",""Q17"",""Q18"",""Q19"",""Q20"",""Q21"",""Q22""]","[23248.900000095367,28695.200000047684,31131.299999952316,38408.40000009537,40106.799999952316,41802.200000047684,43197.90000009537,44629.799999952316,51853.90000009537,52982.799999952316,54458.700000047684,60258.59999990463,61635.40000009537,82822.59999990463,85849.79999995232,87078.20000004768,88573.79999995232,94301.40000009537,95485.59999990463,97153.59999990463,103816.09999990463,104969.70000004768,106049.70000004768]","[]","[0.5999999046325684,23248.900000095367,28695.200000047684,30159.599999904633,31131.299999952316,38408.40000009537,40106.799999952316,41802.200000047684,43197.90000009537,44629.799999952316,47164,51853.90000009537,52982.799999952316,54458.700000047684,58909.59999990463,60258.59999990463,61635.40000009537,63214,82822.59999990463,85849.79999995232,87078.20000004768,88573.79999995232,90032.70000004768,94301.40000009537,95485.59999990463,97153.59999990463,98431.09999990463,99898.70000004768,103816.09999990463,104969.70000004768,106049.70000004768,107328.40000009537,112203.59999990463,118711.09999990463]","0.5909090909090909","0.7619047619047619","0","drsp","","","","","","","","","","","","","","","","","","","","","","","","","","","","","","",""
"9584","","","","survey-template","4","162766","0.0-2.0-2.0","304","1","2025-07-31 06:33:42","1f75c3e559b7213887762d5229550c2b","197.184.109.79","Mozilla/5.0 (Windows NT 10.0; Win64; x64) AppleWebKit/537.36 (KHTML, like Gecko) Chrome/138.0.0.0 Safari/537.36","WebKit","Chrome","138.0.0.0","Windows","10.0","https://app.prolific.com/","en-US,en;q=0.9","67eaee55a9b4d89e82b8df37","6877631c9844ddd5501205fc","688b0e24ea2bfd0ebd3ebc73","3","1","67eaee55a9b4d89e82b8df37","3","1","2025-07-31T06:36:47.518Z","","{""Q01"":""1"",""Q02"":""4"",""Q03"":""0""}","[0,1,2]","[""Q01"",""Q02"",""Q03""]","[2570.0999999046326,6774.400000095367,8030.5]","[]","[2570.0999999046326,3808.7000000476837,6774.400000095367,8030.5,9571.099999904633]","0.6666666666666666","0.5","0","stress","","","","","","","","","","","","","","","","","","","","","","","","","","","","","","",""
"49284","","","","instructions","5","212056","0.0-3.0-0.0","304","1","2025-07-31 06:33:42","1f75c3e559b7213887762d5229550c2b","197.184.109.79","Mozilla/5.0 (Windows NT 10.0; Win64; x64) AppleWebKit/537.36 (KHTML, like Gecko) Chrome/138.0.0.0 Safari/537.36","WebKit","Chrome","138.0.0.0","Windows","10.0","https://app.prolific.com/","en-US,en;q=0.9","67eaee55a9b4d89e82b8df37","6877631c9844ddd5501205fc","688b0e24ea2bfd0ebd3ebc73","3","1","67eaee55a9b4d89e82b8df37","3","1","","","","","","","","","","","","","[{""page_index"":0,""viewing_time"":49281}]","","","","","","","","","","","","","","","","","","","","","","","","","","","","","",""
"22105","","<p>Before you start with this game please answer the following three questions yourself. </p>
  <p>Through this game, we measure several aspects of your cognitive performance, such as reaction times, multi-tasking capabilities </p>
  <p>and the ability to assess the situation you are in.</p>
  <p></p>
  <p><b>How good do you usually are in such tasks?</b></p>","91","html-slider-response","6","234483","0.0-4.0-0.0","304","1","2025-07-31 06:33:42","1f75c3e559b7213887762d5229550c2b","197.184.109.79","Mozilla/5.0 (Windows NT 10.0; Win64; x64) AppleWebKit/537.36 (KHTML, like Gecko) Chrome/138.0.0.0 Safari/537.36","WebKit","Chrome","138.0.0.0","Windows","10.0","https://app.prolific.com/","en-US,en;q=0.9","67eaee55a9b4d89e82b8df37","6877631c9844ddd5501205fc","688b0e24ea2bfd0ebd3ebc73","3","1","67eaee55a9b4d89e82b8df37","3","1","2025-07-31T06:37:59.236Z","","","","","","","","","","","PreSkillQ","","50","","","","","","","","","","","","","","","","","","","","","","","","","","","","",""
"3857","","<div style=""width:500px;"">
  <p>How well do you think you will perform in this task compared to other participants?</p>
  </div>","83","html-slider-response","7","238349","0.0-4.0-1.0","304","1","2025-07-31 06:33:42","1f75c3e559b7213887762d5229550c2b","197.184.109.79","Mozilla/5.0 (Windows NT 10.0; Win64; x64) AppleWebKit/537.36 (KHTML, like Gecko) Chrome/138.0.0.0 Safari/537.36","WebKit","Chrome","138.0.0.0","Windows","10.0","https://app.prolific.com/","en-US,en;q=0.9","67eaee55a9b4d89e82b8df37","6877631c9844ddd5501205fc","688b0e24ea2bfd0ebd3ebc73","3","1","67eaee55a9b4d89e82b8df37","3","1","2025-07-31T06:38:03.102Z","","","","","","","","","","","PrePerfQ","","50","","","","","","","","","","","","","","","","","","","","","","","","","","","","",""
"18312","","<div style=""width:500px;"">
  <p>What best describes how you currently feel?</p>
  </div>","98","html-slider-response","8","256675","0.0-4.0-2.0","304","1","2025-07-31 06:33:42","1f75c3e559b7213887762d5229550c2b","197.184.109.79","Mozilla/5.0 (Windows NT 10.0; Win64; x64) AppleWebKit/537.36 (KHTML, like Gecko) Chrome/138.0.0.0 Safari/537.36","WebKit","Chrome","138.0.0.0","Windows","10.0","https://app.prolific.com/","en-US,en;q=0.9","67eaee55a9b4d89e82b8df37","6877631c9844ddd5501205fc","688b0e24ea2bfd0ebd3ebc73","3","1","67eaee55a9b4d89e82b8df37","3","1","2025-07-31T06:38:21.428Z","","","","","","","","","","","PreMotivationQ","","50","","","","","","","","","","","","","","","","","","","","","","","","","","","","",""
"","","","","ctl-task-cpt","9","294676","0.0-5.0-0.0","304","1","2025-07-31 06:33:42","1f75c3e559b7213887762d5229550c2b","197.184.109.79","Mozilla/5.0 (Windows NT 10.0; Win64; x64) AppleWebKit/537.36 (KHTML, like Gecko) Chrome/138.0.0.0 Safari/537.36","WebKit","Chrome","138.0.0.0","Windows","10.0","https://app.prolific.com/","en-US,en;q=0.9","67eaee55a9b4d89e82b8df37","6877631c9844ddd5501205fc","688b0e24ea2bfd0ebd3ebc73","3","1","67eaee55a9b4d89e82b8df37","3","1","2025-07-31T06:38:59.429Z","","","","","","","","","","","","","","win-only","1","g1:NE,g2:SW","1","1","0","275452.8","3141.1","8141.7","34847","1","4","4","6","2","-4","-5","0","0","0","4053.2","3000","-2375","[""down"",""left""]","{""num_key_presses"":6,""num_perfect"":5,""num_errors"":1,""num_randdir"":0,""num_randdir_good_moves"":0,""num_whilered"":0,""num_whileblue"":0,""num_blue"":1,""num_good_moves"":5}","[299.22232142857143,298.12857142857143,44.3,299.22232142857143,298.12857142857143,107.2,299.22232142857143,298.12857142857143,214.5,299.22232142857143,298.12857142857143,320.2,299.22232142857143,298.12857142857143,421.9,299.22232142857143,298.12857142857143,535.7,299.22232142857143,298.12857142857143,636.3,299.22232142857143,298.12857142857143,736.9,299.22232142857143,298.12857142857143,837,299.22232142857143,298.12857142857143,941.4,299.22232142857143,298.12857142857143,1047.8,299.22232142857143,298.12857142857143,1151,299.22232142857143,298.12857142857143,1253.4,299.22232142857143,298.12857142857143,1355.6,299.22232142857143,298.12857142857143,1455.8,299.22232142857143,298.12857142857143,1557.3,299.22232142857143,298.12857142857143,1663.3,299.22232142857143,298.12857142857143,1767,299.22232142857143,298.12857142857143,1868,299.22232142857143,298.12857142857143,1971.1,299.22232142857143,298.12857142857143,2073.1,299.22232142857143,298.12857142857143,2183,299.22232142857143,298.12857142857143,2285.8,299.22232142857143,298.12857142857143,2386.1,299.22232142857143,298.12857142857143,2489.9,299.22232142857143,298.12857142857143,2590.5,299.22232142857143,298.12857142857143,2690.9,299.22232142857143,298.12857142857143,2799.2,299.22232142857143,298.12857142857143,2899.2,299.22232142857143,298.12857142857143,3000.3,299.22232142857143,298.12857142857143,3100.5,285.22232142857143,300.12857142857143,3205.8,169.22232142857143,368.12857142857143,3305.9,106.22232142857143,460.12857142857143,3406.6,75.22232142857143,479.12857142857143,3508.7,69.22232142857143,503.12857142857143,3615.8,70.22232142857143,516.1285714285714,3718.6,61.222321428571426,542.1285714285714,3823.5,61.222321428571426,542.1285714285714,3990.9,61.222321428571426,542.1285714285714,4100.3,61.222321428571426,542.1285714285714,4201.4,61.222321428571426,542.1285714285714,4302.4,61.222321428571426,542.1285714285714,4406.8,61.222321428571426,542.1285714285714,4512,61.222321428571426,542.1285714285714,4621.4,61.222321428571426,542.1285714285714,4729,61.222321428571426,542.1285714285714,4836.3,61.222321428571426,542.1285714285714,4940.8]","[5049.6,5049.5,1000,0.1,4049.5,""smooth"",""down"",""down"",""good_move"",5103.8,51.3,2523.2,5052.7,-2472.1,""error"",""-"",""-"",""no_move"",11824.5,6720.5,1798.6,9567.5,458.5,""smooth"",""down"",""down"",""good_move"",14832.5,3007.8,2562.2,11824.7,445.6,""smooth"",""down"",""down"",""good_move"",18961.9,4129.4,3625.7,14832.6,503.7,""smooth"",""left"",""left"",""good_move"",22758.7,3691.6,1866.3,19067.4,1825.2,""smooth"",""left"",""left"",""good_move""]","",""
"3859","","<div style=""width:500px;"">
  <p>What determined the result of this run?</p>
  </div>","87","html-slider-response","10","298540","0.0-5.0-1.0","304","1","2025-07-31 06:33:42","1f75c3e559b7213887762d5229550c2b","197.184.109.79","Mozilla/5.0 (Windows NT 10.0; Win64; x64) AppleWebKit/537.36 (KHTML, like Gecko) Chrome/138.0.0.0 Safari/537.36","WebKit","Chrome","138.0.0.0","Windows","10.0","https://app.prolific.com/","en-US,en;q=0.9","67eaee55a9b4d89e82b8df37","6877631c9844ddd5501205fc","688b0e24ea2bfd0ebd3ebc73","3","1","67eaee55a9b4d89e82b8df37","3","1","2025-07-31T06:39:03.293Z","","","","","","","","","","","AttribQ","","50","","","","","","","","","","","","","","","","","","","","","","","","","","","","",""
"3561","","<div style=""width:500px;"">
  <p>How much control did you have over the ball?</p>
  </div>","83","html-slider-response","11","302107","0.0-5.0-2.0","304","1","2025-07-31 06:33:42","1f75c3e559b7213887762d5229550c2b","197.184.109.79","Mozilla/5.0 (Windows NT 10.0; Win64; x64) AppleWebKit/537.36 (KHTML, like Gecko) Chrome/138.0.0.0 Safari/537.36","WebKit","Chrome","138.0.0.0","Windows","10.0","https://app.prolific.com/","en-US,en;q=0.9","67eaee55a9b4d89e82b8df37","6877631c9844ddd5501205fc","688b0e24ea2bfd0ebd3ebc73","3","1","67eaee55a9b4d89e82b8df37","3","1","2025-07-31T06:39:06.860Z","","","","","","","","","","","ControlQ","","50","","","","","","","","","","","","","","","","","","","","","","","","","","","","",""
"6504","","<div style=""width:500px;"">
  <p>How would you describe your current emotional state?</p>
  </div>","17","html-slider-response","12","308629","0.0-5.0-3.0","304","1","2025-07-31 06:33:42","1f75c3e559b7213887762d5229550c2b","197.184.109.79","Mozilla/5.0 (Windows NT 10.0; Win64; x64) AppleWebKit/537.36 (KHTML, like Gecko) Chrome/138.0.0.0 Safari/537.36","WebKit","Chrome","138.0.0.0","Windows","10.0","https://app.prolific.com/","en-US,en;q=0.9","67eaee55a9b4d89e82b8df37","6877631c9844ddd5501205fc","688b0e24ea2bfd0ebd3ebc73","3","1","67eaee55a9b4d89e82b8df37","3","1","2025-07-31T06:39:13.383Z","","","","","","","","","","","StressQ","","50","","","","","","","","","","","","","","","","","","","","","","","","","","","","",""
"5291","","<div style=""width:500px;"">
  <p>What best describes how you currently feel?</p>
  </div>","83","html-slider-response","13","313934","0.0-5.0-4.0","304","1","2025-07-31 06:33:42","1f75c3e559b7213887762d5229550c2b","197.184.109.79","Mozilla/5.0 (Windows NT 10.0; Win64; x64) AppleWebKit/537.36 (KHTML, like Gecko) Chrome/138.0.0.0 Safari/537.36","WebKit","Chrome","138.0.0.0","Windows","10.0","https://app.prolific.com/","en-US,en;q=0.9","67eaee55a9b4d89e82b8df37","6877631c9844ddd5501205fc","688b0e24ea2bfd0ebd3ebc73","3","1","67eaee55a9b4d89e82b8df37","3","1","2025-07-31T06:39:18.686Z","","","","","","","","","","","MotivationQ","","50","","","","","","","","","","","","","","","","","","","","","","","","","","","","",""
"","","","","ctl-task-cpt","14","347157","0.0-5.0-0.1","304","1","2025-07-31 06:33:42","1f75c3e559b7213887762d5229550c2b","197.184.109.79","Mozilla/5.0 (Windows NT 10.0; Win64; x64) AppleWebKit/537.36 (KHTML, like Gecko) Chrome/138.0.0.0 Safari/537.36","WebKit","Chrome","138.0.0.0","Windows","10.0","https://app.prolific.com/","en-US,en;q=0.9","67eaee55a9b4d89e82b8df37","6877631c9844ddd5501205fc","688b0e24ea2bfd0ebd3ebc73","3","1","67eaee55a9b4d89e82b8df37","3","1","2025-07-31T06:39:51.909Z","","","","","","","","","","","","","","win-only","2","g1:SE,g2:NW","0.9","2","0","332570.6","1933.1","6935.4","30189.7","1","4","8","6","2","8","8","8","0","0.06060606060606061","1803.3","3000","535","[""left"",""up""]","{""num_key_presses"":8,""num_perfect"":7,""num_errors"":0,""num_randdir"":1,""num_randdir_good_moves"":0,""num_whilered"":0,""num_whileblue"":0,""num_blue"":1,""num_good_moves"":7}","[296.22232142857143,296.12857142857143,1.1,296.22232142857143,296.12857142857143,108.6,296.22232142857143,296.12857142857143,208.8,296.22232142857143,296.12857142857143,309.5,296.22232142857143,296.12857142857143,413.7,296.22232142857143,296.12857142857143,521,271.22232142857143,263.12857142857143,622.9,44.222321428571426,77.12857142857143,731.8,40.222321428571426,66.12857142857143,839.9,40.222321428571426,58.128571428571426,941.3,41.222321428571426,55.128571428571426,1044.3,74.22232142857143,111.12857142857143,1151.5,72.22232142857143,109.12857142857143,1264,72.22232142857143,109.12857142857143,1385.6,62.222321428571426,80.12857142857143,1487.9,61.222321428571426,78.12857142857143,1588.9,61.222321428571426,78.12857142857143,1692.8,61.222321428571426,77.12857142857143,1794.6,61.222321428571426,77.12857142857143,1900.4,61.222321428571426,77.12857142857143,2005.5,61.222321428571426,77.12857142857143,2106.2,61.222321428571426,77.12857142857143,2208.2,87.22232142857143,197.12857142857143,2316.6,80.22232142857143,646.1285714285714,2426.7,3.2223214285714263,683.1285714285714,2544.4,-2.7776785714285737,662.1285714285714,2653.4,-2.7776785714285737,662.1285714285714,2761,-2.7776785714285737,662.1285714285714,2861,36.222321428571426,553.1285714285714,2971.3,168.22232142857143,415.12857142857143,3075,135.22232142857143,511.12857142857143,3175.3,1.2223214285714263,615.1285714285714,3282.8,-42.777678571428574,583.1285714285714,3388,-42.777678571428574,583.1285714285714,3491.9,-42.777678571428574,583.1285714285714,3593.9,-42.777678571428574,583.1285714285714,3695.2,-42.777678571428574,583.1285714285714,3805.7,-42.777678571428574,583.1285714285714,3906.6,-42.777678571428574,583.1285714285714,4016.3,-42.777678571428574,583.1285714285714,4126.8,-42.777678571428574,583.1285714285714,4233.8,-42.777678571428574,583.1285714285714,4334.8,-42.777678571428574,583.1285714285714,4441.6,-42.777678571428574,583.1285714285714,4544.8,-42.777678571428574,583.1285714285714,4645,-42.777678571428574,583.1285714285714,4749.4,-42.777678571428574,583.1285714285714,4850.5,-42.777678571428574,583.1285714285714,4950.5]","[1460.3,1460.3,1000,0,460.3,""smooth"",""up"",""up"",""good_move"",3708.8,2243.8,1860.8,1465,383,""smooth"",""up"",""up"",""good_move"",6876.2,3162.3,2765.3,3714,397.1,""smooth"",""up"",""up"",""good_move"",10189.8,3306.7,2740,6883.2,566.7,""smooth"",""left"",""left"",""good_move"",13382.6,3188.7,2738.6,10194,450,""smooth"",""left"",""left"",""good_move"",15792.1,2380.8,1927.9,13411.3,452.9,""oops"",""left"",""right"",""bad_move"",20674.7,4879.1,2513,17761,400.8,""smooth"",""left"",""left"",""good_move"",23130.9,2451.6,1994.8,20679.4,456.8,""smooth"",""left"",""left"",""good_move""]","",""
"4324","","<div style=""width:500px;"">
  <p>What determined the result of this run?</p>
  </div>","96","html-slider-response","15","351493","0.0-5.0-1.1","304","1","2025-07-31 06:33:42","1f75c3e559b7213887762d5229550c2b","197.184.109.79","Mozilla/5.0 (Windows NT 10.0; Win64; x64) AppleWebKit/537.36 (KHTML, like Gecko) Chrome/138.0.0.0 Safari/537.36","WebKit","Chrome","138.0.0.0","Windows","10.0","https://app.prolific.com/","en-US,en;q=0.9","67eaee55a9b4d89e82b8df37","6877631c9844ddd5501205fc","688b0e24ea2bfd0ebd3ebc73","3","1","67eaee55a9b4d89e82b8df37","3","1","2025-07-31T06:39:56.250Z","","","","","","","","","","","AttribQ","","50","","","","","","","","","","","","","","","","","","","","","","","","","","","","",""
"3249","","<div style=""width:500px;"">
  <p>How much control did you have over the ball?</p>
  </div>","91","html-slider-response","16","354795","0.0-5.0-2.1","304","1","2025-07-31 06:33:42","1f75c3e559b7213887762d5229550c2b","197.184.109.79","Mozilla/5.0 (Windows NT 10.0; Win64; x64) AppleWebKit/537.36 (KHTML, like Gecko) Chrome/138.0.0.0 Safari/537.36","WebKit","Chrome","138.0.0.0","Windows","10.0","https://app.prolific.com/","en-US,en;q=0.9","67eaee55a9b4d89e82b8df37","6877631c9844ddd5501205fc","688b0e24ea2bfd0ebd3ebc73","3","1","67eaee55a9b4d89e82b8df37","3","1","2025-07-31T06:39:59.548Z","","","","","","","","","","","ControlQ","","50","","","","","","","","","","","","","","","","","","","","","","","","","","","","",""
"3595","","<div style=""width:500px;"">
  <p>How would you describe your current emotional state?</p>
  </div>","11","html-slider-response","17","358401","0.0-5.0-3.1","304","1","2025-07-31 06:33:42","1f75c3e559b7213887762d5229550c2b","197.184.109.79","Mozilla/5.0 (Windows NT 10.0; Win64; x64) AppleWebKit/537.36 (KHTML, like Gecko) Chrome/138.0.0.0 Safari/537.36","WebKit","Chrome","138.0.0.0","Windows","10.0","https://app.prolific.com/","en-US,en;q=0.9","67eaee55a9b4d89e82b8df37","6877631c9844ddd5501205fc","688b0e24ea2bfd0ebd3ebc73","3","1","67eaee55a9b4d89e82b8df37","3","1","2025-07-31T06:40:03.154Z","","","","","","","","","","","StressQ","","50","","","","","","","","","","","","","","","","","","","","","","","","","","","","",""
"3095","","<div style=""width:500px;"">
  <p>What best describes how you currently feel?</p>
  </div>","81","html-slider-response","18","361503","0.0-5.0-4.1","304","1","2025-07-31 06:33:42","1f75c3e559b7213887762d5229550c2b","197.184.109.79","Mozilla/5.0 (Windows NT 10.0; Win64; x64) AppleWebKit/537.36 (KHTML, like Gecko) Chrome/138.0.0.0 Safari/537.36","WebKit","Chrome","138.0.0.0","Windows","10.0","https://app.prolific.com/","en-US,en;q=0.9","67eaee55a9b4d89e82b8df37","6877631c9844ddd5501205fc","688b0e24ea2bfd0ebd3ebc73","3","1","67eaee55a9b4d89e82b8df37","3","1","2025-07-31T06:40:06.257Z","","","","","","","","","","","MotivationQ","","50","","","","","","","","","","","","","","","","","","","","","","","","","","","","",""
"","","","","ctl-task-cpt","19","394632","0.0-5.0-0.2","304","1","2025-07-31 06:33:42","1f75c3e559b7213887762d5229550c2b","197.184.109.79","Mozilla/5.0 (Windows NT 10.0; Win64; x64) AppleWebKit/537.36 (KHTML, like Gecko) Chrome/138.0.0.0 Safari/537.36","WebKit","Chrome","138.0.0.0","Windows","10.0","https://app.prolific.com/","en-US,en;q=0.9","67eaee55a9b4d89e82b8df37","6877631c9844ddd5501205fc","688b0e24ea2bfd0ebd3ebc73","3","1","67eaee55a9b4d89e82b8df37","3","1","2025-07-31T06:40:39.384Z","","","","","","","","","","","","","","win-only","3","g1:SW,g2:NE","0.8","3","0","380181.8","1535.1","6539.8","30055","1","4","8","6","2","8","7","15","8","0.11363636363636363","1644.4","3000","1470","[""up"",""right""]","{""num_key_presses"":6,""num_perfect"":5,""num_errors"":1,""num_randdir"":0,""num_randdir_good_moves"":0,""num_whilered"":0,""num_whileblue"":1,""num_blue"":3,""num_good_moves"":6}","[291.22232142857143,302.12857142857143,0.1,291.22232142857143,302.12857142857143,114.9,291.22232142857143,302.12857142857143,218,291.22232142857143,302.12857142857143,320.5,291.22232142857143,302.12857142857143,437.7,291.22232142857143,302.12857142857143,549,291.22232142857143,302.12857142857143,670.5,422.22232142857143,186.12857142857143,779.4,498.22232142857143,144.12857142857143,883.1,498.22232142857143,146.12857142857143,987.4,499.22232142857143,146.12857142857143,1099,536.2223214285714,95.12857142857143,1213.9,541.2223214285714,90.12857142857143,1316,541.2223214285714,90.12857142857143,1436.3,541.2223214285714,90.12857142857143,1536.5,541.2223214285714,90.12857142857143,1641.3,541.2223214285714,90.12857142857143,1746.3,541.2223214285714,90.12857142857143,1862.2,541.2223214285714,90.12857142857143,1971,541.2223214285714,90.12857142857143,2075.7,541.2223214285714,90.12857142857143,2175.7,520.2223214285714,124.12857142857143,2283.6,436.22232142857143,247.12857142857143,2383.8,406.22232142857143,288.12857142857143,2500.2,409.22232142857143,291.12857142857143,2618.1,414.22232142857143,293.12857142857143,2721.3,414.22232142857143,293.12857142857143,2824.2,414.22232142857143,293.12857142857143,2934.8,414.22232142857143,293.12857142857143,3036.1,414.22232142857143,293.12857142857143,3147.5,414.22232142857143,293.12857142857143,3254.2,414.22232142857143,293.12857142857143,3355.2,414.22232142857143,293.12857142857143,3457.3,414.22232142857143,293.12857142857143,3566.6,414.22232142857143,293.12857142857143,3669.9,414.22232142857143,293.12857142857143,3772.2,414.22232142857143,293.12857142857143,3873,414.22232142857143,293.12857142857143,3977.3,414.22232142857143,293.12857142857143,4091.4,414.22232142857143,293.12857142857143,4192.9,414.22232142857143,293.12857142857143,4293.2,414.22232142857143,293.12857142857143,4407.7,414.22232142857143,293.12857142857143,4519.9,414.22232142857143,293.12857142857143,4622.4,414.22232142857143,293.12857142857143,4723,414.22232142857143,293.12857142857143,4828.1,414.22232142857143,293.12857142857143,4930.9]","[1511.1,1511.1,1000,0,511.1,""smooth"",""right"",""right"",""good_move"",4039.2,2524.9,2018.3,1514.3,506.6,""smooth"",""right"",""right"",""good_move"",7580,3536.4,3101.2,4043.8,435.2,""while_blue"",""right"",""right"",""good_move"",10105.8,2523.1,2112.1,7582.7,411,""smooth"",""up"",""up"",""good_move"",16527.3,6418,2738.3,13232.5,556.5,""smooth"",""up"",""up"",""good_move"",23355.8,6827.6,2500.3,20415.5,440,""smooth"",""up"",""up"",""good_move""]","",""
"5118","","<div style=""width:500px;"">
  <p>What determined the result of this run?</p>
  </div>","83","html-slider-response","20","399753","0.0-5.0-1.2","304","1","2025-07-31 06:33:42","1f75c3e559b7213887762d5229550c2b","197.184.109.79","Mozilla/5.0 (Windows NT 10.0; Win64; x64) AppleWebKit/537.36 (KHTML, like Gecko) Chrome/138.0.0.0 Safari/537.36","WebKit","Chrome","138.0.0.0","Windows","10.0","https://app.prolific.com/","en-US,en;q=0.9","67eaee55a9b4d89e82b8df37","6877631c9844ddd5501205fc","688b0e24ea2bfd0ebd3ebc73","3","1","67eaee55a9b4d89e82b8df37","3","1","2025-07-31T06:40:44.506Z","","","","","","","","","","","AttribQ","","50","","","","","","","","","","","","","","","","","","","","","","","","","","","","",""
"2828","","<div style=""width:500px;"">
  <p>How much control did you have over the ball?</p>
  </div>","86","html-slider-response","21","402589","0.0-5.0-2.2","304","1","2025-07-31 06:33:42","1f75c3e559b7213887762d5229550c2b","197.184.109.79","Mozilla/5.0 (Windows NT 10.0; Win64; x64) AppleWebKit/537.36 (KHTML, like Gecko) Chrome/138.0.0.0 Safari/537.36","WebKit","Chrome","138.0.0.0","Windows","10.0","https://app.prolific.com/","en-US,en;q=0.9","67eaee55a9b4d89e82b8df37","6877631c9844ddd5501205fc","688b0e24ea2bfd0ebd3ebc73","3","1","67eaee55a9b4d89e82b8df37","3","1","2025-07-31T06:40:47.343Z","","","","","","","","","","","ControlQ","","50","","","","","","","","","","","","","","","","","","","","","","","","","","","","",""
"9408","","<div style=""width:500px;"">
  <p>How would you describe your current emotional state?</p>
  </div>","13","html-slider-response","22","412005","0.0-5.0-3.2","304","1","2025-07-31 06:33:42","1f75c3e559b7213887762d5229550c2b","197.184.109.79","Mozilla/5.0 (Windows NT 10.0; Win64; x64) AppleWebKit/537.36 (KHTML, like Gecko) Chrome/138.0.0.0 Safari/537.36","WebKit","Chrome","138.0.0.0","Windows","10.0","https://app.prolific.com/","en-US,en;q=0.9","67eaee55a9b4d89e82b8df37","6877631c9844ddd5501205fc","688b0e24ea2bfd0ebd3ebc73","3","1","67eaee55a9b4d89e82b8df37","3","1","2025-07-31T06:40:56.758Z","","","","","","","","","","","StressQ","","50","","","","","","","","","","","","","","","","","","","","","","","","","","","","",""
"3936","","<div style=""width:500px;"">
  <p>What best describes how you currently feel?</p>
  </div>","84","html-slider-response","23","415949","0.0-5.0-4.2","304","1","2025-07-31 06:33:42","1f75c3e559b7213887762d5229550c2b","197.184.109.79","Mozilla/5.0 (Windows NT 10.0; Win64; x64) AppleWebKit/537.36 (KHTML, like Gecko) Chrome/138.0.0.0 Safari/537.36","WebKit","Chrome","138.0.0.0","Windows","10.0","https://app.prolific.com/","en-US,en;q=0.9","67eaee55a9b4d89e82b8df37","6877631c9844ddd5501205fc","688b0e24ea2bfd0ebd3ebc73","3","1","67eaee55a9b4d89e82b8df37","3","1","2025-07-31T06:41:00.702Z","","","","","","","","","","","MotivationQ","","50","","","","","","","","","","","","","","","","","","","","","","","","","","","","",""
"","","","","ctl-task-cpt","24","457163","0.0-5.0-0.3","304","1","2025-07-31 06:33:42","1f75c3e559b7213887762d5229550c2b","197.184.109.79","Mozilla/5.0 (Windows NT 10.0; Win64; x64) AppleWebKit/537.36 (KHTML, like Gecko) Chrome/138.0.0.0 Safari/537.36","WebKit","Chrome","138.0.0.0","Windows","10.0","https://app.prolific.com/","en-US,en;q=0.9","67eaee55a9b4d89e82b8df37","6877631c9844ddd5501205fc","688b0e24ea2bfd0ebd3ebc73","3","1","67eaee55a9b4d89e82b8df37","3","1","2025-07-31T06:41:41.915Z","","","","","","","","","","","","","","win-only","1","g1:NE,g2:SW","0.7","4","0","434588.6","1980.1","6990.7","38193","1","4","4","6","2","4","4","19","15","0.14393939393939395","1836.1","3000","740","[""down"",""left""]","{""num_key_presses"":8,""num_perfect"":5,""num_errors"":0,""num_randdir"":3,""num_randdir_good_moves"":2,""num_whilered"":0,""num_whileblue"":0,""num_blue"":2,""num_good_moves"":7}","[289.22232142857143,294.12857142857143,10.1,289.22232142857143,294.12857142857143,105,289.22232142857143,294.12857142857143,208.9,289.22232142857143,294.12857142857143,313.4,289.22232142857143,294.12857142857143,416.9,289.22232142857143,294.12857142857143,517.7,289.22232142857143,294.12857142857143,619.3,289.22232142857143,294.12857142857143,730.7,289.22232142857143,294.12857142857143,830.9,225.22232142857143,295.12857142857143,941.2,27.222321428571426,442.12857142857143,1045.1,-51.777678571428574,572.1285714285714,1152.9,-51.777678571428574,574.1285714285714,1256.3,3.2223214285714263,559.1285714285714,1368.9,90.22232142857143,552.1285714285714,1471.8,97.22232142857143,550.1285714285714,1576.1,97.22232142857143,550.1285714285714,1676.9,97.22232142857143,550.1285714285714,1780,93.22232142857143,550.1285714285714,1900.6,81.22232142857143,545.1285714285714,2018.7,70.22232142857143,541.1285714285714,2129.4,70.22232142857143,541.1285714285714,2231,70.22232142857143,541.1285714285714,2333,70.22232142857143,541.1285714285714,2434.3,70.22232142857143,541.1285714285714,2538.7,70.22232142857143,541.1285714285714,2642.4,70.22232142857143,541.1285714285714,2747.2,70.22232142857143,541.1285714285714,2859.2,70.22232142857143,541.1285714285714,2973,70.22232142857143,541.1285714285714,3077.2,70.22232142857143,541.1285714285714,3201.2,89.22232142857143,560.1285714285714,3310.8,193.22232142857143,662.1285714285714,3417.5,194.22232142857143,663.1285714285714,3531.3,194.22232142857143,663.1285714285714,3636.2,194.22232142857143,663.1285714285714,3737,194.22232142857143,663.1285714285714,3842.4,194.22232142857143,663.1285714285714,3942.8,194.22232142857143,663.1285714285714,4044,194.22232142857143,663.1285714285714,4147.5,194.22232142857143,663.1285714285714,4249,194.22232142857143,663.1285714285714,4359,194.22232142857143,663.1285714285714,4460.9,194.22232142857143,663.1285714285714,4569.8,194.22232142857143,663.1285714285714,4687.1,194.22232142857143,663.1285714285714,4787.2,194.22232142857143,663.1285714285714,4896.6,194.22232142857143,663.1285714285714,4999.3]","[1493,1493,1000,0,493,""smooth"",""down"",""down"",""good_move"",4555.9,3047,2349,1508.9,698,""smooth"",""down"",""down"",""good_move"",7856.9,3297.7,2787.5,4559.2,510.2,""oops"",""down"",""left"",""good_move"",11187.1,3313.5,2642.2,7873.7,671.3,""smooth"",""down"",""down"",""good_move"",17695.2,6504.8,2617.6,14540.5,537.1,""oops"",""left"",""right"",""bad_move"",21008.7,3312.1,2684.8,17697.4,627.3,""smooth"",""left"",""left"",""good_move"",24408.6,3395.7,2873.6,21013,522,""oops"",""left"",""left"",""good_move"",30997.5,6586,2649.4,27549.2,798.9,""smooth"",""left"",""left"",""good_move""]","",""
"7296","","<div style=""width:500px;"">
  <p>What determined the result of this run?</p>
  </div>","82","html-slider-response","25","464465","0.0-5.0-1.3","304","1","2025-07-31 06:33:42","1f75c3e559b7213887762d5229550c2b","197.184.109.79","Mozilla/5.0 (Windows NT 10.0; Win64; x64) AppleWebKit/537.36 (KHTML, like Gecko) Chrome/138.0.0.0 Safari/537.36","WebKit","Chrome","138.0.0.0","Windows","10.0","https://app.prolific.com/","en-US,en;q=0.9","67eaee55a9b4d89e82b8df37","6877631c9844ddd5501205fc","688b0e24ea2bfd0ebd3ebc73","3","1","67eaee55a9b4d89e82b8df37","3","1","2025-07-31T06:41:49.217Z","","","","","","","","","","","AttribQ","","50","","","","","","","","","","","","","","","","","","","","","","","","","","","","",""
"4139","","<div style=""width:500px;"">
  <p>How much control did you have over the ball?</p>
  </div>","72","html-slider-response","26","468611","0.0-5.0-2.3","304","1","2025-07-31 06:33:42","1f75c3e559b7213887762d5229550c2b","197.184.109.79","Mozilla/5.0 (Windows NT 10.0; Win64; x64) AppleWebKit/537.36 (KHTML, like Gecko) Chrome/138.0.0.0 Safari/537.36","WebKit","Chrome","138.0.0.0","Windows","10.0","https://app.prolific.com/","en-US,en;q=0.9","67eaee55a9b4d89e82b8df37","6877631c9844ddd5501205fc","688b0e24ea2bfd0ebd3ebc73","3","1","67eaee55a9b4d89e82b8df37","3","1","2025-07-31T06:41:53.364Z","","","","","","","","","","","ControlQ","","50","","","","","","","","","","","","","","","","","","","","","","","","","","","","",""
"4965","","<div style=""width:500px;"">
  <p>How would you describe your current emotional state?</p>
  </div>","12","html-slider-response","27","473582","0.0-5.0-3.3","304","1","2025-07-31 06:33:42","1f75c3e559b7213887762d5229550c2b","197.184.109.79","Mozilla/5.0 (Windows NT 10.0; Win64; x64) AppleWebKit/537.36 (KHTML, like Gecko) Chrome/138.0.0.0 Safari/537.36","WebKit","Chrome","138.0.0.0","Windows","10.0","https://app.prolific.com/","en-US,en;q=0.9","67eaee55a9b4d89e82b8df37","6877631c9844ddd5501205fc","688b0e24ea2bfd0ebd3ebc73","3","1","67eaee55a9b4d89e82b8df37","3","1","2025-07-31T06:41:58.334Z","","","","","","","","","","","StressQ","","50","","","","","","","","","","","","","","","","","","","","","","","","","","","","",""
"3574","","<div style=""width:500px;"">
  <p>What best describes how you currently feel?</p>
  </div>","80","html-slider-response","28","477164","0.0-5.0-4.3","304","1","2025-07-31 06:33:42","1f75c3e559b7213887762d5229550c2b","197.184.109.79","Mozilla/5.0 (Windows NT 10.0; Win64; x64) AppleWebKit/537.36 (KHTML, like Gecko) Chrome/138.0.0.0 Safari/537.36","WebKit","Chrome","138.0.0.0","Windows","10.0","https://app.prolific.com/","en-US,en;q=0.9","67eaee55a9b4d89e82b8df37","6877631c9844ddd5501205fc","688b0e24ea2bfd0ebd3ebc73","3","1","67eaee55a9b4d89e82b8df37","3","1","2025-07-31T06:42:01.916Z","","","","","","","","","","","MotivationQ","","50","","","","","","","","","","","","","","","","","","","","","","","","","","","","",""
"","","","","ctl-task-cpt","29","526362","0.0-5.0-0.4","304","1","2025-07-31 06:33:42","1f75c3e559b7213887762d5229550c2b","197.184.109.79","Mozilla/5.0 (Windows NT 10.0; Win64; x64) AppleWebKit/537.36 (KHTML, like Gecko) Chrome/138.0.0.0 Safari/537.36","WebKit","Chrome","138.0.0.0","Windows","10.0","https://app.prolific.com/","en-US,en;q=0.9","67eaee55a9b4d89e82b8df37","6877631c9844ddd5501205fc","688b0e24ea2bfd0ebd3ebc73","3","1","67eaee55a9b4d89e82b8df37","3","1","2025-07-31T06:42:51.114Z","","","","","","","","","","","","","","win-only","1","g1:NE,g2:SW","0.6","5","0","495807","2150.5","7161.7","46162.6","1","4","8","6","2","8","8","27","19","0.20454545454545456","1765.9","3000","615","[""down"",""left""]","{""num_key_presses"":8,""num_perfect"":5,""num_errors"":0,""num_randdir"":3,""num_randdir_good_moves"":2,""num_whilered"":0,""num_whileblue"":0,""num_blue"":4,""num_good_moves"":7}","[295.22232142857143,298.12857142857143,1.1,295.22232142857143,298.12857142857143,113.7,295.22232142857143,298.12857142857143,227.1,295.22232142857143,298.12857142857143,337.2,295.22232142857143,298.12857142857143,441.5,295.22232142857143,298.12857142857143,542.2,295.22232142857143,298.12857142857143,652.4,295.22232142857143,298.12857142857143,756.4,265.22232142857143,296.12857142857143,864.5,118.22232142857143,395.12857142857143,975.3,64.22232142857143,461.12857142857143,1080.7,66.22232142857143,474.12857142857143,1189.2,71.22232142857143,512.1285714285714,1291,69.22232142857143,522.1285714285714,1398,55.222321428571426,523.1285714285714,1505.4,55.222321428571426,523.1285714285714,1605.7,55.222321428571426,523.1285714285714,1716.4,55.222321428571426,523.1285714285714,1821.7,55.222321428571426,523.1285714285714,1922.2,55.222321428571426,523.1285714285714,2033.4,55.222321428571426,523.1285714285714,2151.9,55.222321428571426,523.1285714285714,2254.7,55.222321428571426,523.1285714285714,2358.8,75.22232142857143,558.1285714285714,2461.1,84.22232142857143,598.1285714285714,2561.5,15.222321428571426,621.1285714285714,2668.6,-45.777678571428574,615.1285714285714,2772,-69.77767857142857,596.1285714285714,2889.1,-73.77767857142857,598.1285714285714,2994.3,-73.77767857142857,598.1285714285714,3105,-73.77767857142857,598.1285714285714,3206.7,-73.77767857142857,598.1285714285714,3308,-73.77767857142857,598.1285714285714,3416.5,-73.77767857142857,598.1285714285714,3519.9,-73.77767857142857,598.1285714285714,3621.3,-73.77767857142857,598.1285714285714,3727.9,-73.77767857142857,598.1285714285714,3828.1,-73.77767857142857,598.1285714285714,3939.3,-73.77767857142857,598.1285714285714,4047.7,-73.77767857142857,598.1285714285714,4151.3,-73.77767857142857,598.1285714285714,4259.3,-73.77767857142857,598.1285714285714,4365.4,-73.77767857142857,598.1285714285714,4474.5,-73.77767857142857,598.1285714285714,4583.6,-73.77767857142857,598.1285714285714,4687,-73.77767857142857,598.1285714285714,4811.6,-73.77767857142857,598.1285714285714,4920.1]","[1571.5,1571.5,1000,0,571.5,""smooth"",""down"",""down"",""good_move"",5391.7,3816.9,2810.8,1574.9,1006.1,""smooth"",""down"",""down"",""good_move"",8045.1,2653.1,1875.3,5392,777.8,""smooth"",""down"",""down"",""good_move"",15076.9,7026.6,2434.6,12001.1,641.2,""oops"",""left"",""up"",""bad_move"",21128.2,6047.9,1929.4,18737.1,461.7,""oops"",""left"",""left"",""good_move"",32430.6,11294.2,2852.4,29118.7,459.5,""smooth"",""left"",""left"",""good_move"",35918.8,3486.2,2399.4,32432.6,1086.8,""smooth"",""left"",""left"",""good_move"",38702.2,2779.2,2158.8,35923,620.4,""oops"",""down"",""down"",""good_move""]","",""
"5334","","<div style=""width:500px;"">
  <p>What determined the result of this run?</p>
  </div>","83","html-slider-response","30","531701","0.0-5.0-1.4","304","1","2025-07-31 06:33:42","1f75c3e559b7213887762d5229550c2b","197.184.109.79","Mozilla/5.0 (Windows NT 10.0; Win64; x64) AppleWebKit/537.36 (KHTML, like Gecko) Chrome/138.0.0.0 Safari/537.36","WebKit","Chrome","138.0.0.0","Windows","10.0","https://app.prolific.com/","en-US,en;q=0.9","67eaee55a9b4d89e82b8df37","6877631c9844ddd5501205fc","688b0e24ea2bfd0ebd3ebc73","3","1","67eaee55a9b4d89e82b8df37","3","1","2025-07-31T06:42:56.453Z","","","","","","","","","","","AttribQ","","50","","","","","","","","","","","","","","","","","","","","","","","","","","","","",""
"5326","","<div style=""width:500px;"">
  <p>How much control did you have over the ball?</p>
  </div>","83","html-slider-response","31","537033","0.0-5.0-2.4","304","1","2025-07-31 06:33:42","1f75c3e559b7213887762d5229550c2b","197.184.109.79","Mozilla/5.0 (Windows NT 10.0; Win64; x64) AppleWebKit/537.36 (KHTML, like Gecko) Chrome/138.0.0.0 Safari/537.36","WebKit","Chrome","138.0.0.0","Windows","10.0","https://app.prolific.com/","en-US,en;q=0.9","67eaee55a9b4d89e82b8df37","6877631c9844ddd5501205fc","688b0e24ea2bfd0ebd3ebc73","3","1","67eaee55a9b4d89e82b8df37","3","1","2025-07-31T06:43:01.786Z","","","","","","","","","","","ControlQ","","50","","","","","","","","","","","","","","","","","","","","","","","","","","","","",""
"5324","","<div style=""width:500px;"">
  <p>How would you describe your current emotional state?</p>
  </div>","19","html-slider-response","32","542365","0.0-5.0-3.4","304","1","2025-07-31 06:33:42","1f75c3e559b7213887762d5229550c2b","197.184.109.79","Mozilla/5.0 (Windows NT 10.0; Win64; x64) AppleWebKit/537.36 (KHTML, like Gecko) Chrome/138.0.0.0 Safari/537.36","WebKit","Chrome","138.0.0.0","Windows","10.0","https://app.prolific.com/","en-US,en;q=0.9","67eaee55a9b4d89e82b8df37","6877631c9844ddd5501205fc","688b0e24ea2bfd0ebd3ebc73","3","1","67eaee55a9b4d89e82b8df37","3","1","2025-07-31T06:43:07.118Z","","","","","","","","","","","StressQ","","50","","","","","","","","","","","","","","","","","","","","","","","","","","","","",""
"4215","","<div style=""width:500px;"">
  <p>What best describes how you currently feel?</p>
  </div>","83","html-slider-response","33","546587","0.0-5.0-4.4","304","1","2025-07-31 06:33:42","1f75c3e559b7213887762d5229550c2b","197.184.109.79","Mozilla/5.0 (Windows NT 10.0; Win64; x64) AppleWebKit/537.36 (KHTML, like Gecko) Chrome/138.0.0.0 Safari/537.36","WebKit","Chrome","138.0.0.0","Windows","10.0","https://app.prolific.com/","en-US,en;q=0.9","67eaee55a9b4d89e82b8df37","6877631c9844ddd5501205fc","688b0e24ea2bfd0ebd3ebc73","3","1","67eaee55a9b4d89e82b8df37","3","1","2025-07-31T06:43:11.340Z","","","","","","","","","","","MotivationQ","","50","","","","","","","","","","","","","","","","","","","","","","","","","","","","",""
"","","","","ctl-task-cpt","34","612711","0.0-5.0-0.5","304","1","2025-07-31 06:33:42","1f75c3e559b7213887762d5229550c2b","197.184.109.79","Mozilla/5.0 (Windows NT 10.0; Win64; x64) AppleWebKit/537.36 (KHTML, like Gecko) Chrome/138.0.0.0 Safari/537.36","WebKit","Chrome","138.0.0.0","Windows","10.0","https://app.prolific.com/","en-US,en;q=0.9","67eaee55a9b4d89e82b8df37","6877631c9844ddd5501205fc","688b0e24ea2bfd0ebd3ebc73","3","1","67eaee55a9b4d89e82b8df37","3","1","2025-07-31T06:44:17.464Z","","","","","","","","","","","","","","win-only","2","g1:SE,g2:NW","0.5","6","0","565225","1924.5","6939.2","63093.6","1","4","4","6","2","4","4","31","27","0.23484848484848486","1474.8","3000","125","[""left"",""up""]","{""num_key_presses"":12,""num_perfect"":7,""num_errors"":0,""num_randdir"":5,""num_randdir_good_moves"":2,""num_whilered"":0,""num_whileblue"":0,""num_blue"":5,""num_good_moves"":9}","[294.22232142857143,300.12857142857143,34.5,294.22232142857143,300.12857142857143,108,294.22232142857143,300.12857142857143,211.7,294.22232142857143,300.12857142857143,324.5,294.22232142857143,300.12857142857143,428.8,294.22232142857143,300.12857142857143,531.4,269.22232142857143,277.12857142857143,635.4,-9.777678571428574,6.128571428571426,741.6,-21.777678571428574,-2.8714285714285737,855.6,-6.777678571428574,14.128571428571426,958.3,17.222321428571426,38.128571428571426,1070.4,27.222321428571426,45.128571428571426,1171.7,27.222321428571426,45.128571428571426,1282,27.222321428571426,45.128571428571426,1390,27.222321428571426,45.128571428571426,1500.5,27.222321428571426,45.128571428571426,1600.9,27.222321428571426,45.128571428571426,1707,27.222321428571426,45.128571428571426,1818,27.222321428571426,45.128571428571426,1929,27.222321428571426,45.128571428571426,2041.4,89.22232142857143,151.12857142857143,2143.2,-14.777678571428574,412.12857142857143,2314.9,-14.777678571428574,412.12857142857143,2417.5,-14.777678571428574,412.12857142857143,2530,-14.777678571428574,412.12857142857143,2630,-14.777678571428574,412.12857142857143,2730.6,-14.777678571428574,412.12857142857143,2834.3,-14.777678571428574,412.12857142857143,2941.3,-14.777678571428574,412.12857142857143,3060.3,-14.777678571428574,412.12857142857143,3178.3,-14.777678571428574,412.12857142857143,3291.6,-14.777678571428574,412.12857142857143,3397.7,-14.777678571428574,412.12857142857143,3513.2,-14.777678571428574,412.12857142857143,3622.8,-14.777678571428574,412.12857142857143,3732.8,-14.777678571428574,412.12857142857143,3840.9,-14.777678571428574,412.12857142857143,3945.7,-14.777678571428574,412.12857142857143,4050,-14.777678571428574,412.12857142857143,4154.4,-14.777678571428574,412.12857142857143,4266.1,-14.777678571428574,412.12857142857143,4374.6,-14.777678571428574,412.12857142857143,4481.1,-14.777678571428574,412.12857142857143,4586.2,-14.777678571428574,412.12857142857143,4701.1,-14.777678571428574,412.12857142857143,4807.5,-14.777678571428574,412.12857142857143,4911.4]","[5031.3,5031.5,2502.3,2021.5,507.7,""oops"",""up"",""up"",""good_move"",7689,2653.3,2162.4,5035.7,491,""smooth"",""up"",""up"",""good_move"",10777.4,3081.4,2014.3,7696.1,1067.1,""smooth"",""up"",""up"",""good_move"",17479.7,6700,2814,14196.3,469.4,""oops"",""left"",""right"",""bad_move"",21788.8,4304.1,2897.5,17484.7,1406.6,""smooth"",""left"",""left"",""good_move"",32085.4,10283.1,2516.5,29134.1,434.8,""smooth"",""left"",""left"",""good_move"",38273.1,6185.5,2379.8,35333.2,560.1,""smooth"",""left"",""left"",""good_move"",41835.2,3559.1,3072.2,38276.2,487.2,""oops"",""left"",""right"",""bad_move"",45188.2,3347,2674.6,41841.3,672.5,""oops"",""left"",""left"",""good_move"",49142.8,3951.4,2660.4,45191.6,1290.9,""oops"",""left"",""right"",""bad_move"",53059.8,3914.4,3047.8,49145.4,866.6,""smooth"",""left"",""left"",""good_move"",55898.2,2833.2,2253.4,53065.2,579.7,""smooth"",""left"",""left"",""good_move""]","",""
"3839","","<div style=""width:500px;"">
  <p>What determined the result of this run?</p>
  </div>","88","html-slider-response","35","616559","0.0-5.0-1.5","304","1","2025-07-31 06:33:42","1f75c3e559b7213887762d5229550c2b","197.184.109.79","Mozilla/5.0 (Windows NT 10.0; Win64; x64) AppleWebKit/537.36 (KHTML, like Gecko) Chrome/138.0.0.0 Safari/537.36","WebKit","Chrome","138.0.0.0","Windows","10.0","https://app.prolific.com/","en-US,en;q=0.9","67eaee55a9b4d89e82b8df37","6877631c9844ddd5501205fc","688b0e24ea2bfd0ebd3ebc73","3","1","67eaee55a9b4d89e82b8df37","3","1","2025-07-31T06:44:21.311Z","","","","","","","","","","","AttribQ","","50","","","","","","","","","","","","","","","","","","","","","","","","","","","","",""
"3522","","<div style=""width:500px;"">
  <p>How much control did you have over the ball?</p>
  </div>","83","html-slider-response","36","620088","0.0-5.0-2.5","304","1","2025-07-31 06:33:42","1f75c3e559b7213887762d5229550c2b","197.184.109.79","Mozilla/5.0 (Windows NT 10.0; Win64; x64) AppleWebKit/537.36 (KHTML, like Gecko) Chrome/138.0.0.0 Safari/537.36","WebKit","Chrome","138.0.0.0","Windows","10.0","https://app.prolific.com/","en-US,en;q=0.9","67eaee55a9b4d89e82b8df37","6877631c9844ddd5501205fc","688b0e24ea2bfd0ebd3ebc73","3","1","67eaee55a9b4d89e82b8df37","3","1","2025-07-31T06:44:24.841Z","","","","","","","","","","","ControlQ","","50","","","","","","","","","","","","","","","","","","","","","","","","","","","","",""
"4718","","<div style=""width:500px;"">
  <p>How would you describe your current emotional state?</p>
  </div>","7","html-slider-response","37","624816","0.0-5.0-3.5","304","1","2025-07-31 06:33:42","1f75c3e559b7213887762d5229550c2b","197.184.109.79","Mozilla/5.0 (Windows NT 10.0; Win64; x64) AppleWebKit/537.36 (KHTML, like Gecko) Chrome/138.0.0.0 Safari/537.36","WebKit","Chrome","138.0.0.0","Windows","10.0","https://app.prolific.com/","en-US,en;q=0.9","67eaee55a9b4d89e82b8df37","6877631c9844ddd5501205fc","688b0e24ea2bfd0ebd3ebc73","3","1","67eaee55a9b4d89e82b8df37","3","1","2025-07-31T06:44:29.569Z","","","","","","","","","","","StressQ","","50","","","","","","","","","","","","","","","","","","","","","","","","","","","","",""
"3725","","<div style=""width:500px;"">
  <p>What best describes how you currently feel?</p>
  </div>","84","html-slider-response","38","628546","0.0-5.0-4.5","304","1","2025-07-31 06:33:42","1f75c3e559b7213887762d5229550c2b","197.184.109.79","Mozilla/5.0 (Windows NT 10.0; Win64; x64) AppleWebKit/537.36 (KHTML, like Gecko) Chrome/138.0.0.0 Safari/537.36","WebKit","Chrome","138.0.0.0","Windows","10.0","https://app.prolific.com/","en-US,en;q=0.9","67eaee55a9b4d89e82b8df37","6877631c9844ddd5501205fc","688b0e24ea2bfd0ebd3ebc73","3","1","67eaee55a9b4d89e82b8df37","3","1","2025-07-31T06:44:33.300Z","","","","","","","","","","","MotivationQ","","50","","","","","","","","","","","","","","","","","","","","","","","","","","","","",""
"","","","","ctl-task-cpt","39","705645","0.0-5.0-0.6","304","1","2025-07-31 06:33:42","1f75c3e559b7213887762d5229550c2b","197.184.109.79","Mozilla/5.0 (Windows NT 10.0; Win64; x64) AppleWebKit/537.36 (KHTML, like Gecko) Chrome/138.0.0.0 Safari/537.36","WebKit","Chrome","138.0.0.0","Windows","10.0","https://app.prolific.com/","en-US,en;q=0.9","67eaee55a9b4d89e82b8df37","6877631c9844ddd5501205fc","688b0e24ea2bfd0ebd3ebc73","3","1","67eaee55a9b4d89e82b8df37","3","1","2025-07-31T06:45:50.397Z","","","","","","","","","","","","","","win-only","1","g1:NE,g2:SW","0.4","7","0","647188.7","2253.7","7255.8","74059.3","1","4","8","6","2","-8","-8","23","31","0.17424242424242425","1751.9","3000","-820","[""down"",""left""]","{""num_key_presses"":16,""num_perfect"":6,""num_errors"":0,""num_randdir"":10,""num_randdir_good_moves"":4,""num_whilered"":0,""num_whileblue"":0,""num_blue"":3,""num_good_moves"":10}","[297.22232142857143,296.12857142857143,1.3,297.22232142857143,296.12857142857143,123.4,297.22232142857143,296.12857142857143,238.6,297.22232142857143,296.12857142857143,349.1,297.22232142857143,296.12857142857143,457.2,297.22232142857143,296.12857142857143,592.8,297.22232142857143,296.12857142857143,694.7,297.22232142857143,296.12857142857143,806.6,262.22232142857143,319.12857142857143,909.6,135.22232142857143,445.12857142857143,1023.1,122.22232142857143,461.12857142857143,1126,122.22232142857143,461.12857142857143,1231.4,85.22232142857143,480.12857142857143,1335.5,72.22232142857143,506.12857142857143,1439.1,71.22232142857143,512.1285714285714,1553.6,71.22232142857143,512.1285714285714,1654.3,71.22232142857143,512.1285714285714,1756.3,71.22232142857143,512.1285714285714,1866.2,71.22232142857143,512.1285714285714,1985.8,71.22232142857143,512.1285714285714,2090.7,71.22232142857143,512.1285714285714,2198.8,71.22232142857143,512.1285714285714,2310.4,71.22232142857143,512.1285714285714,2426,73.22232142857143,489.12857142857143,2528.2,90.22232142857143,422.12857142857143,2644.9,130.22232142857143,353.12857142857143,2752,135.22232142857143,346.12857142857143,2863.5,135.22232142857143,346.12857142857143,2966.6,135.22232142857143,346.12857142857143,3076.5,135.22232142857143,346.12857142857143,3187.2,135.22232142857143,346.12857142857143,3301,135.22232142857143,346.12857142857143,3417.1,135.22232142857143,346.12857142857143,3518,135.22232142857143,346.12857142857143,3629.4,135.22232142857143,346.12857142857143,3732.6,135.22232142857143,346.12857142857143,3841.7,135.22232142857143,346.12857142857143,3955.7,135.22232142857143,346.12857142857143,4058.1,135.22232142857143,346.12857142857143,4177.7,135.22232142857143,346.12857142857143,4278.1,135.22232142857143,346.12857142857143,4378.1,135.22232142857143,346.12857142857143,4490.3,135.22232142857143,346.12857142857143,4592.3,135.22232142857143,346.12857142857143,4702.4,135.22232142857143,346.12857142857143,4816.5,135.22232142857143,346.12857142857143,4923.7]","[1559.6,1559.6,1000,0,559.6,""smooth"",""down"",""down"",""good_move"",8816,7251.2,2468.5,5850.2,497.3,""smooth"",""down"",""down"",""good_move"",15728.1,6904.6,3233.8,11855.7,638.6,""oops"",""down"",""up"",""bad_move"",19655.6,3918.5,3210,15737.2,708.4,""oops"",""down"",""right"",""bad_move"",22604.7,2907.3,2396.7,19697.4,510.6,""oops"",""down"",""down"",""good_move"",25410.6,2800.6,2107.4,22610,693.2,""smooth"",""down"",""down"",""good_move"",29013.2,3597.8,3114.9,25415.5,482.9,""oops"",""left"",""left"",""good_move"",32414,3397.2,2672.1,29017,725,""oops"",""left"",""up"",""bad_move"",36344.2,3928,2492.4,32416.3,1435.5,""oops"",""left"",""up"",""bad_move"",39906.3,3531.1,2816.6,36375.2,714.5,""smooth"",""left"",""left"",""good_move"",43830.3,3920.7,2937.5,39909.6,983.2,""oops"",""left"",""down"",""good_move"",50286.3,6450.1,2696.2,46948.6,641.6,""oops"",""left"",""left"",""good_move"",54082.5,3789.5,2691.1,50293.1,1098.3,""smooth"",""left"",""left"",""good_move"",57516.6,3430.1,2881.8,54086.5,548.3,""oops"",""down"",""up"",""bad_move"",61119.5,3599.5,2374.8,57520.1,1224.7,""smooth"",""down"",""down"",""good_move"",63740.3,2610.3,2014.6,61130,595.7,""oops"",""down"",""right"",""bad_move""]","",""
"5719","","<div style=""width:500px;"">
  <p>What determined the result of this run?</p>
  </div>","83","html-slider-response","40","711370","0.0-5.0-1.6","304","1","2025-07-31 06:33:42","1f75c3e559b7213887762d5229550c2b","197.184.109.79","Mozilla/5.0 (Windows NT 10.0; Win64; x64) AppleWebKit/537.36 (KHTML, like Gecko) Chrome/138.0.0.0 Safari/537.36","WebKit","Chrome","138.0.0.0","Windows","10.0","https://app.prolific.com/","en-US,en;q=0.9","67eaee55a9b4d89e82b8df37","6877631c9844ddd5501205fc","688b0e24ea2bfd0ebd3ebc73","3","1","67eaee55a9b4d89e82b8df37","3","1","2025-07-31T06:45:56.122Z","","","","","","","","","","","AttribQ","","50","","","","","","","","","","","","","","","","","","","","","","","","","","","","",""
"3531","","<div style=""width:500px;"">
  <p>How much control did you have over the ball?</p>
  </div>","78","html-slider-response","41","714907","0.0-5.0-2.6","304","1","2025-07-31 06:33:42","1f75c3e559b7213887762d5229550c2b","197.184.109.79","Mozilla/5.0 (Windows NT 10.0; Win64; x64) AppleWebKit/537.36 (KHTML, like Gecko) Chrome/138.0.0.0 Safari/537.36","WebKit","Chrome","138.0.0.0","Windows","10.0","https://app.prolific.com/","en-US,en;q=0.9","67eaee55a9b4d89e82b8df37","6877631c9844ddd5501205fc","688b0e24ea2bfd0ebd3ebc73","3","1","67eaee55a9b4d89e82b8df37","3","1","2025-07-31T06:45:59.659Z","","","","","","","","","","","ControlQ","","50","","","","","","","","","","","","","","","","","","","","","","","","","","","","",""
"3856","","<div style=""width:500px;"">
  <p>How would you describe your current emotional state?</p>
  </div>","5","html-slider-response","42","718767","0.0-5.0-3.6","304","1","2025-07-31 06:33:42","1f75c3e559b7213887762d5229550c2b","197.184.109.79","Mozilla/5.0 (Windows NT 10.0; Win64; x64) AppleWebKit/537.36 (KHTML, like Gecko) Chrome/138.0.0.0 Safari/537.36","WebKit","Chrome","138.0.0.0","Windows","10.0","https://app.prolific.com/","en-US,en;q=0.9","67eaee55a9b4d89e82b8df37","6877631c9844ddd5501205fc","688b0e24ea2bfd0ebd3ebc73","3","1","67eaee55a9b4d89e82b8df37","3","1","2025-07-31T06:46:03.520Z","","","","","","","","","","","StressQ","","50","","","","","","","","","","","","","","","","","","","","","","","","","","","","",""
"3338","","<div style=""width:500px;"">
  <p>What best describes how you currently feel?</p>
  </div>","84","html-slider-response","43","722111","0.0-5.0-4.6","304","1","2025-07-31 06:33:42","1f75c3e559b7213887762d5229550c2b","197.184.109.79","Mozilla/5.0 (Windows NT 10.0; Win64; x64) AppleWebKit/537.36 (KHTML, like Gecko) Chrome/138.0.0.0 Safari/537.36","WebKit","Chrome","138.0.0.0","Windows","10.0","https://app.prolific.com/","en-US,en;q=0.9","67eaee55a9b4d89e82b8df37","6877631c9844ddd5501205fc","688b0e24ea2bfd0ebd3ebc73","3","1","67eaee55a9b4d89e82b8df37","3","1","2025-07-31T06:46:06.866Z","","","","","","","","","","","MotivationQ","","50","","","","","","","","","","","","","","","","","","","","","","","","","","","","",""
"","","","","ctl-task-cpt","44","794902","0.0-5.0-0.7","304","1","2025-07-31 06:33:42","1f75c3e559b7213887762d5229550c2b","197.184.109.79","Mozilla/5.0 (Windows NT 10.0; Win64; x64) AppleWebKit/537.36 (KHTML, like Gecko) Chrome/138.0.0.0 Safari/537.36","WebKit","Chrome","138.0.0.0","Windows","10.0","https://app.prolific.com/","en-US,en;q=0.9","67eaee55a9b4d89e82b8df37","6877631c9844ddd5501205fc","688b0e24ea2bfd0ebd3ebc73","3","1","67eaee55a9b4d89e82b8df37","3","1","2025-07-31T06:47:19.655Z","","","","","","","","","","","","","","win-only","3","g1:SW,g2:NE","0.3","8","0","740753.7","2008.5","7015.5","69750.2","1","4","4","6","2","4","4","27","23","0.20454545454545456","1376.8","3000","75","[""up"",""right""]","{""num_key_presses"":14,""num_perfect"":3,""num_errors"":0,""num_randdir"":11,""num_randdir_good_moves"":7,""num_whilered"":0,""num_whileblue"":0,""num_blue"":4,""num_good_moves"":10}","[291.22232142857143,296.12857142857143,24.3,291.22232142857143,296.12857142857143,109.6,291.22232142857143,296.12857142857143,223.9,291.22232142857143,296.12857142857143,326.7,291.22232142857143,296.12857142857143,451.6,291.22232142857143,296.12857142857143,562.5,358.22232142857143,219.12857142857143,673.4,553.2223214285714,84.12857142857143,777,571.2223214285714,82.12857142857143,886.4,560.2223214285714,84.12857142857143,993.9,546.2223214285714,77.12857142857143,1107,546.2223214285714,77.12857142857143,1226.5,546.2223214285714,77.12857142857143,1333.9,546.2223214285714,77.12857142857143,1439.7,546.2223214285714,77.12857142857143,1561,546.2223214285714,77.12857142857143,1684,546.2223214285714,77.12857142857143,1786,546.2223214285714,77.12857142857143,1888.2,546.2223214285714,77.12857142857143,1993.4,250.22232142857143,65.12857142857143,2106.3,205.22232142857143,88.12857142857143,2232.9,205.22232142857143,101.12857142857143,2346.1,205.22232142857143,101.12857142857143,2455,205.22232142857143,101.12857142857143,2563.1,205.22232142857143,101.12857142857143,2674.2,205.22232142857143,101.12857142857143,2786.7,205.22232142857143,101.12857142857143,2888.4,205.22232142857143,101.12857142857143,3005.8,205.22232142857143,101.12857142857143,3120.3,205.22232142857143,101.12857142857143,3232.5,205.22232142857143,101.12857142857143,3345.3,205.22232142857143,101.12857142857143,3457.2,205.22232142857143,101.12857142857143,3557.4,205.22232142857143,101.12857142857143,3668.7,205.22232142857143,101.12857142857143,3770.5,205.22232142857143,101.12857142857143,3872.1,205.22232142857143,101.12857142857143,4002.4,205.22232142857143,101.12857142857143,4107.6,205.22232142857143,101.12857142857143,4233.2,205.22232142857143,101.12857142857143,4354.2,205.22232142857143,101.12857142857143,4470.2,205.22232142857143,101.12857142857143,4598,205.22232142857143,101.12857142857143,4698.5,205.22232142857143,101.12857142857143,4804.2,205.22232142857143,101.12857142857143,4906.6]","[1572.4,1572.4,1000,0,572.4,""smooth"",""right"",""right"",""good_move"",8447.8,6872.2,2516.6,5347.3,584,""oops"",""right"",""right"",""good_move"",14907.7,6459.4,2639.7,11629.8,638.3,""smooth"",""right"",""right"",""good_move"",18680.5,3772.2,2874.4,14908.3,897.8,""smooth"",""up"",""up"",""good_move"",22486.5,3805.5,2655.5,18681.1,1150,""oops"",""up"",""left"",""bad_move"",26186.6,3699.1,2552.3,22487.6,1146.7,""oops"",""up"",""up"",""good_move"",29894.1,3707.4,2222.1,26186.7,1485.3,""oops"",""up"",""down"",""bad_move"",33273.3,3378.3,2138.1,29895,1240.2,""oops"",""up"",""right"",""good_move"",40461.8,7188,2438.8,37538.2,484.9,""oops"",""up"",""down"",""bad_move"",47477.7,7007.7,2226.9,44571.2,679.6,""oops"",""up"",""left"",""bad_move"",51495.8,4003.9,2093.8,47491.9,1910.2,""oops"",""up"",""up"",""good_move"",55116.1,3615.9,2828.5,51500.3,787.3,""oops"",""up"",""up"",""good_move"",58819.5,3699.9,2793.6,55119.6,906.3,""oops"",""up"",""right"",""good_move"",62380.4,3554.2,2973.1,58826.2,581.1,""oops"",""up"",""up"",""good_move""]","",""
"28337","","<div style=""width:500px;"">
  <p>What determined the result of this run?</p>
  </div>","86","html-slider-response","45","823242","0.0-5.0-1.7","304","1","2025-07-31 06:33:42","1f75c3e559b7213887762d5229550c2b","197.184.109.79","Mozilla/5.0 (Windows NT 10.0; Win64; x64) AppleWebKit/537.36 (KHTML, like Gecko) Chrome/138.0.0.0 Safari/537.36","WebKit","Chrome","138.0.0.0","Windows","10.0","https://app.prolific.com/","en-US,en;q=0.9","67eaee55a9b4d89e82b8df37","6877631c9844ddd5501205fc","688b0e24ea2bfd0ebd3ebc73","3","1","67eaee55a9b4d89e82b8df37","3","1","2025-07-31T06:47:47.995Z","","","","","","","","","","","AttribQ","","50","","","","","","","","","","","","","","","","","","","","","","","","","","","","",""
"6418","","<div style=""width:500px;"">
  <p>How much control did you have over the ball?</p>
  </div>","74","html-slider-response","46","829666","0.0-5.0-2.7","304","1","2025-07-31 06:33:42","1f75c3e559b7213887762d5229550c2b","197.184.109.79","Mozilla/5.0 (Windows NT 10.0; Win64; x64) AppleWebKit/537.36 (KHTML, like Gecko) Chrome/138.0.0.0 Safari/537.36","WebKit","Chrome","138.0.0.0","Windows","10.0","https://app.prolific.com/","en-US,en;q=0.9","67eaee55a9b4d89e82b8df37","6877631c9844ddd5501205fc","688b0e24ea2bfd0ebd3ebc73","3","1","67eaee55a9b4d89e82b8df37","3","1","2025-07-31T06:47:54.420Z","","","","","","","","","","","ControlQ","","50","","","","","","","","","","","","","","","","","","","","","","","","","","","","",""
"5316","","<div style=""width:500px;"">
  <p>How would you describe your current emotional state?</p>
  </div>","15","html-slider-response","47","835007","0.0-5.0-3.7","304","1","2025-07-31 06:33:42","1f75c3e559b7213887762d5229550c2b","197.184.109.79","Mozilla/5.0 (Windows NT 10.0; Win64; x64) AppleWebKit/537.36 (KHTML, like Gecko) Chrome/138.0.0.0 Safari/537.36","WebKit","Chrome","138.0.0.0","Windows","10.0","https://app.prolific.com/","en-US,en;q=0.9","67eaee55a9b4d89e82b8df37","6877631c9844ddd5501205fc","688b0e24ea2bfd0ebd3ebc73","3","1","67eaee55a9b4d89e82b8df37","3","1","2025-07-31T06:47:59.759Z","","","","","","","","","","","StressQ","","50","","","","","","","","","","","","","","","","","","","","","","","","","","","","",""
"5688","","<div style=""width:500px;"">
  <p>What best describes how you currently feel?</p>
  </div>","85","html-slider-response","48","840703","0.0-5.0-4.7","304","1","2025-07-31 06:33:42","1f75c3e559b7213887762d5229550c2b","197.184.109.79","Mozilla/5.0 (Windows NT 10.0; Win64; x64) AppleWebKit/537.36 (KHTML, like Gecko) Chrome/138.0.0.0 Safari/537.36","WebKit","Chrome","138.0.0.0","Windows","10.0","https://app.prolific.com/","en-US,en;q=0.9","67eaee55a9b4d89e82b8df37","6877631c9844ddd5501205fc","688b0e24ea2bfd0ebd3ebc73","3","1","67eaee55a9b4d89e82b8df37","3","1","2025-07-31T06:48:05.456Z","","","","","","","","","","","MotivationQ","","50","","","","","","","","","","","","","","","","","","","","","","","","","","","","",""
"","","","","ctl-task-cpt","49","926205","0.0-5.0-0.8","304","1","2025-07-31 06:33:42","1f75c3e559b7213887762d5229550c2b","197.184.109.79","Mozilla/5.0 (Windows NT 10.0; Win64; x64) AppleWebKit/537.36 (KHTML, like Gecko) Chrome/138.0.0.0 Safari/537.36","WebKit","Chrome","138.0.0.0","Windows","10.0","https://app.prolific.com/","en-US,en;q=0.9","67eaee55a9b4d89e82b8df37","6877631c9844ddd5501205fc","688b0e24ea2bfd0ebd3ebc73","3","1","67eaee55a9b4d89e82b8df37","3","1","2025-07-31T06:49:30.958Z","","","","","","","","","","","","","","win-only","1","g1:NE,g2:SW","0.2","9","0","859343.7","2765.8","7785.7","82468.3","1","4","8","6","2","-8","-8","19","27","0.14393939393939395","3034.7","3000","-775","[""down"",""left""]","{""num_key_presses"":17,""num_perfect"":2,""num_errors"":0,""num_randdir"":15,""num_randdir_good_moves"":7,""num_whilered"":0,""num_whileblue"":0,""num_blue"":3,""num_good_moves"":9}","[293.22232142857143,296.12857142857143,4.2,293.22232142857143,296.12857142857143,111.3,293.22232142857143,296.12857142857143,220,293.22232142857143,296.12857142857143,320.2,293.22232142857143,296.12857142857143,425.3,293.22232142857143,296.12857142857143,532.4,293.22232142857143,296.12857142857143,633.5,293.22232142857143,296.12857142857143,746.2,293.22232142857143,296.12857142857143,849.8,293.22232142857143,296.12857142857143,962.5,293.22232142857143,296.12857142857143,1071.9,293.22232142857143,296.12857142857143,1175.6,293.22232142857143,296.12857142857143,1281.9,293.22232142857143,296.12857142857143,1396.7,293.22232142857143,296.12857142857143,1500.3,235.22232142857143,332.12857142857143,1621.6,-25.777678571428574,594.1285714285714,1737.5,-34.777678571428574,610.1285714285714,1846.1,-34.777678571428574,610.1285714285714,1947.3,-34.777678571428574,609.1285714285714,2056.1,19.222321428571426,558.1285714285714,2172.5,65.22232142857143,549.1285714285714,2288.7,66.22232142857143,549.1285714285714,2399.1,66.22232142857143,549.1285714285714,2499.5,66.22232142857143,549.1285714285714,2602.6,66.22232142857143,549.1285714285714,2714.9,66.22232142857143,549.1285714285714,2815.9,66.22232142857143,549.1285714285714,2934.7,66.22232142857143,549.1285714285714,3040.8,66.22232142857143,549.1285714285714,3154,66.22232142857143,549.1285714285714,3254,66.22232142857143,549.1285714285714,3365.6,66.22232142857143,549.1285714285714,3467.9,66.22232142857143,549.1285714285714,3585.9,66.22232142857143,549.1285714285714,3699.1,66.22232142857143,549.1285714285714,3806.2,66.22232142857143,549.1285714285714,3917.6,66.22232142857143,549.1285714285714,4018.5,66.22232142857143,549.1285714285714,4124.5,66.22232142857143,549.1285714285714,4233.2,66.22232142857143,549.1285714285714,4338.9,66.22232142857143,549.1285714285714,4448.5,66.22232142857143,549.1285714285714,4549.1,66.22232142857143,549.1285714285714,4655.7,48.222321428571426,519.1285714285714,4775.2,61.222321428571426,395.12857142857143,4888.6,79.22232142857143,361.12857142857143,5000.4]","[5347.2,5347.2,2702.5,2016.3,628.4,""smooth"",""down"",""down"",""good_move"",8883.6,3534.5,2869.2,5349.1,665.3,""smooth"",""down"",""down"",""good_move"",12414.4,3530.7,3022.2,8883.7,508.5,""oops"",""down"",""down"",""good_move"",16253.9,3839.3,2693.3,12414.6,1146,""oops"",""left"",""up"",""bad_move"",21604.3,5349.8,2204.5,16254.5,3145.3,""oops"",""left"",""right"",""bad_move"",24579.2,2969.5,2425.6,21609.7,543.9,""oops"",""down"",""left"",""good_move"",32790.8,8207.7,3052.6,29150.6,587.6,""oops"",""left"",""right"",""bad_move"",35738.7,2943.5,2412,32795.2,531.5,""oops"",""down"",""right"",""bad_move"",38499.3,2757.8,2213.9,35741.5,543.9,""oops"",""down"",""down"",""good_move"",42063.5,3559.2,3095.6,38504.3,463.6,""oops"",""left"",""up"",""bad_move"",46042.7,3964.8,2114.1,42078,1850.7,""oops"",""left"",""down"",""good_move"",48299.9,2252,1682,46047.9,570,""oops"",""left"",""left"",""good_move"",52217.6,3913.3,3341.5,48304.4,571.7,""oops"",""left"",""right"",""bad_move"",55985.4,3744.9,3130.2,52240.6,614.6,""oops"",""left"",""left"",""good_move"",60152.8,4150.6,3129.4,56002.2,1021.2,""oops"",""left"",""right"",""bad_move"",66777.7,6618.9,2866.1,63415.8,495.8,""oops"",""left"",""left"",""good_move"",70553.9,3773.1,2592.9,66780.9,1180.2,""oops"",""left"",""up"",""bad_move""]","",""
"5084","","<div style=""width:500px;"">
  <p>What determined the result of this run?</p>
  </div>","88","html-slider-response","50","931295","0.0-5.0-1.8","304","1","2025-07-31 06:33:42","1f75c3e559b7213887762d5229550c2b","197.184.109.79","Mozilla/5.0 (Windows NT 10.0; Win64; x64) AppleWebKit/537.36 (KHTML, like Gecko) Chrome/138.0.0.0 Safari/537.36","WebKit","Chrome","138.0.0.0","Windows","10.0","https://app.prolific.com/","en-US,en;q=0.9","67eaee55a9b4d89e82b8df37","6877631c9844ddd5501205fc","688b0e24ea2bfd0ebd3ebc73","3","1","67eaee55a9b4d89e82b8df37","3","1","2025-07-31T06:49:36.048Z","","","","","","","","","","","AttribQ","","50","","","","","","","","","","","","","","","","","","","","","","","","","","","","",""
"3854","","<div style=""width:500px;"">
  <p>How much control did you have over the ball?</p>
  </div>","88","html-slider-response","51","935157","0.0-5.0-2.8","304","1","2025-07-31 06:33:42","1f75c3e559b7213887762d5229550c2b","197.184.109.79","Mozilla/5.0 (Windows NT 10.0; Win64; x64) AppleWebKit/537.36 (KHTML, like Gecko) Chrome/138.0.0.0 Safari/537.36","WebKit","Chrome","138.0.0.0","Windows","10.0","https://app.prolific.com/","en-US,en;q=0.9","67eaee55a9b4d89e82b8df37","6877631c9844ddd5501205fc","688b0e24ea2bfd0ebd3ebc73","3","1","67eaee55a9b4d89e82b8df37","3","1","2025-07-31T06:49:39.910Z","","","","","","","","","","","ControlQ","","50","","","","","","","","","","","","","","","","","","","","","","","","","","","","",""
"3901","","<div style=""width:500px;"">
  <p>How would you describe your current emotional state?</p>
  </div>","10","html-slider-response","52","939068","0.0-5.0-3.8","304","1","2025-07-31 06:33:42","1f75c3e559b7213887762d5229550c2b","197.184.109.79","Mozilla/5.0 (Windows NT 10.0; Win64; x64) AppleWebKit/537.36 (KHTML, like Gecko) Chrome/138.0.0.0 Safari/537.36","WebKit","Chrome","138.0.0.0","Windows","10.0","https://app.prolific.com/","en-US,en;q=0.9","67eaee55a9b4d89e82b8df37","6877631c9844ddd5501205fc","688b0e24ea2bfd0ebd3ebc73","3","1","67eaee55a9b4d89e82b8df37","3","1","2025-07-31T06:49:43.821Z","","","","","","","","","","","StressQ","","50","","","","","","","","","","","","","","","","","","","","","","","","","","","","",""
"3466","","<div style=""width:500px;"">
  <p>What best describes how you currently feel?</p>
  </div>","88","html-slider-response","53","942541","0.0-5.0-4.8","304","1","2025-07-31 06:33:42","1f75c3e559b7213887762d5229550c2b","197.184.109.79","Mozilla/5.0 (Windows NT 10.0; Win64; x64) AppleWebKit/537.36 (KHTML, like Gecko) Chrome/138.0.0.0 Safari/537.36","WebKit","Chrome","138.0.0.0","Windows","10.0","https://app.prolific.com/","en-US,en;q=0.9","67eaee55a9b4d89e82b8df37","6877631c9844ddd5501205fc","688b0e24ea2bfd0ebd3ebc73","3","1","67eaee55a9b4d89e82b8df37","3","1","2025-07-31T06:49:47.294Z","","","","","","","","","","","MotivationQ","","50","","","","","","","","","","","","","","","","","","","","","","","","","","","","",""
"","","","","ctl-task-cpt","54","1010451","0.0-5.0-0.9","304","1","2025-07-31 06:33:42","1f75c3e559b7213887762d5229550c2b","197.184.109.79","Mozilla/5.0 (Windows NT 10.0; Win64; x64) AppleWebKit/537.36 (KHTML, like Gecko) Chrome/138.0.0.0 Safari/537.36","WebKit","Chrome","138.0.0.0","Windows","10.0","https://app.prolific.com/","en-US,en;q=0.9","67eaee55a9b4d89e82b8df37","6877631c9844ddd5501205fc","688b0e24ea2bfd0ebd3ebc73","3","1","67eaee55a9b4d89e82b8df37","3","1","2025-07-31T06:50:55.204Z","","","","","","","","","","","","","","win-only","2","g1:SE,g2:NW","0.4","10","0","961187","2176.2","7186.5","64862.5","1","4","4","6","2","4","4","23","19","0.17424242424242425","2092.1","3000","1010","[""left"",""up""]","{""num_key_presses"":12,""num_perfect"":6,""num_errors"":0,""num_randdir"":6,""num_randdir_good_moves"":3,""num_whilered"":0,""num_whileblue"":0,""num_blue"":3,""num_good_moves"":9}","[290.22232142857143,297.12857142857143,0.1,290.22232142857143,297.12857142857143,107.9,290.22232142857143,297.12857142857143,212.1,290.22232142857143,297.12857142857143,325.4,290.22232142857143,297.12857142857143,436.6,290.22232142857143,297.12857142857143,564.1,290.22232142857143,297.12857142857143,684.1,290.22232142857143,297.12857142857143,791.3,290.22232142857143,297.12857142857143,908.6,290.22232142857143,297.12857142857143,1018.3,1.2223214285714263,144.12857142857143,1193.5,-12.777678571428574,141.12857142857143,1300.1,-12.777678571428574,141.12857142857143,1401.7,-7.777678571428574,117.12857142857143,1509.4,53.222321428571426,63.128571428571426,1627.1,55.222321428571426,63.128571428571426,1728.4,64.22232142857143,64.12857142857143,1841.4,64.22232142857143,64.12857142857143,1989.9,64.22232142857143,64.12857142857143,2100.7,64.22232142857143,64.12857142857143,2223.8,64.22232142857143,64.12857142857143,2328.9,64.22232142857143,64.12857142857143,2436.4,64.22232142857143,64.12857142857143,2537.2,64.22232142857143,64.12857142857143,2656.7,64.22232142857143,64.12857142857143,2769.7,64.22232142857143,64.12857142857143,2874.8,153.22232142857143,339.12857142857143,2986.4,198.22232142857143,432.12857142857143,3103.4,196.22232142857143,434.12857142857143,3206.3,196.22232142857143,434.12857142857143,3311.9,196.22232142857143,434.12857142857143,3419.4,196.22232142857143,434.12857142857143,3533.4,196.22232142857143,434.12857142857143,3636.6,196.22232142857143,434.12857142857143,3753.1,196.22232142857143,434.12857142857143,3857.2,196.22232142857143,434.12857142857143,3966.8,196.22232142857143,434.12857142857143,4087.7,196.22232142857143,434.12857142857143,4191.7,196.22232142857143,434.12857142857143,4297.8,196.22232142857143,434.12857142857143,4405.7,196.22232142857143,434.12857142857143,4518.7,196.22232142857143,434.12857142857143,4626.6,196.22232142857143,434.12857142857143,4736.1,196.22232142857143,434.12857142857143,4839.9,196.22232142857143,434.12857142857143,4942.8]","[1660.2,1660.2,1000,0,660.2,""oops"",""up"",""left"",""good_move"",13167.4,11503.4,1564.8,11028.3,574.3,""smooth"",""up"",""up"",""good_move"",20620.2,7450.4,2521.3,17570.6,528.3,""oops"",""up"",""up"",""good_move"",25365.9,4741.9,2194.9,20624,2547,""oops"",""up"",""down"",""bad_move"",29402.6,4003,3452.3,25399.6,550.7,""smooth"",""left"",""left"",""good_move"",33796.9,4389.9,1826.8,29407,2563.1,""smooth"",""up"",""up"",""good_move"",38165.3,4363.8,2391.1,33801.5,1972.7,""oops"",""up"",""down"",""bad_move"",41475.7,3306.9,2535,38168.9,771.9,""smooth"",""up"",""up"",""good_move"",45615.8,4132.8,2066.6,41483.1,2066.1,""oops"",""up"",""down"",""bad_move"",48684.9,3064.8,1883.8,45620.1,1181,""oops"",""up"",""up"",""good_move"",53054.8,4363,2425.3,48691.8,1937.7,""smooth"",""up"",""up"",""good_move"",57246,4187.8,2141.2,53058.2,2046.6,""smooth"",""left"",""left"",""good_move""]","",""
"5419","","<div style=""width:500px;"">
  <p>What determined the result of this run?</p>
  </div>","80","html-slider-response","55","1015873","0.0-5.0-1.9","304","1","2025-07-31 06:33:42","1f75c3e559b7213887762d5229550c2b","197.184.109.79","Mozilla/5.0 (Windows NT 10.0; Win64; x64) AppleWebKit/537.36 (KHTML, like Gecko) Chrome/138.0.0.0 Safari/537.36","WebKit","Chrome","138.0.0.0","Windows","10.0","https://app.prolific.com/","en-US,en;q=0.9","67eaee55a9b4d89e82b8df37","6877631c9844ddd5501205fc","688b0e24ea2bfd0ebd3ebc73","3","1","67eaee55a9b4d89e82b8df37","3","1","2025-07-31T06:51:00.626Z","","","","","","","","","","","AttribQ","","50","","","","","","","","","","","","","","","","","","","","","","","","","","","","",""
"9271","","<div style=""width:500px;"">
  <p>How much control did you have over the ball?</p>
  </div>","79","html-slider-response","56","1025151","0.0-5.0-2.9","304","1","2025-07-31 06:33:42","1f75c3e559b7213887762d5229550c2b","197.184.109.79","Mozilla/5.0 (Windows NT 10.0; Win64; x64) AppleWebKit/537.36 (KHTML, like Gecko) Chrome/138.0.0.0 Safari/537.36","WebKit","Chrome","138.0.0.0","Windows","10.0","https://app.prolific.com/","en-US,en;q=0.9","67eaee55a9b4d89e82b8df37","6877631c9844ddd5501205fc","688b0e24ea2bfd0ebd3ebc73","3","1","67eaee55a9b4d89e82b8df37","3","1","2025-07-31T06:51:09.904Z","","","","","","","","","","","ControlQ","","50","","","","","","","","","","","","","","","","","","","","","","","","","","","","",""
"4412","","<div style=""width:500px;"">
  <p>How would you describe your current emotional state?</p>
  </div>","15","html-slider-response","57","1029578","0.0-5.0-3.9","304","1","2025-07-31 06:33:42","1f75c3e559b7213887762d5229550c2b","197.184.109.79","Mozilla/5.0 (Windows NT 10.0; Win64; x64) AppleWebKit/537.36 (KHTML, like Gecko) Chrome/138.0.0.0 Safari/537.36","WebKit","Chrome","138.0.0.0","Windows","10.0","https://app.prolific.com/","en-US,en;q=0.9","67eaee55a9b4d89e82b8df37","6877631c9844ddd5501205fc","688b0e24ea2bfd0ebd3ebc73","3","1","67eaee55a9b4d89e82b8df37","3","1","2025-07-31T06:51:14.334Z","","","","","","","","","","","StressQ","","50","","","","","","","","","","","","","","","","","","","","","","","","","","","","",""
"2851","","<div style=""width:500px;"">
  <p>What best describes how you currently feel?</p>
  </div>","85","html-slider-response","58","1032439","0.0-5.0-4.9","304","1","2025-07-31 06:33:42","1f75c3e559b7213887762d5229550c2b","197.184.109.79","Mozilla/5.0 (Windows NT 10.0; Win64; x64) AppleWebKit/537.36 (KHTML, like Gecko) Chrome/138.0.0.0 Safari/537.36","WebKit","Chrome","138.0.0.0","Windows","10.0","https://app.prolific.com/","en-US,en;q=0.9","67eaee55a9b4d89e82b8df37","6877631c9844ddd5501205fc","688b0e24ea2bfd0ebd3ebc73","3","1","67eaee55a9b4d89e82b8df37","3","1","2025-07-31T06:51:17.191Z","","","","","","","","","","","MotivationQ","","50","","","","","","","","","","","","","","","","","","","","","","","","","","","","",""
"","","","","ctl-task-cpt","59","1111838","0.0-5.0-0.10","304","1","2025-07-31 06:33:42","1f75c3e559b7213887762d5229550c2b","197.184.109.79","Mozilla/5.0 (Windows NT 10.0; Win64; x64) AppleWebKit/537.36 (KHTML, like Gecko) Chrome/138.0.0.0 Safari/537.36","WebKit","Chrome","138.0.0.0","Windows","10.0","https://app.prolific.com/","en-US,en;q=0.9","67eaee55a9b4d89e82b8df37","6877631c9844ddd5501205fc","688b0e24ea2bfd0ebd3ebc73","3","1","67eaee55a9b4d89e82b8df37","3","1","2025-07-31T06:52:36.591Z","","","","","","","","","","","","","","win-only","2","g1:SE,g2:NW","0.5","11","0","1051078.2","2277.6","7308.7","76327.2","1","4","8","6","2","8","8","31","23","0.23484848484848486","1655.4","3000","375","[""left"",""up""]","{""num_key_presses"":14,""num_perfect"":7,""num_errors"":0,""num_randdir"":7,""num_randdir_good_moves"":3,""num_whilered"":0,""num_whileblue"":0,""num_blue"":2,""num_good_moves"":10}","[297.22232142857143,295.12857142857143,81.7,297.22232142857143,295.12857142857143,105.1,297.22232142857143,295.12857142857143,218.1,297.22232142857143,295.12857142857143,335.9,297.22232142857143,295.12857142857143,439.7,297.22232142857143,295.12857142857143,551.5,297.22232142857143,295.12857142857143,654.7,297.22232142857143,295.12857142857143,756.8,114.22232142857143,196.12857142857143,872.9,42.222321428571426,136.12857142857143,989.3,42.222321428571426,136.12857142857143,1116.8,66.22232142857143,112.12857142857143,1221.8,71.22232142857143,80.12857142857143,1323.3,64.22232142857143,76.12857142857143,1429,64.22232142857143,76.12857142857143,1548.5,64.22232142857143,76.12857142857143,1692,64.22232142857143,76.12857142857143,1816,64.22232142857143,76.12857142857143,1916.1,64.22232142857143,76.12857142857143,2030.9,64.22232142857143,76.12857142857143,2142.4,87.22232142857143,105.12857142857143,2265.4,238.22232142857143,289.12857142857143,2473.8,238.22232142857143,289.12857142857143,2584.3,237.22232142857143,293.12857142857143,2700.5,235.22232142857143,300.12857142857143,2822.1,235.22232142857143,300.12857142857143,2928.2,235.22232142857143,300.12857142857143,3037.3,235.22232142857143,300.12857142857143,3146.2,235.22232142857143,300.12857142857143,3250.1,235.22232142857143,300.12857142857143,3368.3,235.22232142857143,300.12857142857143,3481.1,235.22232142857143,300.12857142857143,3589,321.22232142857143,310.12857142857143,3701.6,486.22232142857143,455.12857142857143,3812.6,486.22232142857143,455.12857142857143,3917.5,486.22232142857143,455.12857142857143,4019,486.22232142857143,455.12857142857143,4124,486.22232142857143,455.12857142857143,4241.1,486.22232142857143,455.12857142857143,4353.5,486.22232142857143,455.12857142857143,4454.5,486.22232142857143,455.12857142857143,4580.3,486.22232142857143,455.12857142857143,4686.6,486.22232142857143,455.12857142857143,4802.9,486.22232142857143,455.12857142857143,4922.7]","[1531.2,1531.2,1000,0,531.2,""smooth"",""up"",""up"",""good_move"",5970.2,4436.6,1760,1533.6,2676.6,""smooth"",""up"",""up"",""good_move"",10617.9,4646.1,2630.4,5971.9,2015.6,""oops"",""up"",""down"",""bad_move"",13750.2,3129.7,2367.3,10620.6,762.3,""oops"",""up"",""up"",""good_move"",18515.7,4762,3015.7,13754,1746.2,""oops"",""up"",""up"",""good_move"",23443.8,4925.9,2499.3,18518,2426.5,""smooth"",""left"",""left"",""good_move"",28903.7,5457.5,2757.8,23446.3,2699.6,""smooth"",""left"",""left"",""good_move"",34461.6,5540.1,2954.6,28921.7,2585.5,""oops"",""left"",""right"",""bad_move"",38388.3,3921.2,3147.7,34467.2,773.5,""oops"",""left"",""right"",""bad_move"",42333,3938.3,2948.7,38394.8,989.5,""smooth"",""left"",""left"",""good_move"",51652.3,9317.2,3185.1,47333.9,1133.3,""oops"",""left"",""down"",""bad_move"",55479.8,3822.2,2558,51657.6,1264.2,""oops"",""up"",""left"",""good_move"",59912.5,4429.4,1935.6,55483.1,2493.9,""smooth"",""up"",""up"",""good_move"",68550.7,8634.3,2924.9,65025.8,600.4,""smooth"",""left"",""left"",""good_move""]","",""
"9912","","<div style=""width:500px;"">
  <p>What determined the result of this run?</p>
  </div>","76","html-slider-response","60","1121755","0.0-5.0-1.10","304","1","2025-07-31 06:33:42","1f75c3e559b7213887762d5229550c2b","197.184.109.79","Mozilla/5.0 (Windows NT 10.0; Win64; x64) AppleWebKit/537.36 (KHTML, like Gecko) Chrome/138.0.0.0 Safari/537.36","WebKit","Chrome","138.0.0.0","Windows","10.0","https://app.prolific.com/","en-US,en;q=0.9","67eaee55a9b4d89e82b8df37","6877631c9844ddd5501205fc","688b0e24ea2bfd0ebd3ebc73","3","1","67eaee55a9b4d89e82b8df37","3","1","2025-07-31T06:52:46.508Z","","","","","","","","","","","AttribQ","","50","","","","","","","","","","","","","","","","","","","","","","","","","","","","",""
"3356","","<div style=""width:500px;"">
  <p>How much control did you have over the ball?</p>
  </div>","84","html-slider-response","61","1125118","0.0-5.0-2.10","304","1","2025-07-31 06:33:42","1f75c3e559b7213887762d5229550c2b","197.184.109.79","Mozilla/5.0 (Windows NT 10.0; Win64; x64) AppleWebKit/537.36 (KHTML, like Gecko) Chrome/138.0.0.0 Safari/537.36","WebKit","Chrome","138.0.0.0","Windows","10.0","https://app.prolific.com/","en-US,en;q=0.9","67eaee55a9b4d89e82b8df37","6877631c9844ddd5501205fc","688b0e24ea2bfd0ebd3ebc73","3","1","67eaee55a9b4d89e82b8df37","3","1","2025-07-31T06:52:49.871Z","","","","","","","","","","","ControlQ","","50","","","","","","","","","","","","","","","","","","","","","","","","","","","","",""
"3669","","<div style=""width:500px;"">
  <p>How would you describe your current emotional state?</p>
  </div>","7","html-slider-response","62","1128796","0.0-5.0-3.10","304","1","2025-07-31 06:33:42","1f75c3e559b7213887762d5229550c2b","197.184.109.79","Mozilla/5.0 (Windows NT 10.0; Win64; x64) AppleWebKit/537.36 (KHTML, like Gecko) Chrome/138.0.0.0 Safari/537.36","WebKit","Chrome","138.0.0.0","Windows","10.0","https://app.prolific.com/","en-US,en;q=0.9","67eaee55a9b4d89e82b8df37","6877631c9844ddd5501205fc","688b0e24ea2bfd0ebd3ebc73","3","1","67eaee55a9b4d89e82b8df37","3","1","2025-07-31T06:52:53.549Z","","","","","","","","","","","StressQ","","50","","","","","","","","","","","","","","","","","","","","","","","","","","","","",""
"3226","","<div style=""width:500px;"">
  <p>What best describes how you currently feel?</p>
  </div>","88","html-slider-response","63","1132029","0.0-5.0-4.10","304","1","2025-07-31 06:33:42","1f75c3e559b7213887762d5229550c2b","197.184.109.79","Mozilla/5.0 (Windows NT 10.0; Win64; x64) AppleWebKit/537.36 (KHTML, like Gecko) Chrome/138.0.0.0 Safari/537.36","WebKit","Chrome","138.0.0.0","Windows","10.0","https://app.prolific.com/","en-US,en;q=0.9","67eaee55a9b4d89e82b8df37","6877631c9844ddd5501205fc","688b0e24ea2bfd0ebd3ebc73","3","1","67eaee55a9b4d89e82b8df37","3","1","2025-07-31T06:52:56.781Z","","","","","","","","","","","MotivationQ","","50","","","","","","","","","","","","","","","","","","","","","","","","","","","","",""
"","","","","ctl-task-cpt","64","1192585","0.0-5.0-0.11","304","1","2025-07-31 06:33:42","1f75c3e559b7213887762d5229550c2b","197.184.109.79","Mozilla/5.0 (Windows NT 10.0; Win64; x64) AppleWebKit/537.36 (KHTML, like Gecko) Chrome/138.0.0.0 Safari/537.36","WebKit","Chrome","138.0.0.0","Windows","10.0","https://app.prolific.com/","en-US,en;q=0.9","67eaee55a9b4d89e82b8df37","6877631c9844ddd5501205fc","688b0e24ea2bfd0ebd3ebc73","3","1","67eaee55a9b4d89e82b8df37","3","1","2025-07-31T06:53:57.338Z","","","","","","","","","","","","","","win-only","3","g1:SW,g2:NE","0.6","12","0","1150669.5","10041.1","15046.8","57518.8","1","4","4","6","2","4","4","35","31","0.26515151515151514","1533.3","3000","1050","[""up"",""right""]","{""num_key_presses"":8,""num_perfect"":5,""num_errors"":0,""num_randdir"":3,""num_randdir_good_moves"":2,""num_whilered"":0,""num_whileblue"":0,""num_blue"":2,""num_good_moves"":7}","[301.22232142857143,288.12857142857143,1.9,301.22232142857143,288.12857142857143,103.6,301.22232142857143,288.12857142857143,230.8,301.22232142857143,288.12857142857143,336.7,301.22232142857143,288.12857142857143,441.1,301.22232142857143,288.12857142857143,559.2,301.22232142857143,288.12857142857143,659.6,301.22232142857143,288.12857142857143,785.8,301.22232142857143,287.12857142857143,914.5,462.22232142857143,101.12857142857143,1034.2,540.2223214285714,64.12857142857143,1148.2,540.2223214285714,64.12857142857143,1254.6,541.2223214285714,64.12857142857143,1357.6,541.2223214285714,64.12857142857143,1466.6,541.2223214285714,64.12857142857143,1585.1,541.2223214285714,64.12857142857143,1703.3,541.2223214285714,64.12857142857143,1822.8,541.2223214285714,64.12857142857143,1931.8,557.2223214285714,77.12857142857143,2043.6,680.2223214285714,263.12857142857143,2151,683.2223214285714,276.12857142857143,2270.2,683.2223214285714,276.12857142857143,2387.2,683.2223214285714,276.12857142857143,2501.6,683.2223214285714,276.12857142857143,2605.5,683.2223214285714,276.12857142857143,2737,683.2223214285714,276.12857142857143,2850.8,683.2223214285714,276.12857142857143,2969.8,683.2223214285714,276.12857142857143,3074.1,683.2223214285714,276.12857142857143,3180.4,683.2223214285714,276.12857142857143,3280.8,683.2223214285714,276.12857142857143,3389.2,683.2223214285714,276.12857142857143,3502,683.2223214285714,276.12857142857143,3618.1,683.2223214285714,276.12857142857143,3718.9,683.2223214285714,276.12857142857143,3839.6,683.2223214285714,276.12857142857143,3945.7,683.2223214285714,276.12857142857143,4046.6,683.2223214285714,276.12857142857143,4150.6,683.2223214285714,276.12857142857143,4262.6,683.2223214285714,276.12857142857143,4367.3,683.2223214285714,276.12857142857143,4467.9,683.2223214285714,276.12857142857143,4569.1,683.2223214285714,276.12857142857143,4685.8,683.2223214285714,276.12857142857143,4816.7,683.2223214285714,276.12857142857143,4935.7]","[2234.1,2234.1,1000,0,1234.1,""oops"",""up"",""up"",""good_move"",7662.2,5425.1,2098.1,2237.1,3327,""smooth"",""up"",""up"",""good_move"",12644.5,4978.1,3261.4,7666.5,1716.6,""oops"",""up"",""right"",""good_move"",16432.2,3779.7,2107,12652.6,1672.6,""oops"",""right"",""down"",""bad_move"",18974,2521.4,1761.1,16452.6,760.3,""smooth"",""up"",""up"",""good_move"",31332.5,12355.4,2701.5,27794,838.1,""smooth"",""up"",""up"",""good_move"",36476.9,5138.3,2615,31338.8,2523.2,""smooth"",""right"",""right"",""good_move"",42028,5546.1,2981.8,36482,2564.2,""smooth"",""right"",""right"",""good_move""]","",""
"5262","","<div style=""width:500px;"">
  <p>What determined the result of this run?</p>
  </div>","88","html-slider-response","65","1197858","0.0-5.0-1.11","304","1","2025-07-31 06:33:42","1f75c3e559b7213887762d5229550c2b","197.184.109.79","Mozilla/5.0 (Windows NT 10.0; Win64; x64) AppleWebKit/537.36 (KHTML, like Gecko) Chrome/138.0.0.0 Safari/537.36","WebKit","Chrome","138.0.0.0","Windows","10.0","https://app.prolific.com/","en-US,en;q=0.9","67eaee55a9b4d89e82b8df37","6877631c9844ddd5501205fc","688b0e24ea2bfd0ebd3ebc73","3","1","67eaee55a9b4d89e82b8df37","3","1","2025-07-31T06:54:02.610Z","","","","","","","","","","","AttribQ","","50","","","","","","","","","","","","","","","","","","","","","","","","","","","","",""
"8235","","<div style=""width:500px;"">
  <p>How much control did you have over the ball?</p>
  </div>","86","html-slider-response","66","1206099","0.0-5.0-2.11","304","1","2025-07-31 06:33:42","1f75c3e559b7213887762d5229550c2b","197.184.109.79","Mozilla/5.0 (Windows NT 10.0; Win64; x64) AppleWebKit/537.36 (KHTML, like Gecko) Chrome/138.0.0.0 Safari/537.36","WebKit","Chrome","138.0.0.0","Windows","10.0","https://app.prolific.com/","en-US,en;q=0.9","67eaee55a9b4d89e82b8df37","6877631c9844ddd5501205fc","688b0e24ea2bfd0ebd3ebc73","3","1","67eaee55a9b4d89e82b8df37","3","1","2025-07-31T06:54:10.853Z","","","","","","","","","","","ControlQ","","50","","","","","","","","","","","","","","","","","","","","","","","","","","","","",""
"3195","","<div style=""width:500px;"">
  <p>How would you describe your current emotional state?</p>
  </div>","6","html-slider-response","67","1209350","0.0-5.0-3.11","304","1","2025-07-31 06:33:42","1f75c3e559b7213887762d5229550c2b","197.184.109.79","Mozilla/5.0 (Windows NT 10.0; Win64; x64) AppleWebKit/537.36 (KHTML, like Gecko) Chrome/138.0.0.0 Safari/537.36","WebKit","Chrome","138.0.0.0","Windows","10.0","https://app.prolific.com/","en-US,en;q=0.9","67eaee55a9b4d89e82b8df37","6877631c9844ddd5501205fc","688b0e24ea2bfd0ebd3ebc73","3","1","67eaee55a9b4d89e82b8df37","3","1","2025-07-31T06:54:14.103Z","","","","","","","","","","","StressQ","","50","","","","","","","","","","","","","","","","","","","","","","","","","","","","",""
"6348","","<div style=""width:500px;"">
  <p>What best describes how you currently feel?</p>
  </div>","93","html-slider-response","68","1215704","0.0-5.0-4.11","304","1","2025-07-31 06:33:42","1f75c3e559b7213887762d5229550c2b","197.184.109.79","Mozilla/5.0 (Windows NT 10.0; Win64; x64) AppleWebKit/537.36 (KHTML, like Gecko) Chrome/138.0.0.0 Safari/537.36","WebKit","Chrome","138.0.0.0","Windows","10.0","https://app.prolific.com/","en-US,en;q=0.9","67eaee55a9b4d89e82b8df37","6877631c9844ddd5501205fc","688b0e24ea2bfd0ebd3ebc73","3","1","67eaee55a9b4d89e82b8df37","3","1","2025-07-31T06:54:20.456Z","","","","","","","","","","","MotivationQ","","50","","","","","","","","","","","","","","","","","","","","","","","","","","","","",""
"","","","","ctl-task-cpt","69","1267747","0.0-5.0-0.12","304","1","2025-07-31 06:33:42","1f75c3e559b7213887762d5229550c2b","197.184.109.79","Mozilla/5.0 (Windows NT 10.0; Win64; x64) AppleWebKit/537.36 (KHTML, like Gecko) Chrome/138.0.0.0 Safari/537.36","WebKit","Chrome","138.0.0.0","Windows","10.0","https://app.prolific.com/","en-US,en;q=0.9","67eaee55a9b4d89e82b8df37","6877631c9844ddd5501205fc","688b0e24ea2bfd0ebd3ebc73","3","1","67eaee55a9b4d89e82b8df37","3","1","2025-07-31T06:55:12.500Z","","","","","","","","","","","","","","win-only","2","g1:SE,g2:NW","0.7","13","0","1234485.3","5298.4","10317.1","48861.9","1","4","4","6","2","4","4","39","35","0.29545454545454547","1595.3","3000","1460","[""left"",""up""]","{""num_key_presses"":8,""num_perfect"":6,""num_errors"":0,""num_randdir"":2,""num_randdir_good_moves"":1,""num_whilered"":0,""num_whileblue"":0,""num_blue"":0,""num_good_moves"":7}","[299.22232142857143,301.12857142857143,3.3,299.22232142857143,301.12857142857143,116.2,299.22232142857143,301.12857142857143,239.7,299.22232142857143,301.12857142857143,365.2,299.22232142857143,301.12857142857143,466,299.22232142857143,301.12857142857143,582.1,306.22232142857143,312.12857142857143,695.1,209.22232142857143,295.12857142857143,804.6,50.222321428571426,118.12857142857143,925.6,51.222321428571426,104.12857142857143,1050.2,51.222321428571426,93.12857142857143,1154,49.222321428571426,78.12857142857143,1267.7,49.222321428571426,78.12857142857143,1376.9,49.222321428571426,78.12857142857143,1480.2,49.222321428571426,78.12857142857143,1593.2,49.222321428571426,78.12857142857143,1717.5,49.222321428571426,78.12857142857143,1842.6,49.222321428571426,78.12857142857143,1956.8,49.222321428571426,78.12857142857143,2060.5,49.222321428571426,78.12857142857143,2167.2,49.222321428571426,78.12857142857143,2287.6,49.222321428571426,78.12857142857143,2410.2,49.222321428571426,78.12857142857143,2528.1,49.222321428571426,78.12857142857143,2636.6,49.222321428571426,78.12857142857143,2753.4,49.222321428571426,78.12857142857143,2875.8,49.222321428571426,78.12857142857143,2996.5,49.222321428571426,78.12857142857143,3112.7,49.222321428571426,78.12857142857143,3233.7,49.222321428571426,78.12857142857143,3347.3,49.222321428571426,78.12857142857143,3466.1,49.222321428571426,78.12857142857143,3567,49.222321428571426,78.12857142857143,3667.9,49.222321428571426,78.12857142857143,3783.5,49.222321428571426,78.12857142857143,3885.1,49.222321428571426,78.12857142857143,4004.1,49.222321428571426,78.12857142857143,4129,49.222321428571426,78.12857142857143,4230,49.222321428571426,78.12857142857143,4347.9,49.222321428571426,78.12857142857143,4449.9,49.222321428571426,78.12857142857143,4554.9,49.222321428571426,78.12857142857143,4663.3,49.222321428571426,78.12857142857143,4777.8,49.222321428571426,78.12857142857143,4880.9,49.222321428571426,78.12857142857143,4993.8]","[2814.4,2814.4,1000,0,1814.4,""oops"",""left"",""down"",""bad_move"",5693.1,2874.2,2267.2,2819,607,""smooth"",""up"",""up"",""good_move"",10703.7,5006.7,3163.4,5697,1843.4,""smooth"",""up"",""up"",""good_move"",17330.9,6617.2,2544.2,10713.7,4073,""smooth"",""up"",""up"",""good_move"",23072.4,5739.5,1747.9,17332.9,3991.6,""oops"",""up"",""up"",""good_move"",27911.5,4829.6,2399.7,23081.9,2429.9,""smooth"",""left"",""left"",""good_move"",33142.4,5225.3,2435.1,27917.1,2790.2,""smooth"",""left"",""left"",""good_move"",38065.7,4913.6,2645.4,33152.2,2268.1,""smooth"",""left"",""left"",""good_move""]","",""
"18465","","<div style=""width:500px;"">
  <p>What determined the result of this run?</p>
  </div>","92","html-slider-response","70","1286217","0.0-5.0-1.12","304","1","2025-07-31 06:33:42","1f75c3e559b7213887762d5229550c2b","197.184.109.79","Mozilla/5.0 (Windows NT 10.0; Win64; x64) AppleWebKit/537.36 (KHTML, like Gecko) Chrome/138.0.0.0 Safari/537.36","WebKit","Chrome","138.0.0.0","Windows","10.0","https://app.prolific.com/","en-US,en;q=0.9","67eaee55a9b4d89e82b8df37","6877631c9844ddd5501205fc","688b0e24ea2bfd0ebd3ebc73","3","1","67eaee55a9b4d89e82b8df37","3","1","2025-07-31T06:55:30.970Z","","","","","","","","","","","AttribQ","","50","","","","","","","","","","","","","","","","","","","","","","","","","","","","",""
"4433","","<div style=""width:500px;"">
  <p>How much control did you have over the ball?</p>
  </div>","77","html-slider-response","71","1290658","0.0-5.0-2.12","304","1","2025-07-31 06:33:42","1f75c3e559b7213887762d5229550c2b","197.184.109.79","Mozilla/5.0 (Windows NT 10.0; Win64; x64) AppleWebKit/537.36 (KHTML, like Gecko) Chrome/138.0.0.0 Safari/537.36","WebKit","Chrome","138.0.0.0","Windows","10.0","https://app.prolific.com/","en-US,en;q=0.9","67eaee55a9b4d89e82b8df37","6877631c9844ddd5501205fc","688b0e24ea2bfd0ebd3ebc73","3","1","67eaee55a9b4d89e82b8df37","3","1","2025-07-31T06:55:35.413Z","","","","","","","","","","","ControlQ","","50","","","","","","","","","","","","","","","","","","","","","","","","","","","","",""
"7545","","<div style=""width:500px;"">
  <p>How would you describe your current emotional state?</p>
  </div>","15","html-slider-response","72","1298210","0.0-5.0-3.12","304","1","2025-07-31 06:33:42","1f75c3e559b7213887762d5229550c2b","197.184.109.79","Mozilla/5.0 (Windows NT 10.0; Win64; x64) AppleWebKit/537.36 (KHTML, like Gecko) Chrome/138.0.0.0 Safari/537.36","WebKit","Chrome","138.0.0.0","Windows","10.0","https://app.prolific.com/","en-US,en;q=0.9","67eaee55a9b4d89e82b8df37","6877631c9844ddd5501205fc","688b0e24ea2bfd0ebd3ebc73","3","1","67eaee55a9b4d89e82b8df37","3","1","2025-07-31T06:55:42.962Z","","","","","","","","","","","StressQ","","50","","","","","","","","","","","","","","","","","","","","","","","","","","","","",""
"13528","","<div style=""width:500px;"">
  <p>What best describes how you currently feel?</p>
  </div>","91","html-slider-response","73","1311750","0.0-5.0-4.12","304","1","2025-07-31 06:33:42","1f75c3e559b7213887762d5229550c2b","197.184.109.79","Mozilla/5.0 (Windows NT 10.0; Win64; x64) AppleWebKit/537.36 (KHTML, like Gecko) Chrome/138.0.0.0 Safari/537.36","WebKit","Chrome","138.0.0.0","Windows","10.0","https://app.prolific.com/","en-US,en;q=0.9","67eaee55a9b4d89e82b8df37","6877631c9844ddd5501205fc","688b0e24ea2bfd0ebd3ebc73","3","1","67eaee55a9b4d89e82b8df37","3","1","2025-07-31T06:55:56.504Z","","","","","","","","","","","MotivationQ","","50","","","","","","","","","","","","","","","","","","","","","","","","","","","","",""
