"rt","response_timestamp","stimulus","response","trial_type","trial_index","time_elapsed","internal_node_id","run_id","condition","recorded_at","source_code_version","ip","user_agent","device","browser","browser_version","platform","platform_version","referer","accept_language","PROLIFIC_PID","STUDY_ID","SESSION_ID","WEEK","BATCH","prolific_id","week","batch","realtime","success","responses","item_order","radio_event_ids","radio_event_times","key_event_times","mouse_event_times","straightlining","zigzagging","honeypot","eventType","view_history","slider_start","which_type","canvas_config","goals_layout","control_level","trial_number","tutorial_trial_number","trial_start_time","phase1_start_time","phase2_start_time","phase3_start_time","goal_1_value","goal_1_distance","goal_2_value","goal_2_distance","goal_selected","outcome","outcome_total","participant_final_score","participant_initial_score","participant_final_score_prop","goal_choice_rt","allocated_time","allocated_time_remaining","goal_direction","counts","mouse_movements","key_presses","question_order","question_id"
"7609","1753270786169","<p style='font-size:40px;line-height:1.25'><strong>Welcome to the experiment!</strong></p><p style='font-size:1.1em;line-height:1.25'>Thank you for participanting in our experiment again! You will be asked to play the Dysfunctional Ball Game again. We will briefly recap the rules before we start.</p><p style='font-size:1.1em;line-height:1.25'>Press <strong>Next</strong> to continue.</p>","0","custom-html-button-response","0","7610","0.0-0.0","215","1","2025-07-23 11:39:36","1f75c3e559b7213887762d5229550c2b","41.246.139.147","Mozilla/5.0 (Windows NT 10.0; Win64; x64) AppleWebKit/537.36 (KHTML, like Gecko) Chrome/138.0.0.0 Safari/537.36","WebKit","Chrome","138.0.0.0","Windows","10.0","https://app.prolific.com/","en-US,en;q=0.9","650ac282d9578d72800bf303","683db9eb0562dbf637994deb","6880c9d571c1bd156936bb13","2","1","650ac282d9578d72800bf303","2","1","2025-07-23T11:39:46.170Z","","","","","","","","","","","","","","","","","","","","","","","","","","","","","","","","","","","","","","","","","",""
"2349","","","","fullscreen","1","10972","0.0-1.0","215","1","2025-07-23 11:39:36","1f75c3e559b7213887762d5229550c2b","41.246.139.147","Mozilla/5.0 (Windows NT 10.0; Win64; x64) AppleWebKit/537.36 (KHTML, like Gecko) Chrome/138.0.0.0 Safari/537.36","WebKit","Chrome","138.0.0.0","Windows","10.0","https://app.prolific.com/","en-US,en;q=0.9","650ac282d9578d72800bf303","683db9eb0562dbf637994deb","6880c9d571c1bd156936bb13","2","1","650ac282d9578d72800bf303","2","1","","true","","","","","","","","","","","","","","","","","","","","","","","","","","","","","","","","","","","","","","","","",""
"3654","1753270793185","<p style='font-size:1.1em;line-height:1.25'>In the following, we will ask you a few questions relating to your feelings in the last 24 hours.<br></p><p style='font-size:1.1em;line-height:1.25'>Press the <strong>Next</strong> button to continue.</p>","0","custom-html-button-response","2","14627","0.0-2.0-0.0","215","1","2025-07-23 11:39:36","1f75c3e559b7213887762d5229550c2b","41.246.139.147","Mozilla/5.0 (Windows NT 10.0; Win64; x64) AppleWebKit/537.36 (KHTML, like Gecko) Chrome/138.0.0.0 Safari/537.36","WebKit","Chrome","138.0.0.0","Windows","10.0","https://app.prolific.com/","en-US,en;q=0.9","650ac282d9578d72800bf303","683db9eb0562dbf637994deb","6880c9d571c1bd156936bb13","2","1","650ac282d9578d72800bf303","2","1","2025-07-23T11:39:53.186Z","","","","","","","","","","","","","","","","","","","","","","","","","","","","","","","","","","","","","","","","","",""
"104700.09999999404","","","","survey-template","3","119332","0.0-2.0-1.0","215","1","2025-07-23 11:39:36","1f75c3e559b7213887762d5229550c2b","41.246.139.147","Mozilla/5.0 (Windows NT 10.0; Win64; x64) AppleWebKit/537.36 (KHTML, like Gecko) Chrome/138.0.0.0 Safari/537.36","WebKit","Chrome","138.0.0.0","Windows","10.0","https://app.prolific.com/","en-US,en;q=0.9","650ac282d9578d72800bf303","683db9eb0562dbf637994deb","6880c9d571c1bd156936bb13","2","1","650ac282d9578d72800bf303","2","1","2025-07-23T11:41:37.891Z","","{""Q01"":""1"",""Q02"":""1"",""Q03"":""1"",""Q04"":""1"",""Q05"":""0"",""Q06"":""0"",""Q07"":""1"",""Q08"":""0"",""Q09"":""1"",""Q10"":""1"",""Q11"":""1"",""Q12"":""2"",""Q13"":""5"",""Q14"":""2"",""Q15"":""2"",""Q16"":""3"",""Q17"":""3"",""Q18"":""1"",""Q19"":""2"",""Q20"":""2"",""Q21"":""2"",""Q22"":""0""}","[0,1,2,3,4,5,6,7,8,9,10,11,12,13,14,15,16,17,18,19,20,21]","[""Q01"",""Q02"",""Q03"",""Q04"",""Q05"",""Q06"",""Q07"",""Q08"",""Q09"",""Q10"",""Q11"",""Q12"",""Q12"",""Q13"",""Q14"",""Q15"",""Q16"",""Q17"",""Q19"",""Q20"",""Q21"",""Q21"",""Q22"",""Q18""]","[8198.199999988079,10332.89999999106,13923.5,15136.39999999106,18406.59999999404,19892.59999999404,22463.5,24275.09999999404,37003.29999999702,45780.19999998808,47230.69999998808,57335.5,60387.09999999404,62823.19999998808,64753.39999999106,68983.39999999106,77129.19999998808,78546,82812.29999999702,86798.39999999106,89133.19999998808,90457.69999998808,93408.19999998808,102201.09999999404]","[]","[0.19999998807907104,5513.5999999940395,8198.199999988079,10332.89999999106,13923.5,15136.39999999106,18406.59999999404,19892.59999999404,22463.5,24275.09999999404,37003.29999999702,45780.19999998808,47230.69999998808,57335.5,60387.09999999404,62823.19999998808,64753.39999999106,68983.39999999106,75513.69999998808,77129.19999998808,78546,80480.39999999106,82812.29999999702,86798.39999999106,89133.19999998808,90457.69999998808,93408.19999998808,94547,102201.09999999404,104697.09999999404]","0.4090909090909091","0.3333333333333333","0","drsp","","","","","","","","","","","","","","","","","","","","","","","","","","","","","","",""
"16609.89999999106","","","","survey-template","4","135943","0.0-2.0-2.0","215","1","2025-07-23 11:39:36","1f75c3e559b7213887762d5229550c2b","41.246.139.147","Mozilla/5.0 (Windows NT 10.0; Win64; x64) AppleWebKit/537.36 (KHTML, like Gecko) Chrome/138.0.0.0 Safari/537.36","WebKit","Chrome","138.0.0.0","Windows","10.0","https://app.prolific.com/","en-US,en;q=0.9","650ac282d9578d72800bf303","683db9eb0562dbf637994deb","6880c9d571c1bd156936bb13","2","1","650ac282d9578d72800bf303","2","1","2025-07-23T11:41:54.503Z","","{""Q01"":""1"",""Q02"":""2"",""Q03"":""2""}","[0,1,2]","[""Q01"",""Q02"",""Q03"",""Q03""]","[2576.8999999910593,8676.89999999106,12643.79999999702,15009.09999999404]","[]","[2576.8999999910593,8676.89999999106,12643.79999999702,14043.59999999404,15009.09999999404,16609.19999998808]","0.3333333333333333","0.5","0","stress","","","","","","","","","","","","","","","","","","","","","","","","","","","","","","",""
"9832","","","","instructions","5","145777","0.0-3.0-0.0","215","1","2025-07-23 11:39:36","1f75c3e559b7213887762d5229550c2b","41.246.139.147","Mozilla/5.0 (Windows NT 10.0; Win64; x64) AppleWebKit/537.36 (KHTML, like Gecko) Chrome/138.0.0.0 Safari/537.36","WebKit","Chrome","138.0.0.0","Windows","10.0","https://app.prolific.com/","en-US,en;q=0.9","650ac282d9578d72800bf303","683db9eb0562dbf637994deb","6880c9d571c1bd156936bb13","2","1","650ac282d9578d72800bf303","2","1","","","","","","","","","","","","","[{""page_index"":0,""viewing_time"":9832}]","","","","","","","","","","","","","","","","","","","","","","","","","","","","","",""
"6783","","<p>Before you start with this game please answer the following three questions yourself. </p>
  <p>Through this game, we measure several aspects of your cognitive performance, such as reaction times, multi-tasking capabilities </p>
  <p>and the ability to assess the situation you are in.</p>
  <p></p>
  <p><b>How good do you usually are in such tasks?</b></p>","29","html-slider-response","6","152561","0.0-4.0-0.0","215","1","2025-07-23 11:39:36","1f75c3e559b7213887762d5229550c2b","41.246.139.147","Mozilla/5.0 (Windows NT 10.0; Win64; x64) AppleWebKit/537.36 (KHTML, like Gecko) Chrome/138.0.0.0 Safari/537.36","WebKit","Chrome","138.0.0.0","Windows","10.0","https://app.prolific.com/","en-US,en;q=0.9","650ac282d9578d72800bf303","683db9eb0562dbf637994deb","6880c9d571c1bd156936bb13","2","1","650ac282d9578d72800bf303","2","1","2025-07-23T11:42:11.120Z","","","","","","","","","","","PreSkillQ","","50","","","","","","","","","","","","","","","","","","","","","","","","","","","","",""
"22965","","<div style=""width:500px;"">
  <p>How well do you think you will perform in this task compared to other participants?</p>
  </div>","41","html-slider-response","7","175527","0.0-4.0-1.0","215","1","2025-07-23 11:39:36","1f75c3e559b7213887762d5229550c2b","41.246.139.147","Mozilla/5.0 (Windows NT 10.0; Win64; x64) AppleWebKit/537.36 (KHTML, like Gecko) Chrome/138.0.0.0 Safari/537.36","WebKit","Chrome","138.0.0.0","Windows","10.0","https://app.prolific.com/","en-US,en;q=0.9","650ac282d9578d72800bf303","683db9eb0562dbf637994deb","6880c9d571c1bd156936bb13","2","1","650ac282d9578d72800bf303","2","1","2025-07-23T11:42:34.086Z","","","","","","","","","","","PrePerfQ","","50","","","","","","","","","","","","","","","","","","","","","","","","","","","","",""
"4599","","<div style=""width:500px;"">
  <p>What best describes how you currently feel?</p>
  </div>","77","html-slider-response","8","180127","0.0-4.0-2.0","215","1","2025-07-23 11:39:36","1f75c3e559b7213887762d5229550c2b","41.246.139.147","Mozilla/5.0 (Windows NT 10.0; Win64; x64) AppleWebKit/537.36 (KHTML, like Gecko) Chrome/138.0.0.0 Safari/537.36","WebKit","Chrome","138.0.0.0","Windows","10.0","https://app.prolific.com/","en-US,en;q=0.9","650ac282d9578d72800bf303","683db9eb0562dbf637994deb","6880c9d571c1bd156936bb13","2","1","650ac282d9578d72800bf303","2","1","2025-07-23T11:42:38.686Z","","","","","","","","","","","PreMotivationQ","","50","","","","","","","","","","","","","","","","","","","","","","","","","","","","",""
"","","","","ctl-task-cpt","9","213135","0.0-5.0-0.0","215","1","2025-07-23 11:39:36","1f75c3e559b7213887762d5229550c2b","41.246.139.147","Mozilla/5.0 (Windows NT 10.0; Win64; x64) AppleWebKit/537.36 (KHTML, like Gecko) Chrome/138.0.0.0 Safari/537.36","WebKit","Chrome","138.0.0.0","Windows","10.0","https://app.prolific.com/","en-US,en;q=0.9","650ac282d9578d72800bf303","683db9eb0562dbf637994deb","6880c9d571c1bd156936bb13","2","1","650ac282d9578d72800bf303","2","1","2025-07-23T11:43:11.694Z","","","","","","","","","","","","","","win-only","2","g1:SE,g2:NW","1","1","0","185622.4","4614.4","9615.9","30003.3","1","4","4","6","2","-4","-5","0","0","0","1087.3","3000","-2990","[""left"",""up""]","{""num_key_presses"":6,""num_perfect"":5,""num_errors"":1,""num_randdir"":0,""num_randdir_good_moves"":0,""num_whilered"":0,""num_whileblue"":1,""num_blue"":1,""num_good_moves"":5}","[303.22232142857143,295.12857142857143,0.1,303.22232142857143,295.12857142857143,100.9,303.22232142857143,295.12857142857143,201.2,303.22232142857143,295.12857142857143,306.4,303.22232142857143,295.12857142857143,412.6,116.22232142857143,-12.871428571428574,516.4,108.22232142857143,-36.871428571428574,621.2,95.22232142857143,38.128571428571426,722.2,84.22232142857143,54.128571428571426,827.2,82.22232142857143,54.128571428571426,933.1,82.22232142857143,54.128571428571426,1037.2,82.22232142857143,54.128571428571426,1142.5,82.22232142857143,54.128571428571426,1247.4,82.22232142857143,54.128571428571426,1351.4,82.22232142857143,54.128571428571426,1456.9,82.22232142857143,54.128571428571426,1557.6,82.22232142857143,54.128571428571426,1657.8,82.22232142857143,54.128571428571426,1760.8,82.22232142857143,54.128571428571426,1861,82.22232142857143,54.128571428571426,1961.6,82.22232142857143,54.128571428571426,2061.6,82.22232142857143,54.128571428571426,2165.9,82.22232142857143,54.128571428571426,2266,82.22232142857143,54.128571428571426,2366.2,82.22232142857143,54.128571428571426,2471.5,82.22232142857143,54.128571428571426,2571.8,82.22232142857143,54.128571428571426,2672,82.22232142857143,54.128571428571426,2776.5,82.22232142857143,54.128571428571426,2876.7,82.22232142857143,54.128571428571426,2976.8,82.22232142857143,54.128571428571426,3081.3,82.22232142857143,54.128571428571426,3181.5,82.22232142857143,54.128571428571426,3281.7,82.22232142857143,54.128571428571426,3381.9,82.22232142857143,54.128571428571426,3487.8,82.22232142857143,54.128571428571426,3591.7,82.22232142857143,54.128571428571426,3696.4,82.22232142857143,54.128571428571426,3796.8,82.22232142857143,54.128571428571426,3901.3,82.22232142857143,54.128571428571426,4007.6,82.22232142857143,54.128571428571426,4111.7,82.22232142857143,54.128571428571426,4216.8,82.22232142857143,54.128571428571426,4320.8,82.22232142857143,54.128571428571426,4421.6,82.22232142857143,54.128571428571426,4526.9,82.22232142857143,54.128571428571426,4631,82.22232142857143,54.128571428571426,4731.6,82.22232142857143,54.128571428571426,4837,82.22232142857143,54.128571428571426,4942.6]","[1049.1,1048.9,1005.8,0.2,43.1,""while_blue"",""up"",""down"",""bad_move"",4098.5,3049,1020.2,1049.5,2028.8,""smooth"",""up"",""up"",""good_move"",6724.1,2625.3,1961.1,4098.8,664.2,""smooth"",""up"",""up"",""good_move"",11480.3,4756,2645,6724.3,2111,""smooth"",""up"",""up"",""good_move"",14467,2986.4,2438.1,11480.6,548.3,""smooth"",""up"",""up"",""good_move"",17075,2607.7,1791.4,14467.3,816.3,""smooth"",""left"",""left"",""good_move""]","",""
"5924","","<div style=""width:500px;"">
  <p>What determined the result of this run?</p>
  </div>","5","html-slider-response","10","219060","0.0-5.0-1.0","215","1","2025-07-23 11:39:36","1f75c3e559b7213887762d5229550c2b","41.246.139.147","Mozilla/5.0 (Windows NT 10.0; Win64; x64) AppleWebKit/537.36 (KHTML, like Gecko) Chrome/138.0.0.0 Safari/537.36","WebKit","Chrome","138.0.0.0","Windows","10.0","https://app.prolific.com/","en-US,en;q=0.9","650ac282d9578d72800bf303","683db9eb0562dbf637994deb","6880c9d571c1bd156936bb13","2","1","650ac282d9578d72800bf303","2","1","2025-07-23T11:43:17.619Z","","","","","","","","","","","AttribQ","","50","","","","","","","","","","","","","","","","","","","","","","","","","","","","",""
"4903","","<div style=""width:500px;"">
  <p>How much control did you have over the ball?</p>
  </div>","21","html-slider-response","11","223963","0.0-5.0-2.0","215","1","2025-07-23 11:39:36","1f75c3e559b7213887762d5229550c2b","41.246.139.147","Mozilla/5.0 (Windows NT 10.0; Win64; x64) AppleWebKit/537.36 (KHTML, like Gecko) Chrome/138.0.0.0 Safari/537.36","WebKit","Chrome","138.0.0.0","Windows","10.0","https://app.prolific.com/","en-US,en;q=0.9","650ac282d9578d72800bf303","683db9eb0562dbf637994deb","6880c9d571c1bd156936bb13","2","1","650ac282d9578d72800bf303","2","1","2025-07-23T11:43:22.522Z","","","","","","","","","","","ControlQ","","50","","","","","","","","","","","","","","","","","","","","","","","","","","","","",""
"4176","","<div style=""width:500px;"">
  <p>How would you describe your current emotional state?</p>
  </div>","11","html-slider-response","12","228140","0.0-5.0-3.0","215","1","2025-07-23 11:39:36","1f75c3e559b7213887762d5229550c2b","41.246.139.147","Mozilla/5.0 (Windows NT 10.0; Win64; x64) AppleWebKit/537.36 (KHTML, like Gecko) Chrome/138.0.0.0 Safari/537.36","WebKit","Chrome","138.0.0.0","Windows","10.0","https://app.prolific.com/","en-US,en;q=0.9","650ac282d9578d72800bf303","683db9eb0562dbf637994deb","6880c9d571c1bd156936bb13","2","1","650ac282d9578d72800bf303","2","1","2025-07-23T11:43:26.699Z","","","","","","","","","","","StressQ","","50","","","","","","","","","","","","","","","","","","","","","","","","","","","","",""
"3687","","<div style=""width:500px;"">
  <p>What best describes how you currently feel?</p>
  </div>","65","html-slider-response","13","231828","0.0-5.0-4.0","215","1","2025-07-23 11:39:36","1f75c3e559b7213887762d5229550c2b","41.246.139.147","Mozilla/5.0 (Windows NT 10.0; Win64; x64) AppleWebKit/537.36 (KHTML, like Gecko) Chrome/138.0.0.0 Safari/537.36","WebKit","Chrome","138.0.0.0","Windows","10.0","https://app.prolific.com/","en-US,en;q=0.9","650ac282d9578d72800bf303","683db9eb0562dbf637994deb","6880c9d571c1bd156936bb13","2","1","650ac282d9578d72800bf303","2","1","2025-07-23T11:43:30.387Z","","","","","","","","","","","MotivationQ","","50","","","","","","","","","","","","","","","","","","","","","","","","","","","","",""
"","","","","ctl-task-cpt","14","267458","0.0-5.0-0.1","215","1","2025-07-23 11:39:36","1f75c3e559b7213887762d5229550c2b","41.246.139.147","Mozilla/5.0 (Windows NT 10.0; Win64; x64) AppleWebKit/537.36 (KHTML, like Gecko) Chrome/138.0.0.0 Safari/537.36","WebKit","Chrome","138.0.0.0","Windows","10.0","https://app.prolific.com/","en-US,en;q=0.9","650ac282d9578d72800bf303","683db9eb0562dbf637994deb","6880c9d571c1bd156936bb13","2","1","650ac282d9578d72800bf303","2","1","2025-07-23T11:44:06.017Z","","","","","","","","","","","","","","win-only","3","g1:SW,g2:NE","0.9","2","0","237322","1711.9","6716.5","32621.9","1","4","8","6","2","8","7","7","0","0.05303030303030303","1627.1","3000","145","[""up"",""right""]","{""num_key_presses"":8,""num_perfect"":6,""num_errors"":1,""num_randdir"":1,""num_randdir_good_moves"":1,""num_whilered"":0,""num_whileblue"":1,""num_blue"":2,""num_good_moves"":7}","[293.22232142857143,296.12857142857143,0.2,293.22232142857143,296.12857142857143,104.2,293.22232142857143,296.12857142857143,204.4,293.22232142857143,296.12857142857143,309.2,293.22232142857143,296.12857142857143,409.2,293.22232142857143,296.12857142857143,514.3,293.22232142857143,296.12857142857143,619.3,293.22232142857143,296.12857142857143,724.3,300.22232142857143,244.12857142857143,828.9,550.2223214285714,-4.871428571428574,929.9,589.2223214285714,-33.871428571428574,1033.6,592.2223214285714,-34.871428571428574,1134.1,566.2223214285714,12.128571428571426,1234.3,555.2223214285714,24.128571428571426,1338.8,555.2223214285714,25.128571428571426,1444.5,555.2223214285714,25.128571428571426,1549.4,555.2223214285714,25.128571428571426,1654.4,555.2223214285714,25.128571428571426,1759.1,555.2223214285714,25.128571428571426,1864,555.2223214285714,25.128571428571426,1965,555.2223214285714,25.128571428571426,2069.2,555.2223214285714,25.128571428571426,2169.3,555.2223214285714,25.128571428571426,2270.1,555.2223214285714,25.128571428571426,2373.5,555.2223214285714,25.128571428571426,2473.7,555.2223214285714,25.128571428571426,2574,555.2223214285714,25.128571428571426,2679.1,555.2223214285714,25.128571428571426,2783.8,555.2223214285714,25.128571428571426,2889.3,555.2223214285714,25.128571428571426,2989.8,555.2223214285714,25.128571428571426,3090.4,555.2223214285714,25.128571428571426,3190.4,555.2223214285714,25.128571428571426,3294.6,555.2223214285714,25.128571428571426,3394.6,555.2223214285714,25.128571428571426,3494.6,555.2223214285714,25.128571428571426,3599.4,555.2223214285714,25.128571428571426,3703.5,555.2223214285714,25.128571428571426,3804.2,555.2223214285714,25.128571428571426,3904.3,555.2223214285714,25.128571428571426,4009.2,555.2223214285714,25.128571428571426,4109.3,555.2223214285714,25.128571428571426,4214.8,555.2223214285714,25.128571428571426,4315.1,555.2223214285714,25.128571428571426,4419.3,555.2223214285714,25.128571428571426,4523.3,555.2223214285714,25.128571428571426,4624.9,555.2223214285714,25.128571428571426,4729,555.2223214285714,25.128571428571426,4830,555.2223214285714,25.128571428571426,4933.9]","[1521.2,1521.2,1000,0,521.2,""oops"",""up"",""right"",""good_move"",5281.5,3760.2,3393.7,1521.4,366.5,""while_blue"",""up"",""down"",""bad_move"",8426.5,3144.7,2651.4,5281.8,493.3,""smooth"",""up"",""up"",""good_move"",11297.3,2870.5,2515.7,8426.8,354.8,""smooth"",""up"",""up"",""good_move"",17003.2,5705.7,2162.9,14499.1,341.2,""smooth"",""up"",""up"",""good_move"",19842.8,2839.5,2409.4,17003.3,430.1,""smooth"",""right"",""right"",""good_move"",23001.3,3158.4,2771.4,19842.9,387,""smooth"",""up"",""up"",""good_move"",25818.2,2816.7,2457.9,23001.5,358.8,""smooth"",""right"",""right"",""good_move""]","",""
"2972","","<div style=""width:500px;"">
  <p>What determined the result of this run?</p>
  </div>","17","html-slider-response","15","270430","0.0-5.0-1.1","215","1","2025-07-23 11:39:36","1f75c3e559b7213887762d5229550c2b","41.246.139.147","Mozilla/5.0 (Windows NT 10.0; Win64; x64) AppleWebKit/537.36 (KHTML, like Gecko) Chrome/138.0.0.0 Safari/537.36","WebKit","Chrome","138.0.0.0","Windows","10.0","https://app.prolific.com/","en-US,en;q=0.9","650ac282d9578d72800bf303","683db9eb0562dbf637994deb","6880c9d571c1bd156936bb13","2","1","650ac282d9578d72800bf303","2","1","2025-07-23T11:44:08.989Z","","","","","","","","","","","AttribQ","","50","","","","","","","","","","","","","","","","","","","","","","","","","","","","",""
"4738","","<div style=""width:500px;"">
  <p>How much control did you have over the ball?</p>
  </div>","46","html-slider-response","16","275169","0.0-5.0-2.1","215","1","2025-07-23 11:39:36","1f75c3e559b7213887762d5229550c2b","41.246.139.147","Mozilla/5.0 (Windows NT 10.0; Win64; x64) AppleWebKit/537.36 (KHTML, like Gecko) Chrome/138.0.0.0 Safari/537.36","WebKit","Chrome","138.0.0.0","Windows","10.0","https://app.prolific.com/","en-US,en;q=0.9","650ac282d9578d72800bf303","683db9eb0562dbf637994deb","6880c9d571c1bd156936bb13","2","1","650ac282d9578d72800bf303","2","1","2025-07-23T11:44:13.728Z","","","","","","","","","","","ControlQ","","50","","","","","","","","","","","","","","","","","","","","","","","","","","","","",""
"3651","","<div style=""width:500px;"">
  <p>How would you describe your current emotional state?</p>
  </div>","18","html-slider-response","17","278820","0.0-5.0-3.1","215","1","2025-07-23 11:39:36","1f75c3e559b7213887762d5229550c2b","41.246.139.147","Mozilla/5.0 (Windows NT 10.0; Win64; x64) AppleWebKit/537.36 (KHTML, like Gecko) Chrome/138.0.0.0 Safari/537.36","WebKit","Chrome","138.0.0.0","Windows","10.0","https://app.prolific.com/","en-US,en;q=0.9","650ac282d9578d72800bf303","683db9eb0562dbf637994deb","6880c9d571c1bd156936bb13","2","1","650ac282d9578d72800bf303","2","1","2025-07-23T11:44:17.379Z","","","","","","","","","","","StressQ","","50","","","","","","","","","","","","","","","","","","","","","","","","","","","","",""
"2969","","<div style=""width:500px;"">
  <p>What best describes how you currently feel?</p>
  </div>","60","html-slider-response","18","281789","0.0-5.0-4.1","215","1","2025-07-23 11:39:36","1f75c3e559b7213887762d5229550c2b","41.246.139.147","Mozilla/5.0 (Windows NT 10.0; Win64; x64) AppleWebKit/537.36 (KHTML, like Gecko) Chrome/138.0.0.0 Safari/537.36","WebKit","Chrome","138.0.0.0","Windows","10.0","https://app.prolific.com/","en-US,en;q=0.9","650ac282d9578d72800bf303","683db9eb0562dbf637994deb","6880c9d571c1bd156936bb13","2","1","650ac282d9578d72800bf303","2","1","2025-07-23T11:44:20.349Z","","","","","","","","","","","MotivationQ","","50","","","","","","","","","","","","","","","","","","","","","","","","","","","","",""
"","","","","ctl-task-cpt","19","322266","0.0-5.0-0.2","215","1","2025-07-23 11:39:36","1f75c3e559b7213887762d5229550c2b","41.246.139.147","Mozilla/5.0 (Windows NT 10.0; Win64; x64) AppleWebKit/537.36 (KHTML, like Gecko) Chrome/138.0.0.0 Safari/537.36","WebKit","Chrome","138.0.0.0","Windows","10.0","https://app.prolific.com/","en-US,en;q=0.9","650ac282d9578d72800bf303","683db9eb0562dbf637994deb","6880c9d571c1bd156936bb13","2","1","650ac282d9578d72800bf303","2","1","2025-07-23T11:45:00.825Z","","","","","","","","","","","","","","win-only","3","g1:SW,g2:NE","0.8","3","0","287284.8","1237.2","6240.7","37457.1","1","4","8","6","1","1","0","7","7","0.05303030303030303","2069.4","3000","5","[""down"",""left""]","{""num_key_presses"":8,""num_perfect"":5,""num_errors"":1,""num_randdir"":2,""num_randdir_good_moves"":0,""num_whilered"":0,""num_whileblue"":1,""num_blue"":4,""num_good_moves"":6}","[294.22232142857143,293.12857142857143,0.3,294.22232142857143,293.12857142857143,103.3,294.22232142857143,293.12857142857143,205,294.22232142857143,293.12857142857143,308.8,294.22232142857143,293.12857142857143,408.9,294.22232142857143,293.12857142857143,509.9,294.22232142857143,293.12857142857143,613.7,294.22232142857143,293.12857142857143,719.4,294.22232142857143,293.12857142857143,824.8,294.22232142857143,293.12857142857143,928.4,294.22232142857143,293.12857142857143,1028.9,294.22232142857143,293.12857142857143,1133.1,294.22232142857143,293.12857142857143,1234.1,229.22232142857143,381.12857142857143,1334.4,164.22232142857143,370.12857142857143,1439.4,104.22232142857143,383.12857142857143,1544.9,93.22232142857143,447.12857142857143,1648.3,85.22232142857143,560.1285714285714,1748.8,77.22232142857143,562.1285714285714,1853.6,77.22232142857143,562.1285714285714,1954.3,77.22232142857143,562.1285714285714,2058.7,77.22232142857143,562.1285714285714,2159.2,77.22232142857143,562.1285714285714,2259.6,77.22232142857143,562.1285714285714,2364.2,77.22232142857143,562.1285714285714,2469.4,77.22232142857143,562.1285714285714,2575.1,77.22232142857143,562.1285714285714,2679,77.22232142857143,562.1285714285714,2783.3,77.22232142857143,562.1285714285714,2888.8,77.22232142857143,562.1285714285714,2993.9,77.22232142857143,562.1285714285714,3098.8,77.22232142857143,562.1285714285714,3203.3,77.22232142857143,562.1285714285714,3304.6,77.22232142857143,562.1285714285714,3408.7,77.22232142857143,562.1285714285714,3509,77.22232142857143,562.1285714285714,3609.2,77.22232142857143,562.1285714285714,3713.2,77.22232142857143,562.1285714285714,3814.6,77.22232142857143,562.1285714285714,3919.7,77.22232142857143,562.1285714285714,4023.5,77.22232142857143,562.1285714285714,4123.9,77.22232142857143,562.1285714285714,4228.3,77.22232142857143,562.1285714285714,4328.3,77.22232142857143,562.1285714285714,4428.8,77.22232142857143,562.1285714285714,4528.9,77.22232142857143,562.1285714285714,4629.8,77.22232142857143,562.1285714285714,4733.2,77.22232142857143,562.1285714285714,4834.1,77.22232142857143,562.1285714285714,4938.5]","[1489.2,1489.2,1000,0,489.2,""smooth"",""down"",""down"",""good_move"",6334.4,4845,1806.9,4151,376.5,""oops"",""down"",""up"",""bad_move"",12943.8,6609.2,3123.8,9390.5,429.5,""oops"",""down"",""up"",""bad_move"",19433.9,6490,2472.4,16465.5,496,""smooth"",""down"",""down"",""good_move"",22345,2910.9,2495.8,19434.1,415.1,""smooth"",""left"",""left"",""good_move"",25045,2699.7,2294.7,22345.3,405,""while_blue"",""down"",""left"",""good_move"",27768.3,2723.1,2190.3,25045.2,532.8,""smooth"",""down"",""down"",""good_move"",31117.8,3349.3,3043.1,27768.5,306.2,""smooth"",""down"",""down"",""good_move""]","",""
"4869","","<div style=""width:500px;"">
  <p>What determined the result of this run?</p>
  </div>","4","html-slider-response","20","327136","0.0-5.0-1.2","215","1","2025-07-23 11:39:36","1f75c3e559b7213887762d5229550c2b","41.246.139.147","Mozilla/5.0 (Windows NT 10.0; Win64; x64) AppleWebKit/537.36 (KHTML, like Gecko) Chrome/138.0.0.0 Safari/537.36","WebKit","Chrome","138.0.0.0","Windows","10.0","https://app.prolific.com/","en-US,en;q=0.9","650ac282d9578d72800bf303","683db9eb0562dbf637994deb","6880c9d571c1bd156936bb13","2","1","650ac282d9578d72800bf303","2","1","2025-07-23T11:45:05.695Z","","","","","","","","","","","AttribQ","","50","","","","","","","","","","","","","","","","","","","","","","","","","","","","",""
"3426","","<div style=""width:500px;"">
  <p>How much control did you have over the ball?</p>
  </div>","14","html-slider-response","21","330562","0.0-5.0-2.2","215","1","2025-07-23 11:39:36","1f75c3e559b7213887762d5229550c2b","41.246.139.147","Mozilla/5.0 (Windows NT 10.0; Win64; x64) AppleWebKit/537.36 (KHTML, like Gecko) Chrome/138.0.0.0 Safari/537.36","WebKit","Chrome","138.0.0.0","Windows","10.0","https://app.prolific.com/","en-US,en;q=0.9","650ac282d9578d72800bf303","683db9eb0562dbf637994deb","6880c9d571c1bd156936bb13","2","1","650ac282d9578d72800bf303","2","1","2025-07-23T11:45:09.121Z","","","","","","","","","","","ControlQ","","50","","","","","","","","","","","","","","","","","","","","","","","","","","","","",""
"3560","","<div style=""width:500px;"">
  <p>How would you describe your current emotional state?</p>
  </div>","14","html-slider-response","22","334123","0.0-5.0-3.2","215","1","2025-07-23 11:39:36","1f75c3e559b7213887762d5229550c2b","41.246.139.147","Mozilla/5.0 (Windows NT 10.0; Win64; x64) AppleWebKit/537.36 (KHTML, like Gecko) Chrome/138.0.0.0 Safari/537.36","WebKit","Chrome","138.0.0.0","Windows","10.0","https://app.prolific.com/","en-US,en;q=0.9","650ac282d9578d72800bf303","683db9eb0562dbf637994deb","6880c9d571c1bd156936bb13","2","1","650ac282d9578d72800bf303","2","1","2025-07-23T11:45:12.682Z","","","","","","","","","","","StressQ","","50","","","","","","","","","","","","","","","","","","","","","","","","","","","","",""
"4933","","<div style=""width:500px;"">
  <p>What best describes how you currently feel?</p>
  </div>","64","html-slider-response","23","339057","0.0-5.0-4.2","215","1","2025-07-23 11:39:36","1f75c3e559b7213887762d5229550c2b","41.246.139.147","Mozilla/5.0 (Windows NT 10.0; Win64; x64) AppleWebKit/537.36 (KHTML, like Gecko) Chrome/138.0.0.0 Safari/537.36","WebKit","Chrome","138.0.0.0","Windows","10.0","https://app.prolific.com/","en-US,en;q=0.9","650ac282d9578d72800bf303","683db9eb0562dbf637994deb","6880c9d571c1bd156936bb13","2","1","650ac282d9578d72800bf303","2","1","2025-07-23T11:45:17.616Z","","","","","","","","","","","MotivationQ","","50","","","","","","","","","","","","","","","","","","","","","","","","","","","","",""
"","","","","ctl-task-cpt","24","369906","0.0-5.0-0.3","215","1","2025-07-23 11:39:36","1f75c3e559b7213887762d5229550c2b","41.246.139.147","Mozilla/5.0 (Windows NT 10.0; Win64; x64) AppleWebKit/537.36 (KHTML, like Gecko) Chrome/138.0.0.0 Safari/537.36","WebKit","Chrome","138.0.0.0","Windows","10.0","https://app.prolific.com/","en-US,en;q=0.9","650ac282d9578d72800bf303","683db9eb0562dbf637994deb","6880c9d571c1bd156936bb13","2","1","650ac282d9578d72800bf303","2","1","2025-07-23T11:45:48.465Z","","","","","","","","","","","","","","win-only","3","g1:SW,g2:NE","0.7","4","0","344551.4","2580.9","7587.2","27830.8","1","4","4","6","2","-4","-4","3","7","0.022727272727272728","1844.3","3000","-2975","[""up"",""right""]","{""num_key_presses"":5,""num_perfect"":3,""num_errors"":0,""num_randdir"":2,""num_randdir_good_moves"":0,""num_whilered"":0,""num_whileblue"":0,""num_blue"":1,""num_good_moves"":3}","[299.22232142857143,294.12857142857143,0.2,299.22232142857143,294.12857142857143,100.5,299.22232142857143,294.12857142857143,204.6,299.22232142857143,294.12857142857143,304.7,299.22232142857143,294.12857142857143,404.8,299.22232142857143,294.12857142857143,505,299.22232142857143,294.12857142857143,605.9,299.22232142857143,294.12857142857143,705.9,299.22232142857143,294.12857142857143,806,221.22232142857143,464.12857142857143,910.1,147.22232142857143,546.1285714285714,1011.2,142.22232142857143,547.1285714285714,1114.8,249.22232142857143,207.12857142857143,1215.6,433.22232142857143,1.1285714285714263,1320.7,444.22232142857143,1.1285714285714263,1425.5,467.22232142857143,17.128571428571426,1526,533.2223214285714,36.128571428571426,1630.3,535.2223214285714,36.128571428571426,1735,535.2223214285714,36.128571428571426,1839.7,535.2223214285714,36.128571428571426,1940,535.2223214285714,36.128571428571426,2046,535.2223214285714,36.128571428571426,2149.5,535.2223214285714,36.128571428571426,2250.6,535.2223214285714,36.128571428571426,2355,535.2223214285714,36.128571428571426,2455.4,535.2223214285714,36.128571428571426,2561.1,535.2223214285714,36.128571428571426,2665.1,535.2223214285714,36.128571428571426,2766,535.2223214285714,36.128571428571426,2869.6,535.2223214285714,36.128571428571426,2971.2,535.2223214285714,36.128571428571426,3075,528.2223214285714,63.128571428571426,3179.6,463.22232142857143,194.12857142857143,3280,552.2223214285714,255.12857142857143,3380,583.2223214285714,245.12857142857143,3481.3,583.2223214285714,245.12857142857143,3581.4,583.2223214285714,245.12857142857143,3685.3,583.2223214285714,245.12857142857143,3789.7,583.2223214285714,245.12857142857143,3889.7,583.2223214285714,245.12857142857143,3989.7,583.2223214285714,245.12857142857143,4094.8,583.2223214285714,245.12857142857143,4199.4,583.2223214285714,245.12857142857143,4299.5,583.2223214285714,245.12857142857143,4400.1,583.2223214285714,245.12857142857143,4500.6,583.2223214285714,245.12857142857143,4605.3,583.2223214285714,245.12857142857143,4705.4,583.2223214285714,245.12857142857143,4806.3,583.2223214285714,245.12857142857143,4910.1]","[1436.7,1436.7,1000,0,436.7,""smooth"",""right"",""right"",""good_move"",8491.2,7054.3,2895.2,5158.8,437.2,""smooth"",""up"",""up"",""good_move"",12070.4,3578.9,3051.1,8491.5,527.8,""oops"",""right"",""down"",""bad_move"",14721,2650.2,2181.9,12070.8,468.3,""oops"",""up"",""down"",""bad_move"",18146.1,3424.9,2306.2,14721.2,1118.7,""smooth"",""up"",""up"",""good_move""]","",""
"4453","","<div style=""width:500px;"">
  <p>What determined the result of this run?</p>
  </div>","4","html-slider-response","25","374360","0.0-5.0-1.3","215","1","2025-07-23 11:39:36","1f75c3e559b7213887762d5229550c2b","41.246.139.147","Mozilla/5.0 (Windows NT 10.0; Win64; x64) AppleWebKit/537.36 (KHTML, like Gecko) Chrome/138.0.0.0 Safari/537.36","WebKit","Chrome","138.0.0.0","Windows","10.0","https://app.prolific.com/","en-US,en;q=0.9","650ac282d9578d72800bf303","683db9eb0562dbf637994deb","6880c9d571c1bd156936bb13","2","1","650ac282d9578d72800bf303","2","1","2025-07-23T11:45:52.920Z","","","","","","","","","","","AttribQ","","50","","","","","","","","","","","","","","","","","","","","","","","","","","","","",""
"3396","","<div style=""width:500px;"">
  <p>How much control did you have over the ball?</p>
  </div>","5","html-slider-response","26","377757","0.0-5.0-2.3","215","1","2025-07-23 11:39:36","1f75c3e559b7213887762d5229550c2b","41.246.139.147","Mozilla/5.0 (Windows NT 10.0; Win64; x64) AppleWebKit/537.36 (KHTML, like Gecko) Chrome/138.0.0.0 Safari/537.36","WebKit","Chrome","138.0.0.0","Windows","10.0","https://app.prolific.com/","en-US,en;q=0.9","650ac282d9578d72800bf303","683db9eb0562dbf637994deb","6880c9d571c1bd156936bb13","2","1","650ac282d9578d72800bf303","2","1","2025-07-23T11:45:56.317Z","","","","","","","","","","","ControlQ","","50","","","","","","","","","","","","","","","","","","","","","","","","","","","","",""
"5922","","<div style=""width:500px;"">
  <p>How would you describe your current emotional state?</p>
  </div>","26","html-slider-response","27","383680","0.0-5.0-3.3","215","1","2025-07-23 11:39:36","1f75c3e559b7213887762d5229550c2b","41.246.139.147","Mozilla/5.0 (Windows NT 10.0; Win64; x64) AppleWebKit/537.36 (KHTML, like Gecko) Chrome/138.0.0.0 Safari/537.36","WebKit","Chrome","138.0.0.0","Windows","10.0","https://app.prolific.com/","en-US,en;q=0.9","650ac282d9578d72800bf303","683db9eb0562dbf637994deb","6880c9d571c1bd156936bb13","2","1","650ac282d9578d72800bf303","2","1","2025-07-23T11:46:02.239Z","","","","","","","","","","","StressQ","","50","","","","","","","","","","","","","","","","","","","","","","","","","","","","",""
"7325","","<div style=""width:500px;"">
  <p>What best describes how you currently feel?</p>
  </div>","55","html-slider-response","28","391006","0.0-5.0-4.3","215","1","2025-07-23 11:39:36","1f75c3e559b7213887762d5229550c2b","41.246.139.147","Mozilla/5.0 (Windows NT 10.0; Win64; x64) AppleWebKit/537.36 (KHTML, like Gecko) Chrome/138.0.0.0 Safari/537.36","WebKit","Chrome","138.0.0.0","Windows","10.0","https://app.prolific.com/","en-US,en;q=0.9","650ac282d9578d72800bf303","683db9eb0562dbf637994deb","6880c9d571c1bd156936bb13","2","1","650ac282d9578d72800bf303","2","1","2025-07-23T11:46:09.565Z","","","","","","","","","","","MotivationQ","","50","","","","","","","","","","","","","","","","","","","","","","","","","","","","",""
"","","","","ctl-task-cpt","29","424901","0.0-5.0-0.4","215","1","2025-07-23 11:39:36","1f75c3e559b7213887762d5229550c2b","41.246.139.147","Mozilla/5.0 (Windows NT 10.0; Win64; x64) AppleWebKit/537.36 (KHTML, like Gecko) Chrome/138.0.0.0 Safari/537.36","WebKit","Chrome","138.0.0.0","Windows","10.0","https://app.prolific.com/","en-US,en;q=0.9","650ac282d9578d72800bf303","683db9eb0562dbf637994deb","6880c9d571c1bd156936bb13","2","1","650ac282d9578d72800bf303","2","1","2025-07-23T11:46:43.461Z","","","","","","","","","","","","","","win-only","3","g1:SW,g2:NE","0.6","5","0","396502.1","2549.4","7551.4","30871.3","1","4","4","6","2","4","3","6","3","0.045454545454545456","1177.8","3000","480","[""up"",""right""]","{""num_key_presses"":8,""num_perfect"":4,""num_errors"":1,""num_randdir"":3,""num_randdir_good_moves"":2,""num_whilered"":0,""num_whileblue"":1,""num_blue"":1,""num_good_moves"":7}","[293.22232142857143,288.12857142857143,0.1,293.22232142857143,288.12857142857143,102.7,293.22232142857143,288.12857142857143,206.9,293.22232142857143,288.12857142857143,311,293.22232142857143,288.12857142857143,411.5,425.22232142857143,149.12857142857143,516.5,466.22232142857143,125.12857142857143,617.1,480.22232142857143,114.12857142857143,721.8,527.2223214285714,67.12857142857143,825.9,556.2223214285714,47.128571428571426,926.4,556.2223214285714,47.128571428571426,1026.8,556.2223214285714,47.128571428571426,1127,556.2223214285714,47.128571428571426,1232.1,556.2223214285714,47.128571428571426,1336.1,556.2223214285714,47.128571428571426,1442.8,556.2223214285714,47.128571428571426,1548,556.2223214285714,47.128571428571426,1652,556.2223214285714,47.128571428571426,1756.1,556.2223214285714,47.128571428571426,1859,556.2223214285714,47.128571428571426,1959.8,556.2223214285714,47.128571428571426,2062.6,556.2223214285714,47.128571428571426,2166.7,556.2223214285714,47.128571428571426,2267.4,556.2223214285714,47.128571428571426,2367.6,556.2223214285714,47.128571428571426,2471.7,556.2223214285714,47.128571428571426,2574.3,556.2223214285714,47.128571428571426,2674.3,556.2223214285714,47.128571428571426,2776.3,556.2223214285714,47.128571428571426,2877.1,556.2223214285714,47.128571428571426,2980.9,556.2223214285714,47.128571428571426,3082.1,556.2223214285714,47.128571428571426,3187.8,556.2223214285714,47.128571428571426,3291.8,556.2223214285714,47.128571428571426,3392.2,556.2223214285714,47.128571428571426,3496.9,556.2223214285714,47.128571428571426,3602.2,556.2223214285714,47.128571428571426,3706.2,556.2223214285714,47.128571428571426,3809.3,556.2223214285714,47.128571428571426,3912,556.2223214285714,47.128571428571426,4016.5,556.2223214285714,47.128571428571426,4122,556.2223214285714,47.128571428571426,4224.1,556.2223214285714,47.128571428571426,4326.1,556.2223214285714,47.128571428571426,4426.3,556.2223214285714,47.128571428571426,4526.5,556.2223214285714,47.128571428571426,4627.2,556.2223214285714,47.128571428571426,4731,556.2223214285714,47.128571428571426,4832.4,556.2223214285714,47.128571428571426,4937.4]","[1383.9,1383.9,1000,0,383.9,""oops"",""right"",""up"",""good_move"",4890.7,3506.5,3076.2,1384.2,430.3,""smooth"",""right"",""right"",""good_move"",7604.9,2714,2222.6,4890.9,491.4,""oops"",""up"",""right"",""good_move"",11138.9,3533.6,3151,7605.3,382.6,""while_blue"",""right"",""right"",""good_move"",14099.2,2959.9,2474.1,11139.3,485.8,""oops"",""up"",""down"",""bad_move"",17475,3375.5,3370.8,14099.5,4.7,""smooth"",""up"",""up"",""good_move"",20202.1,2726.8,2371.1,17475.3,355.7,""smooth"",""up"",""up"",""good_move"",23223.5,3021,2595.7,20202.5,425.3,""smooth"",""up"",""up"",""good_move""]","",""
"3465","","<div style=""width:500px;"">
  <p>What determined the result of this run?</p>
  </div>","16","html-slider-response","30","428368","0.0-5.0-1.4","215","1","2025-07-23 11:39:36","1f75c3e559b7213887762d5229550c2b","41.246.139.147","Mozilla/5.0 (Windows NT 10.0; Win64; x64) AppleWebKit/537.36 (KHTML, like Gecko) Chrome/138.0.0.0 Safari/537.36","WebKit","Chrome","138.0.0.0","Windows","10.0","https://app.prolific.com/","en-US,en;q=0.9","650ac282d9578d72800bf303","683db9eb0562dbf637994deb","6880c9d571c1bd156936bb13","2","1","650ac282d9578d72800bf303","2","1","2025-07-23T11:46:46.927Z","","","","","","","","","","","AttribQ","","50","","","","","","","","","","","","","","","","","","","","","","","","","","","","",""
"2616","","<div style=""width:500px;"">
  <p>How much control did you have over the ball?</p>
  </div>","12","html-slider-response","31","430984","0.0-5.0-2.4","215","1","2025-07-23 11:39:36","1f75c3e559b7213887762d5229550c2b","41.246.139.147","Mozilla/5.0 (Windows NT 10.0; Win64; x64) AppleWebKit/537.36 (KHTML, like Gecko) Chrome/138.0.0.0 Safari/537.36","WebKit","Chrome","138.0.0.0","Windows","10.0","https://app.prolific.com/","en-US,en;q=0.9","650ac282d9578d72800bf303","683db9eb0562dbf637994deb","6880c9d571c1bd156936bb13","2","1","650ac282d9578d72800bf303","2","1","2025-07-23T11:46:49.544Z","","","","","","","","","","","ControlQ","","50","","","","","","","","","","","","","","","","","","","","","","","","","","","","",""
"2489","","<div style=""width:500px;"">
  <p>How would you describe your current emotional state?</p>
  </div>","14","html-slider-response","32","433474","0.0-5.0-3.4","215","1","2025-07-23 11:39:36","1f75c3e559b7213887762d5229550c2b","41.246.139.147","Mozilla/5.0 (Windows NT 10.0; Win64; x64) AppleWebKit/537.36 (KHTML, like Gecko) Chrome/138.0.0.0 Safari/537.36","WebKit","Chrome","138.0.0.0","Windows","10.0","https://app.prolific.com/","en-US,en;q=0.9","650ac282d9578d72800bf303","683db9eb0562dbf637994deb","6880c9d571c1bd156936bb13","2","1","650ac282d9578d72800bf303","2","1","2025-07-23T11:46:52.033Z","","","","","","","","","","","StressQ","","50","","","","","","","","","","","","","","","","","","","","","","","","","","","","",""
"3418","","<div style=""width:500px;"">
  <p>What best describes how you currently feel?</p>
  </div>","50","html-slider-response","33","436893","0.0-5.0-4.4","215","1","2025-07-23 11:39:36","1f75c3e559b7213887762d5229550c2b","41.246.139.147","Mozilla/5.0 (Windows NT 10.0; Win64; x64) AppleWebKit/537.36 (KHTML, like Gecko) Chrome/138.0.0.0 Safari/537.36","WebKit","Chrome","138.0.0.0","Windows","10.0","https://app.prolific.com/","en-US,en;q=0.9","650ac282d9578d72800bf303","683db9eb0562dbf637994deb","6880c9d571c1bd156936bb13","2","1","650ac282d9578d72800bf303","2","1","2025-07-23T11:46:55.452Z","","","","","","","","","","","MotivationQ","","50","","","","","","","","","","","","","","","","","","","","","","","","","","","","",""
"","","","","ctl-task-cpt","34","465799","0.0-5.0-0.5","215","1","2025-07-23 11:39:36","1f75c3e559b7213887762d5229550c2b","41.246.139.147","Mozilla/5.0 (Windows NT 10.0; Win64; x64) AppleWebKit/537.36 (KHTML, like Gecko) Chrome/138.0.0.0 Safari/537.36","WebKit","Chrome","138.0.0.0","Windows","10.0","https://app.prolific.com/","en-US,en;q=0.9","650ac282d9578d72800bf303","683db9eb0562dbf637994deb","6880c9d571c1bd156936bb13","2","1","650ac282d9578d72800bf303","2","1","2025-07-23T11:47:24.358Z","","","","","","","","","","","","","","win-only","3","g1:SW,g2:NE","0.5","6","0","442387.9","1477.8","6480.6","25886.2","1","4","8","6","2","8","8","14","6","0.10606060606060606","1173.7","3000","425","[""up"",""right""]","{""num_key_presses"":6,""num_perfect"":4,""num_errors"":0,""num_randdir"":2,""num_randdir_good_moves"":2,""num_whilered"":0,""num_whileblue"":0,""num_blue"":1,""num_good_moves"":6}","[293.22232142857143,301.12857142857143,0.2,293.22232142857143,301.12857142857143,102.4,293.22232142857143,301.12857142857143,208.7,293.22232142857143,301.12857142857143,309.1,293.22232142857143,301.12857142857143,409.6,530.2223214285714,93.12857142857143,509.7,601.2223214285714,34.128571428571426,612.3,603.2223214285714,31.128571428571426,712.8,591.2223214285714,33.128571428571426,813.1,555.2223214285714,45.128571428571426,917.9,551.2223214285714,46.128571428571426,1025,551.2223214285714,46.128571428571426,1129.3,551.2223214285714,46.128571428571426,1233.1,551.2223214285714,46.128571428571426,1333.2,551.2223214285714,46.128571428571426,1439.6,551.2223214285714,46.128571428571426,1546.6,551.2223214285714,46.128571428571426,1648.3,551.2223214285714,46.128571428571426,1753.4,551.2223214285714,46.128571428571426,1861.3,538.2223214285714,107.12857142857143,1963.5,712.2223214285714,304.12857142857143,2063.8,712.2223214285714,304.12857142857143,2163.8,712.2223214285714,304.12857142857143,2268.3,712.2223214285714,304.12857142857143,2374,712.2223214285714,304.12857142857143,2474.9,712.2223214285714,304.12857142857143,2574.9,712.2223214285714,304.12857142857143,2677.6,712.2223214285714,304.12857142857143,2778.3,712.2223214285714,304.12857142857143,2883.3,712.2223214285714,304.12857142857143,2983.4,712.2223214285714,304.12857142857143,3088.2,712.2223214285714,304.12857142857143,3195.9,712.2223214285714,304.12857142857143,3296.9,712.2223214285714,304.12857142857143,3398.2,712.2223214285714,304.12857142857143,3502.6,712.2223214285714,304.12857142857143,3603.6,712.2223214285714,304.12857142857143,3708.7,712.2223214285714,304.12857142857143,3811,712.2223214285714,304.12857142857143,3912.5,712.2223214285714,304.12857142857143,4013.5,712.2223214285714,304.12857142857143,4118.3,712.2223214285714,304.12857142857143,4218.8,712.2223214285714,304.12857142857143,4323.6,712.2223214285714,304.12857142857143,4423.6,712.2223214285714,304.12857142857143,4526.9,712.2223214285714,304.12857142857143,4629.3,712.2223214285714,304.12857142857143,4733.3,712.2223214285714,304.12857142857143,4838,712.2223214285714,304.12857142857143,4938.4]","[1426.9,1426.9,1000,0,426.9,""oops"",""up"",""right"",""good_move"",6920.9,5493.6,1935.2,4555.7,430,""smooth"",""right"",""right"",""good_move"",10238.9,3317.8,2802.7,6921.1,515.1,""smooth"",""right"",""right"",""good_move"",13324.2,3085.1,2625,10239.1,460.1,""oops"",""up"",""up"",""good_move"",16328.8,3004.3,2613.9,13324.5,390.4,""smooth"",""up"",""up"",""good_move"",19307,2978,2580.9,16329,397.1,""smooth"",""up"",""up"",""good_move""]","",""
"5690","","<div style=""width:500px;"">
  <p>What determined the result of this run?</p>
  </div>","0","html-slider-response","35","471490","0.0-5.0-1.5","215","1","2025-07-23 11:39:36","1f75c3e559b7213887762d5229550c2b","41.246.139.147","Mozilla/5.0 (Windows NT 10.0; Win64; x64) AppleWebKit/537.36 (KHTML, like Gecko) Chrome/138.0.0.0 Safari/537.36","WebKit","Chrome","138.0.0.0","Windows","10.0","https://app.prolific.com/","en-US,en;q=0.9","650ac282d9578d72800bf303","683db9eb0562dbf637994deb","6880c9d571c1bd156936bb13","2","1","650ac282d9578d72800bf303","2","1","2025-07-23T11:47:30.049Z","","","","","","","","","","","AttribQ","","50","","","","","","","","","","","","","","","","","","","","","","","","","","","","",""
"4595","","<div style=""width:500px;"">
  <p>How much control did you have over the ball?</p>
  </div>","13","html-slider-response","36","476086","0.0-5.0-2.5","215","1","2025-07-23 11:39:36","1f75c3e559b7213887762d5229550c2b","41.246.139.147","Mozilla/5.0 (Windows NT 10.0; Win64; x64) AppleWebKit/537.36 (KHTML, like Gecko) Chrome/138.0.0.0 Safari/537.36","WebKit","Chrome","138.0.0.0","Windows","10.0","https://app.prolific.com/","en-US,en;q=0.9","650ac282d9578d72800bf303","683db9eb0562dbf637994deb","6880c9d571c1bd156936bb13","2","1","650ac282d9578d72800bf303","2","1","2025-07-23T11:47:34.645Z","","","","","","","","","","","ControlQ","","50","","","","","","","","","","","","","","","","","","","","","","","","","","","","",""
"3950","","<div style=""width:500px;"">
  <p>How would you describe your current emotional state?</p>
  </div>","12","html-slider-response","37","480037","0.0-5.0-3.5","215","1","2025-07-23 11:39:36","1f75c3e559b7213887762d5229550c2b","41.246.139.147","Mozilla/5.0 (Windows NT 10.0; Win64; x64) AppleWebKit/537.36 (KHTML, like Gecko) Chrome/138.0.0.0 Safari/537.36","WebKit","Chrome","138.0.0.0","Windows","10.0","https://app.prolific.com/","en-US,en;q=0.9","650ac282d9578d72800bf303","683db9eb0562dbf637994deb","6880c9d571c1bd156936bb13","2","1","650ac282d9578d72800bf303","2","1","2025-07-23T11:47:38.596Z","","","","","","","","","","","StressQ","","50","","","","","","","","","","","","","","","","","","","","","","","","","","","","",""
"4664","","<div style=""width:500px;"">
  <p>What best describes how you currently feel?</p>
  </div>","61","html-slider-response","38","484702","0.0-5.0-4.5","215","1","2025-07-23 11:39:36","1f75c3e559b7213887762d5229550c2b","41.246.139.147","Mozilla/5.0 (Windows NT 10.0; Win64; x64) AppleWebKit/537.36 (KHTML, like Gecko) Chrome/138.0.0.0 Safari/537.36","WebKit","Chrome","138.0.0.0","Windows","10.0","https://app.prolific.com/","en-US,en;q=0.9","650ac282d9578d72800bf303","683db9eb0562dbf637994deb","6880c9d571c1bd156936bb13","2","1","650ac282d9578d72800bf303","2","1","2025-07-23T11:47:43.261Z","","","","","","","","","","","MotivationQ","","50","","","","","","","","","","","","","","","","","","","","","","","","","","","","",""
"","","","","ctl-task-cpt","39","516666","0.0-5.0-0.6","215","1","2025-07-23 11:39:36","1f75c3e559b7213887762d5229550c2b","41.246.139.147","Mozilla/5.0 (Windows NT 10.0; Win64; x64) AppleWebKit/537.36 (KHTML, like Gecko) Chrome/138.0.0.0 Safari/537.36","WebKit","Chrome","138.0.0.0","Windows","10.0","https://app.prolific.com/","en-US,en;q=0.9","650ac282d9578d72800bf303","683db9eb0562dbf637994deb","6880c9d571c1bd156936bb13","2","1","650ac282d9578d72800bf303","2","1","2025-07-23T11:48:15.225Z","","","","","","","","","","","","","","win-only","3","g1:SW,g2:NE","0.4","7","0","490197.5","1581.5","6586.3","28946.3","1","4","8","6","2","8","7","21","14","0.1590909090909091","1477.5","3000","495","[""up"",""right""]","{""num_key_presses"":7,""num_perfect"":2,""num_errors"":1,""num_randdir"":4,""num_randdir_good_moves"":4,""num_whilered"":0,""num_whileblue"":0,""num_blue"":1,""num_good_moves"":6}","[295.22232142857143,288.12857142857143,0.2,295.22232142857143,288.12857142857143,103.9,295.22232142857143,288.12857142857143,205.9,295.22232142857143,288.12857142857143,309.3,295.22232142857143,288.12857142857143,410.1,295.22232142857143,288.12857142857143,512.7,295.22232142857143,288.12857142857143,614.7,421.22232142857143,145.12857142857143,716.6,520.2223214285714,69.12857142857143,820.3,555.2223214285714,60.128571428571426,924.5,570.2223214285714,59.128571428571426,1024.5,556.2223214285714,74.12857142857143,1126.9,535.2223214285714,94.12857142857143,1232.1,534.2223214285714,94.12857142857143,1332.1,534.2223214285714,94.12857142857143,1435.3,534.2223214285714,94.12857142857143,1539.4,534.2223214285714,94.12857142857143,1640.7,534.2223214285714,94.12857142857143,1746.7,534.2223214285714,94.12857142857143,1850,534.2223214285714,94.12857142857143,1954.4,534.2223214285714,94.12857142857143,2054.7,534.2223214285714,94.12857142857143,2162,534.2223214285714,94.12857142857143,2264.1,534.2223214285714,94.12857142857143,2364.7,534.2223214285714,94.12857142857143,2465.9,534.2223214285714,94.12857142857143,2570,534.2223214285714,94.12857142857143,2674.4,534.2223214285714,94.12857142857143,2774.7,534.2223214285714,94.12857142857143,2881,534.2223214285714,94.12857142857143,2983.8,534.2223214285714,94.12857142857143,3084.3,534.2223214285714,94.12857142857143,3184.8,534.2223214285714,94.12857142857143,3289.6,534.2223214285714,94.12857142857143,3389.7,534.2223214285714,94.12857142857143,3490.7,534.2223214285714,94.12857142857143,3594.7,534.2223214285714,94.12857142857143,3695.7,534.2223214285714,94.12857142857143,3795.8,534.2223214285714,94.12857142857143,3895.9,534.2223214285714,94.12857142857143,3999.5,534.2223214285714,94.12857142857143,4099.7,534.2223214285714,94.12857142857143,4204.6,534.2223214285714,94.12857142857143,4304.6,534.2223214285714,94.12857142857143,4410.7,534.2223214285714,94.12857142857143,4513.1,534.2223214285714,94.12857142857143,4615.1,534.2223214285714,94.12857142857143,4720.3,534.2223214285714,94.12857142857143,4824.5,534.2223214285714,94.12857142857143,4924.8]","[366.4,366.4,1000,0,-633.6,""error"",""-"",""-"",""no_move"",4532.9,4166.4,2723.1,1369.6,440.2,""oops"",""right"",""up"",""good_move"",7327,2793.8,2324.3,4533.2,469.5,""smooth"",""right"",""right"",""good_move"",10272.5,2945.2,2505,7327.4,440.1,""oops"",""up"",""right"",""good_move"",16452.7,6179.7,2279.6,13799,374.1,""smooth"",""up"",""up"",""good_move"",19459.6,3006.6,2546.7,16453,459.9,""oops"",""right"",""up"",""good_move"",22267.5,2807.6,2411.9,19459.9,395.7,""oops"",""right"",""right"",""good_move""]","",""
"3083","","<div style=""width:500px;"">
  <p>What determined the result of this run?</p>
  </div>","5","html-slider-response","40","519750","0.0-5.0-1.6","215","1","2025-07-23 11:39:36","1f75c3e559b7213887762d5229550c2b","41.246.139.147","Mozilla/5.0 (Windows NT 10.0; Win64; x64) AppleWebKit/537.36 (KHTML, like Gecko) Chrome/138.0.0.0 Safari/537.36","WebKit","Chrome","138.0.0.0","Windows","10.0","https://app.prolific.com/","en-US,en;q=0.9","650ac282d9578d72800bf303","683db9eb0562dbf637994deb","6880c9d571c1bd156936bb13","2","1","650ac282d9578d72800bf303","2","1","2025-07-23T11:48:18.309Z","","","","","","","","","","","AttribQ","","50","","","","","","","","","","","","","","","","","","","","","","","","","","","","",""
"3883","","<div style=""width:500px;"">
  <p>How much control did you have over the ball?</p>
  </div>","34","html-slider-response","41","523634","0.0-5.0-2.6","215","1","2025-07-23 11:39:36","1f75c3e559b7213887762d5229550c2b","41.246.139.147","Mozilla/5.0 (Windows NT 10.0; Win64; x64) AppleWebKit/537.36 (KHTML, like Gecko) Chrome/138.0.0.0 Safari/537.36","WebKit","Chrome","138.0.0.0","Windows","10.0","https://app.prolific.com/","en-US,en;q=0.9","650ac282d9578d72800bf303","683db9eb0562dbf637994deb","6880c9d571c1bd156936bb13","2","1","650ac282d9578d72800bf303","2","1","2025-07-23T11:48:22.193Z","","","","","","","","","","","ControlQ","","50","","","","","","","","","","","","","","","","","","","","","","","","","","","","",""
"4040","","<div style=""width:500px;"">
  <p>How would you describe your current emotional state?</p>
  </div>","16","html-slider-response","42","527675","0.0-5.0-3.6","215","1","2025-07-23 11:39:36","1f75c3e559b7213887762d5229550c2b","41.246.139.147","Mozilla/5.0 (Windows NT 10.0; Win64; x64) AppleWebKit/537.36 (KHTML, like Gecko) Chrome/138.0.0.0 Safari/537.36","WebKit","Chrome","138.0.0.0","Windows","10.0","https://app.prolific.com/","en-US,en;q=0.9","650ac282d9578d72800bf303","683db9eb0562dbf637994deb","6880c9d571c1bd156936bb13","2","1","650ac282d9578d72800bf303","2","1","2025-07-23T11:48:26.234Z","","","","","","","","","","","StressQ","","50","","","","","","","","","","","","","","","","","","","","","","","","","","","","",""
"3171","","<div style=""width:500px;"">
  <p>What best describes how you currently feel?</p>
  </div>","59","html-slider-response","43","530847","0.0-5.0-4.6","215","1","2025-07-23 11:39:36","1f75c3e559b7213887762d5229550c2b","41.246.139.147","Mozilla/5.0 (Windows NT 10.0; Win64; x64) AppleWebKit/537.36 (KHTML, like Gecko) Chrome/138.0.0.0 Safari/537.36","WebKit","Chrome","138.0.0.0","Windows","10.0","https://app.prolific.com/","en-US,en;q=0.9","650ac282d9578d72800bf303","683db9eb0562dbf637994deb","6880c9d571c1bd156936bb13","2","1","650ac282d9578d72800bf303","2","1","2025-07-23T11:48:29.406Z","","","","","","","","","","","MotivationQ","","50","","","","","","","","","","","","","","","","","","","","","","","","","","","","",""
"","","","","ctl-task-cpt","44","554935","0.0-5.0-0.7","215","1","2025-07-23 11:39:36","1f75c3e559b7213887762d5229550c2b","41.246.139.147","Mozilla/5.0 (Windows NT 10.0; Win64; x64) AppleWebKit/537.36 (KHTML, like Gecko) Chrome/138.0.0.0 Safari/537.36","WebKit","Chrome","138.0.0.0","Windows","10.0","https://app.prolific.com/","en-US,en;q=0.9","650ac282d9578d72800bf303","683db9eb0562dbf637994deb","6880c9d571c1bd156936bb13","2","1","650ac282d9578d72800bf303","2","1","2025-07-23T11:48:53.495Z","","","","","","","","","","","","","","win-only","0","g1:NW,g2:SE","0.3","8","0","536341.7","985.7","5987.1","21070.3","1","4","4","6","2","4","4","25","21","0.1893939393939394","1167.9","3000","35","[""down"",""right""]","{""num_key_presses"":6,""num_perfect"":3,""num_errors"":0,""num_randdir"":3,""num_randdir_good_moves"":3,""num_whilered"":0,""num_whileblue"":0,""num_blue"":0,""num_good_moves"":6}","[296.22232142857143,292.12857142857143,0.1,296.22232142857143,292.12857142857143,105.3,296.22232142857143,292.12857142857143,210.7,296.22232142857143,292.12857142857143,316.8,265.22232142857143,265.12857142857143,420.2,118.22232142857143,113.12857142857143,524.6,202.22232142857143,193.12857142857143,625.7,510.22232142857143,501.12857142857143,732.2,528.2223214285714,525.1285714285714,835.2,528.2223214285714,527.1285714285714,939.9,527.2223214285714,527.1285714285714,1041.6,527.2223214285714,527.1285714285714,1147.5,527.2223214285714,527.1285714285714,1247.6,527.2223214285714,527.1285714285714,1350.5,527.2223214285714,527.1285714285714,1450.6,527.2223214285714,527.1285714285714,1554.6,527.2223214285714,527.1285714285714,1655,527.2223214285714,527.1285714285714,1762,527.2223214285714,527.1285714285714,1865.5,527.2223214285714,527.1285714285714,1966.7,527.2223214285714,527.1285714285714,2070,527.2223214285714,527.1285714285714,2170.1,527.2223214285714,527.1285714285714,2270.1,527.2223214285714,527.1285714285714,2370.3,527.2223214285714,527.1285714285714,2476.3,527.2223214285714,527.1285714285714,2580.5,527.2223214285714,527.1285714285714,2680.8,527.2223214285714,527.1285714285714,2785.8,527.2223214285714,527.1285714285714,2891.3,527.2223214285714,527.1285714285714,2996,527.2223214285714,527.1285714285714,3096.3,527.2223214285714,527.1285714285714,3200.1,527.2223214285714,527.1285714285714,3301.3,527.2223214285714,527.1285714285714,3405.9,527.2223214285714,527.1285714285714,3506.8,527.2223214285714,527.1285714285714,3609.9,527.2223214285714,527.1285714285714,3715.5,527.2223214285714,527.1285714285714,3815.8,527.2223214285714,527.1285714285714,3917.4,527.2223214285714,527.1285714285714,4019.8,527.2223214285714,527.1285714285714,4119.8,527.2223214285714,527.1285714285714,4220.4,527.2223214285714,527.1285714285714,4325.3,527.2223214285714,527.1285714285714,4427.6,527.2223214285714,527.1285714285714,4531.4,527.2223214285714,527.1285714285714,4635,527.2223214285714,527.1285714285714,4735.5,527.2223214285714,527.1285714285714,4839.7,527.2223214285714,527.1285714285714,4940.4]","[1549.6,1549.5,1000,0.1,549.5,""smooth"",""down"",""down"",""good_move"",3878.8,2329.1,1756.6,1549.8,572.5,""oops"",""down"",""right"",""good_move"",6647.9,2768.5,2122.4,3879.4,646.1,""smooth"",""down"",""down"",""good_move"",9596.1,2948,2490.4,6648.2,457.5,""oops"",""right"",""right"",""good_move"",12395.1,2798.7,2343.6,9596.4,455.1,""smooth"",""down"",""down"",""good_move"",14994.7,2599.4,2251.1,12395.3,348.3,""oops"",""right"",""right"",""good_move""]","",""
"3543","","<div style=""width:500px;"">
  <p>What determined the result of this run?</p>
  </div>","6","html-slider-response","45","558479","0.0-5.0-1.7","215","1","2025-07-23 11:39:36","1f75c3e559b7213887762d5229550c2b","41.246.139.147","Mozilla/5.0 (Windows NT 10.0; Win64; x64) AppleWebKit/537.36 (KHTML, like Gecko) Chrome/138.0.0.0 Safari/537.36","WebKit","Chrome","138.0.0.0","Windows","10.0","https://app.prolific.com/","en-US,en;q=0.9","650ac282d9578d72800bf303","683db9eb0562dbf637994deb","6880c9d571c1bd156936bb13","2","1","650ac282d9578d72800bf303","2","1","2025-07-23T11:48:57.039Z","","","","","","","","","","","AttribQ","","50","","","","","","","","","","","","","","","","","","","","","","","","","","","","",""
"3688","","<div style=""width:500px;"">
  <p>How much control did you have over the ball?</p>
  </div>","6","html-slider-response","46","562168","0.0-5.0-2.7","215","1","2025-07-23 11:39:36","1f75c3e559b7213887762d5229550c2b","41.246.139.147","Mozilla/5.0 (Windows NT 10.0; Win64; x64) AppleWebKit/537.36 (KHTML, like Gecko) Chrome/138.0.0.0 Safari/537.36","WebKit","Chrome","138.0.0.0","Windows","10.0","https://app.prolific.com/","en-US,en;q=0.9","650ac282d9578d72800bf303","683db9eb0562dbf637994deb","6880c9d571c1bd156936bb13","2","1","650ac282d9578d72800bf303","2","1","2025-07-23T11:49:00.728Z","","","","","","","","","","","ControlQ","","50","","","","","","","","","","","","","","","","","","","","","","","","","","","","",""
"3509","","<div style=""width:500px;"">
  <p>How would you describe your current emotional state?</p>
  </div>","0","html-slider-response","47","565678","0.0-5.0-3.7","215","1","2025-07-23 11:39:36","1f75c3e559b7213887762d5229550c2b","41.246.139.147","Mozilla/5.0 (Windows NT 10.0; Win64; x64) AppleWebKit/537.36 (KHTML, like Gecko) Chrome/138.0.0.0 Safari/537.36","WebKit","Chrome","138.0.0.0","Windows","10.0","https://app.prolific.com/","en-US,en;q=0.9","650ac282d9578d72800bf303","683db9eb0562dbf637994deb","6880c9d571c1bd156936bb13","2","1","650ac282d9578d72800bf303","2","1","2025-07-23T11:49:04.237Z","","","","","","","","","","","StressQ","","50","","","","","","","","","","","","","","","","","","","","","","","","","","","","",""
"3253","","<div style=""width:500px;"">
  <p>What best describes how you currently feel?</p>
  </div>","62","html-slider-response","48","568932","0.0-5.0-4.7","215","1","2025-07-23 11:39:36","1f75c3e559b7213887762d5229550c2b","41.246.139.147","Mozilla/5.0 (Windows NT 10.0; Win64; x64) AppleWebKit/537.36 (KHTML, like Gecko) Chrome/138.0.0.0 Safari/537.36","WebKit","Chrome","138.0.0.0","Windows","10.0","https://app.prolific.com/","en-US,en;q=0.9","650ac282d9578d72800bf303","683db9eb0562dbf637994deb","6880c9d571c1bd156936bb13","2","1","650ac282d9578d72800bf303","2","1","2025-07-23T11:49:07.491Z","","","","","","","","","","","MotivationQ","","50","","","","","","","","","","","","","","","","","","","","","","","","","","","","",""
"","","","","ctl-task-cpt","49","605361","0.0-5.0-0.8","215","1","2025-07-23 11:39:36","1f75c3e559b7213887762d5229550c2b","41.246.139.147","Mozilla/5.0 (Windows NT 10.0; Win64; x64) AppleWebKit/537.36 (KHTML, like Gecko) Chrome/138.0.0.0 Safari/537.36","WebKit","Chrome","138.0.0.0","Windows","10.0","https://app.prolific.com/","en-US,en;q=0.9","650ac282d9578d72800bf303","683db9eb0562dbf637994deb","6880c9d571c1bd156936bb13","2","1","650ac282d9578d72800bf303","2","1","2025-07-23T11:49:43.920Z","","","","","","","","","","","","","","win-only","1","g1:NE,g2:SW","0.2","9","0","574426.5","1553.2","6553.5","33411.3","1","4","4","6","2","-4","-4","21","25","0.1590909090909091","2699.2","3000","-2955","[""down"",""left""]","{""num_key_presses"":6,""num_perfect"":1,""num_errors"":0,""num_randdir"":5,""num_randdir_good_moves"":2,""num_whilered"":0,""num_whileblue"":0,""num_blue"":2,""num_good_moves"":3}","[291.22232142857143,302.12857142857143,0.2,291.22232142857143,302.12857142857143,102.4,291.22232142857143,302.12857142857143,203.1,291.22232142857143,302.12857142857143,308.1,291.22232142857143,302.12857142857143,408.4,291.22232142857143,302.12857142857143,514.7,291.22232142857143,302.12857142857143,618,291.22232142857143,302.12857142857143,723.1,291.22232142857143,302.12857142857143,827.3,291.22232142857143,302.12857142857143,927.4,291.22232142857143,302.12857142857143,1030.8,291.22232142857143,302.12857142857143,1132.9,291.22232142857143,302.12857142857143,1232.9,291.22232142857143,302.12857142857143,1333.7,291.22232142857143,302.12857142857143,1437.6,291.22232142857143,302.12857142857143,1537.7,301.22232142857143,330.12857142857143,1638.6,302.22232142857143,168.12857142857143,1743.6,325.22232142857143,256.12857142857143,1844.1,-63.777678571428574,634.1285714285714,1944.1,-74.77767857142857,610.1285714285714,2048.3,-74.77767857142857,610.1285714285714,2149,-74.77767857142857,610.1285714285714,2250.5,8.222321428571426,538.1285714285714,2353.6,37.222321428571426,525.1285714285714,2458.8,40.222321428571426,527.1285714285714,2559.1,40.222321428571426,527.1285714285714,2661,40.222321428571426,527.1285714285714,2763.5,40.222321428571426,527.1285714285714,2866.7,40.222321428571426,527.1285714285714,2967.3,40.222321428571426,527.1285714285714,3067.7,40.222321428571426,527.1285714285714,3168.2,40.222321428571426,527.1285714285714,3269,40.222321428571426,527.1285714285714,3372.6,40.222321428571426,527.1285714285714,3473.7,40.222321428571426,527.1285714285714,3574.3,40.222321428571426,527.1285714285714,3677.5,40.222321428571426,527.1285714285714,3780.4,40.222321428571426,527.1285714285714,3882.9,40.222321428571426,527.1285714285714,3987.8,40.222321428571426,527.1285714285714,4089,40.222321428571426,527.1285714285714,4194.7,40.222321428571426,527.1285714285714,4297.4,40.222321428571426,527.1285714285714,4398.3,40.222321428571426,527.1285714285714,4503.6,40.222321428571426,527.1285714285714,4604,40.222321428571426,527.1285714285714,4708.1,40.222321428571426,527.1285714285714,4813.5,40.222321428571426,527.1285714285714,4914.5]","[1582.8,1582.8,1000,0,582.8,""smooth"",""down"",""down"",""good_move"",11817.1,10233.9,2414.6,8948.8,453.7,""oops"",""left"",""right"",""bad_move"",14811.1,2993.7,2487.6,11817.4,506.1,""oops"",""left"",""right"",""bad_move"",17966.7,3155.4,2419,14811.3,736.4,""oops"",""left"",""up"",""bad_move"",21624.1,3657,3204,17967.1,453,""oops"",""left"",""down"",""good_move"",24538.8,2914.3,2533.1,21624.5,381.2,""oops"",""left"",""left"",""good_move""]","",""
"3581","","<div style=""width:500px;"">
  <p>What determined the result of this run?</p>
  </div>","0","html-slider-response","50","608943","0.0-5.0-1.8","215","1","2025-07-23 11:39:36","1f75c3e559b7213887762d5229550c2b","41.246.139.147","Mozilla/5.0 (Windows NT 10.0; Win64; x64) AppleWebKit/537.36 (KHTML, like Gecko) Chrome/138.0.0.0 Safari/537.36","WebKit","Chrome","138.0.0.0","Windows","10.0","https://app.prolific.com/","en-US,en;q=0.9","650ac282d9578d72800bf303","683db9eb0562dbf637994deb","6880c9d571c1bd156936bb13","2","1","650ac282d9578d72800bf303","2","1","2025-07-23T11:49:47.502Z","","","","","","","","","","","AttribQ","","50","","","","","","","","","","","","","","","","","","","","","","","","","","","","",""
"2895","","<div style=""width:500px;"">
  <p>How much control did you have over the ball?</p>
  </div>","0","html-slider-response","51","611840","0.0-5.0-2.8","215","1","2025-07-23 11:39:36","1f75c3e559b7213887762d5229550c2b","41.246.139.147","Mozilla/5.0 (Windows NT 10.0; Win64; x64) AppleWebKit/537.36 (KHTML, like Gecko) Chrome/138.0.0.0 Safari/537.36","WebKit","Chrome","138.0.0.0","Windows","10.0","https://app.prolific.com/","en-US,en;q=0.9","650ac282d9578d72800bf303","683db9eb0562dbf637994deb","6880c9d571c1bd156936bb13","2","1","650ac282d9578d72800bf303","2","1","2025-07-23T11:49:50.399Z","","","","","","","","","","","ControlQ","","50","","","","","","","","","","","","","","","","","","","","","","","","","","","","",""
"2749","","<div style=""width:500px;"">
  <p>How would you describe your current emotional state?</p>
  </div>","0","html-slider-response","52","614591","0.0-5.0-3.8","215","1","2025-07-23 11:39:36","1f75c3e559b7213887762d5229550c2b","41.246.139.147","Mozilla/5.0 (Windows NT 10.0; Win64; x64) AppleWebKit/537.36 (KHTML, like Gecko) Chrome/138.0.0.0 Safari/537.36","WebKit","Chrome","138.0.0.0","Windows","10.0","https://app.prolific.com/","en-US,en;q=0.9","650ac282d9578d72800bf303","683db9eb0562dbf637994deb","6880c9d571c1bd156936bb13","2","1","650ac282d9578d72800bf303","2","1","2025-07-23T11:49:53.150Z","","","","","","","","","","","StressQ","","50","","","","","","","","","","","","","","","","","","","","","","","","","","","","",""
"3007","","<div style=""width:500px;"">
  <p>What best describes how you currently feel?</p>
  </div>","30","html-slider-response","53","617598","0.0-5.0-4.8","215","1","2025-07-23 11:39:36","1f75c3e559b7213887762d5229550c2b","41.246.139.147","Mozilla/5.0 (Windows NT 10.0; Win64; x64) AppleWebKit/537.36 (KHTML, like Gecko) Chrome/138.0.0.0 Safari/537.36","WebKit","Chrome","138.0.0.0","Windows","10.0","https://app.prolific.com/","en-US,en;q=0.9","650ac282d9578d72800bf303","683db9eb0562dbf637994deb","6880c9d571c1bd156936bb13","2","1","650ac282d9578d72800bf303","2","1","2025-07-23T11:49:56.157Z","","","","","","","","","","","MotivationQ","","50","","","","","","","","","","","","","","","","","","","","","","","","","","","","",""
"","","","","ctl-task-cpt","54","652255","0.0-5.0-0.9","215","1","2025-07-23 11:39:36","1f75c3e559b7213887762d5229550c2b","41.246.139.147","Mozilla/5.0 (Windows NT 10.0; Win64; x64) AppleWebKit/537.36 (KHTML, like Gecko) Chrome/138.0.0.0 Safari/537.36","WebKit","Chrome","138.0.0.0","Windows","10.0","https://app.prolific.com/","en-US,en;q=0.9","650ac282d9578d72800bf303","683db9eb0562dbf637994deb","6880c9d571c1bd156936bb13","2","1","650ac282d9578d72800bf303","2","1","2025-07-23T11:50:30.814Z","","","","","","","","","","","","","","win-only","2","g1:SE,g2:NW","0.4","10","0","623093.1","2310.2","7311.2","31649.2","1","4","8","6","2","-8","-9","12","21","0.09090909090909091","1229.5","3000","-2765","[""left"",""up""]","{""num_key_presses"":8,""num_perfect"":3,""num_errors"":1,""num_randdir"":4,""num_randdir_good_moves"":1,""num_whilered"":0,""num_whileblue"":0,""num_blue"":0,""num_good_moves"":4}","[292.22232142857143,293.12857142857143,0.4,292.22232142857143,293.12857142857143,100.7,292.22232142857143,293.12857142857143,203.1,292.22232142857143,293.12857142857143,310.8,292.22232142857143,293.12857142857143,410.9,300.22232142857143,303.12857142857143,511.6,184.22232142857143,329.12857142857143,615.5,-16.777678571428574,54.128571428571426,716.3,-4.777678571428574,39.128571428571426,816.9,25.222321428571426,27.128571428571426,924.2,50.222321428571426,32.128571428571426,1025.9,52.222321428571426,34.128571428571426,1126.9,52.222321428571426,34.128571428571426,1227.3,52.222321428571426,34.128571428571426,1327.6,52.222321428571426,34.128571428571426,1430.2,52.222321428571426,34.128571428571426,1530.5,52.222321428571426,34.128571428571426,1631.3,52.222321428571426,34.128571428571426,1736.2,52.222321428571426,34.128571428571426,1836.4,52.222321428571426,34.128571428571426,1945.4,52.222321428571426,34.128571428571426,2045.4,52.222321428571426,34.128571428571426,2146.1,52.222321428571426,34.128571428571426,2247.8,52.222321428571426,34.128571428571426,2355.6,52.222321428571426,34.128571428571426,2461.3,52.222321428571426,34.128571428571426,2565.4,52.222321428571426,34.128571428571426,2665.4,52.222321428571426,34.128571428571426,2766.5,52.222321428571426,34.128571428571426,2874.1,52.222321428571426,34.128571428571426,2975.2,52.222321428571426,34.128571428571426,3076.4,52.222321428571426,34.128571428571426,3177.4,52.222321428571426,34.128571428571426,3282.6,52.222321428571426,34.128571428571426,3385.5,52.222321428571426,34.128571428571426,3490.2,52.222321428571426,34.128571428571426,3595.2,52.222321428571426,34.128571428571426,3696.4,52.222321428571426,34.128571428571426,3801.7,52.222321428571426,34.128571428571426,3903.7,52.222321428571426,34.128571428571426,4006.2,52.222321428571426,34.128571428571426,4107,52.222321428571426,34.128571428571426,4212.1,52.222321428571426,34.128571428571426,4315.5,52.222321428571426,34.128571428571426,4415.9,52.222321428571426,34.128571428571426,4515.9,52.222321428571426,34.128571428571426,4616.2,52.222321428571426,34.128571428571426,4722.9,52.222321428571426,34.128571428571426,4826.4,52.222321428571426,34.128571428571426,4927.7]","[1463.9,1463.9,1000,0,463.9,""smooth"",""up"",""up"",""good_move"",4357.4,2893.2,2453.2,1464.3,439.9,""smooth"",""up"",""up"",""good_move"",6889.4,2531.8,2085.1,4357.6,446.7,""oops"",""up"",""right"",""bad_move"",10121.5,3231.8,2788.4,6889.8,443.4,""oops"",""up"",""right"",""bad_move"",13225,3103.2,2652.3,10121.8,451,""oops"",""up"",""down"",""bad_move"",17037,3811.8,3350.8,13225.2,461,""oops"",""up"",""up"",""good_move"",17692.9,655.6,2801,17037.3,-2145.4,""error"",""-"",""-"",""no_move"",21296.6,3603.6,2221.3,18693.6,381.7,""smooth"",""up"",""up"",""good_move""]","",""
"7209","","<div style=""width:500px;"">
  <p>What determined the result of this run?</p>
  </div>","0","html-slider-response","55","659465","0.0-5.0-1.9","215","1","2025-07-23 11:39:36","1f75c3e559b7213887762d5229550c2b","41.246.139.147","Mozilla/5.0 (Windows NT 10.0; Win64; x64) AppleWebKit/537.36 (KHTML, like Gecko) Chrome/138.0.0.0 Safari/537.36","WebKit","Chrome","138.0.0.0","Windows","10.0","https://app.prolific.com/","en-US,en;q=0.9","650ac282d9578d72800bf303","683db9eb0562dbf637994deb","6880c9d571c1bd156936bb13","2","1","650ac282d9578d72800bf303","2","1","2025-07-23T11:50:38.024Z","","","","","","","","","","","AttribQ","","50","","","","","","","","","","","","","","","","","","","","","","","","","","","","",""
"4085","","<div style=""width:500px;"">
  <p>How much control did you have over the ball?</p>
  </div>","50","html-slider-response","56","663551","0.0-5.0-2.9","215","1","2025-07-23 11:39:36","1f75c3e559b7213887762d5229550c2b","41.246.139.147","Mozilla/5.0 (Windows NT 10.0; Win64; x64) AppleWebKit/537.36 (KHTML, like Gecko) Chrome/138.0.0.0 Safari/537.36","WebKit","Chrome","138.0.0.0","Windows","10.0","https://app.prolific.com/","en-US,en;q=0.9","650ac282d9578d72800bf303","683db9eb0562dbf637994deb","6880c9d571c1bd156936bb13","2","1","650ac282d9578d72800bf303","2","1","2025-07-23T11:50:42.110Z","","","","","","","","","","","ControlQ","","50","","","","","","","","","","","","","","","","","","","","","","","","","","","","",""
"2872","","<div style=""width:500px;"">
  <p>How would you describe your current emotional state?</p>
  </div>","4","html-slider-response","57","666423","0.0-5.0-3.9","215","1","2025-07-23 11:39:36","1f75c3e559b7213887762d5229550c2b","41.246.139.147","Mozilla/5.0 (Windows NT 10.0; Win64; x64) AppleWebKit/537.36 (KHTML, like Gecko) Chrome/138.0.0.0 Safari/537.36","WebKit","Chrome","138.0.0.0","Windows","10.0","https://app.prolific.com/","en-US,en;q=0.9","650ac282d9578d72800bf303","683db9eb0562dbf637994deb","6880c9d571c1bd156936bb13","2","1","650ac282d9578d72800bf303","2","1","2025-07-23T11:50:44.982Z","","","","","","","","","","","StressQ","","50","","","","","","","","","","","","","","","","","","","","","","","","","","","","",""
"2449","","<div style=""width:500px;"">
  <p>What best describes how you currently feel?</p>
  </div>","4","html-slider-response","58","668873","0.0-5.0-4.9","215","1","2025-07-23 11:39:36","1f75c3e559b7213887762d5229550c2b","41.246.139.147","Mozilla/5.0 (Windows NT 10.0; Win64; x64) AppleWebKit/537.36 (KHTML, like Gecko) Chrome/138.0.0.0 Safari/537.36","WebKit","Chrome","138.0.0.0","Windows","10.0","https://app.prolific.com/","en-US,en;q=0.9","650ac282d9578d72800bf303","683db9eb0562dbf637994deb","6880c9d571c1bd156936bb13","2","1","650ac282d9578d72800bf303","2","1","2025-07-23T11:50:47.433Z","","","","","","","","","","","MotivationQ","","50","","","","","","","","","","","","","","","","","","","","","","","","","","","","",""
"","","","","ctl-task-cpt","59","708593","0.0-5.0-0.10","215","1","2025-07-23 11:39:36","1f75c3e559b7213887762d5229550c2b","41.246.139.147","Mozilla/5.0 (Windows NT 10.0; Win64; x64) AppleWebKit/537.36 (KHTML, like Gecko) Chrome/138.0.0.0 Safari/537.36","WebKit","Chrome","138.0.0.0","Windows","10.0","https://app.prolific.com/","en-US,en;q=0.9","650ac282d9578d72800bf303","683db9eb0562dbf637994deb","6880c9d571c1bd156936bb13","2","1","650ac282d9578d72800bf303","2","1","2025-07-23T11:51:27.152Z","","","","","","","","","","","","","","win-only","3","g1:SW,g2:NE","0.5","11","0","674368.5","1194.4","6195.8","36701.4","1","4","4","6","2","-4","-6","6","12","0.045454545454545456","1095.6","3000","-2560","[""up"",""right""]","{""num_key_presses"":9,""num_perfect"":3,""num_errors"":2,""num_randdir"":4,""num_randdir_good_moves"":1,""num_whilered"":0,""num_whileblue"":0,""num_blue"":1,""num_good_moves"":4}","[298.22232142857143,289.12857142857143,0.3,298.22232142857143,289.12857142857143,101.9,298.22232142857143,289.12857142857143,207.8,298.22232142857143,289.12857142857143,307.9,298.22232142857143,289.12857142857143,412,298.22232142857143,289.12857142857143,514.1,443.22232142857143,125.12857142857143,615.1,526.2223214285714,72.12857142857143,716.9,542.2223214285714,67.12857142857143,817,545.2223214285714,60.128571428571426,917.2,545.2223214285714,60.128571428571426,1018.3,545.2223214285714,60.128571428571426,1121.9,545.2223214285714,60.128571428571426,1226,545.2223214285714,60.128571428571426,1329.1,545.2223214285714,60.128571428571426,1433,545.2223214285714,60.128571428571426,1535.4,563.2223214285714,100.12857142857143,1638.3,744.2223214285714,462.12857142857143,1742.6,898.2223214285714,548.1285714285714,1844.1,898.2223214285714,548.1285714285714,1945,898.2223214285714,548.1285714285714,2048,898.2223214285714,548.1285714285714,2153.3,898.2223214285714,548.1285714285714,2253.4,898.2223214285714,548.1285714285714,2357.2,898.2223214285714,548.1285714285714,2465.8,898.2223214285714,548.1285714285714,2567,898.2223214285714,548.1285714285714,2667.9,898.2223214285714,548.1285714285714,2771.7,898.2223214285714,548.1285714285714,2881.9,898.2223214285714,548.1285714285714,2986.4,898.2223214285714,548.1285714285714,3092,898.2223214285714,548.1285714285714,3197.3,898.2223214285714,548.1285714285714,3300.8,898.2223214285714,548.1285714285714,3400.9,898.2223214285714,548.1285714285714,3501,898.2223214285714,548.1285714285714,3602.3,898.2223214285714,548.1285714285714,3705.8,898.2223214285714,548.1285714285714,3807.3,898.2223214285714,548.1285714285714,3915.5,898.2223214285714,548.1285714285714,4018,898.2223214285714,548.1285714285714,4121.4,898.2223214285714,548.1285714285714,4231.7,898.2223214285714,548.1285714285714,4334.3,898.2223214285714,548.1285714285714,4436.8,898.2223214285714,548.1285714285714,4541.1,898.2223214285714,548.1285714285714,4641.2,898.2223214285714,548.1285714285714,4751.7,898.2223214285714,548.1285714285714,4852.7,898.2223214285714,548.1285714285714,4955.9]","[314.7,314.7,1000,0,-685.3,""error"",""-"",""-"",""no_move"",4668.9,4354,3027.2,1316.3,325.4,""smooth"",""right"",""right"",""good_move"",8233.3,3564.1,3108.5,4669.2,455.6,""oops"",""right"",""left"",""bad_move"",10885.6,2651.8,2171.3,8233.8,480.5,""oops"",""right"",""down"",""bad_move"",14197.1,3311.2,2927.4,10886,383.7,""oops"",""right"",""down"",""bad_move"",16926.6,2729.1,2290,14197.5,439.1,""smooth"",""right"",""right"",""good_move"",20180.2,3253.3,1968.5,19861,-1649.3,""error"",""-"",""-"",""no_move"",23671.1,3490.6,2112.9,21180.8,377.4,""smooth"",""right"",""right"",""good_move"",26748.8,3077.5,2433.9,23671.3,643.6,""oops"",""right"",""up"",""good_move""]","",""
"4575","","<div style=""width:500px;"">
  <p>What determined the result of this run?</p>
  </div>","2","html-slider-response","60","713168","0.0-5.0-1.10","215","1","2025-07-23 11:39:36","1f75c3e559b7213887762d5229550c2b","41.246.139.147","Mozilla/5.0 (Windows NT 10.0; Win64; x64) AppleWebKit/537.36 (KHTML, like Gecko) Chrome/138.0.0.0 Safari/537.36","WebKit","Chrome","138.0.0.0","Windows","10.0","https://app.prolific.com/","en-US,en;q=0.9","650ac282d9578d72800bf303","683db9eb0562dbf637994deb","6880c9d571c1bd156936bb13","2","1","650ac282d9578d72800bf303","2","1","2025-07-23T11:51:31.728Z","","","","","","","","","","","AttribQ","","50","","","","","","","","","","","","","","","","","","","","","","","","","","","","",""
"3489","","<div style=""width:500px;"">
  <p>How much control did you have over the ball?</p>
  </div>","0","html-slider-response","61","716659","0.0-5.0-2.10","215","1","2025-07-23 11:39:36","1f75c3e559b7213887762d5229550c2b","41.246.139.147","Mozilla/5.0 (Windows NT 10.0; Win64; x64) AppleWebKit/537.36 (KHTML, like Gecko) Chrome/138.0.0.0 Safari/537.36","WebKit","Chrome","138.0.0.0","Windows","10.0","https://app.prolific.com/","en-US,en;q=0.9","650ac282d9578d72800bf303","683db9eb0562dbf637994deb","6880c9d571c1bd156936bb13","2","1","650ac282d9578d72800bf303","2","1","2025-07-23T11:51:35.218Z","","","","","","","","","","","ControlQ","","50","","","","","","","","","","","","","","","","","","","","","","","","","","","","",""
"3006","","<div style=""width:500px;"">
  <p>How would you describe your current emotional state?</p>
  </div>","0","html-slider-response","62","719665","0.0-5.0-3.10","215","1","2025-07-23 11:39:36","1f75c3e559b7213887762d5229550c2b","41.246.139.147","Mozilla/5.0 (Windows NT 10.0; Win64; x64) AppleWebKit/537.36 (KHTML, like Gecko) Chrome/138.0.0.0 Safari/537.36","WebKit","Chrome","138.0.0.0","Windows","10.0","https://app.prolific.com/","en-US,en;q=0.9","650ac282d9578d72800bf303","683db9eb0562dbf637994deb","6880c9d571c1bd156936bb13","2","1","650ac282d9578d72800bf303","2","1","2025-07-23T11:51:38.224Z","","","","","","","","","","","StressQ","","50","","","","","","","","","","","","","","","","","","","","","","","","","","","","",""
"8277","","<div style=""width:500px;"">
  <p>What best describes how you currently feel?</p>
  </div>","4","html-slider-response","63","727944","0.0-5.0-4.10","215","1","2025-07-23 11:39:36","1f75c3e559b7213887762d5229550c2b","41.246.139.147","Mozilla/5.0 (Windows NT 10.0; Win64; x64) AppleWebKit/537.36 (KHTML, like Gecko) Chrome/138.0.0.0 Safari/537.36","WebKit","Chrome","138.0.0.0","Windows","10.0","https://app.prolific.com/","en-US,en;q=0.9","650ac282d9578d72800bf303","683db9eb0562dbf637994deb","6880c9d571c1bd156936bb13","2","1","650ac282d9578d72800bf303","2","1","2025-07-23T11:51:46.503Z","","","","","","","","","","","MotivationQ","","50","","","","","","","","","","","","","","","","","","","","","","","","","","","","",""
"","","","","ctl-task-cpt","64","760138","0.0-5.0-0.11","215","1","2025-07-23 11:39:36","1f75c3e559b7213887762d5229550c2b","41.246.139.147","Mozilla/5.0 (Windows NT 10.0; Win64; x64) AppleWebKit/537.36 (KHTML, like Gecko) Chrome/138.0.0.0 Safari/537.36","WebKit","Chrome","138.0.0.0","Windows","10.0","https://app.prolific.com/","en-US,en;q=0.9","650ac282d9578d72800bf303","683db9eb0562dbf637994deb","6880c9d571c1bd156936bb13","2","1","650ac282d9578d72800bf303","2","1","2025-07-23T11:52:18.697Z","","","","","","","","","","","","","","win-only","0","g1:NW,g2:SE","0.6","12","0","733438.3","1327.5","6331.3","29176.7","1","4","8","6","2","8","7","13","6","0.09848484848484848","1526.2","3000","80","[""down"",""right""]","{""num_key_presses"":8,""num_perfect"":5,""num_errors"":1,""num_randdir"":2,""num_randdir_good_moves"":1,""num_whilered"":0,""num_whileblue"":1,""num_blue"":1,""num_good_moves"":7}","[292.22232142857143,296.12857142857143,0.1,292.22232142857143,296.12857142857143,104.1,292.22232142857143,296.12857142857143,214.1,292.22232142857143,296.12857142857143,317.7,292.22232142857143,296.12857142857143,418.2,292.22232142857143,296.12857142857143,519.2,292.22232142857143,296.12857142857143,626.6,172.22232142857143,136.12857142857143,733.2,233.22232142857143,170.12857142857143,833.4,628.2223214285714,478.12857142857143,934.7,648.2223214285714,537.1285714285714,1038.3,645.2223214285714,541.1285714285714,1138.7,590.2223214285714,545.1285714285714,1239.4,556.2223214285714,543.1285714285714,1344.8,556.2223214285714,543.1285714285714,1448.2,556.2223214285714,543.1285714285714,1550.4,556.2223214285714,543.1285714285714,1654.3,556.2223214285714,543.1285714285714,1754.9,556.2223214285714,543.1285714285714,1856.5,556.2223214285714,543.1285714285714,1959.1,556.2223214285714,543.1285714285714,2060.3,556.2223214285714,543.1285714285714,2165,556.2223214285714,543.1285714285714,2268.5,556.2223214285714,543.1285714285714,2373.6,556.2223214285714,543.1285714285714,2473.7,556.2223214285714,543.1285714285714,2575.6,556.2223214285714,543.1285714285714,2684.3,556.2223214285714,543.1285714285714,2788.7,556.2223214285714,543.1285714285714,2890.4,556.2223214285714,543.1285714285714,2995.8,556.2223214285714,543.1285714285714,3100,556.2223214285714,543.1285714285714,3203.9,556.2223214285714,543.1285714285714,3304.4,556.2223214285714,543.1285714285714,3412.5,556.2223214285714,543.1285714285714,3513,556.2223214285714,543.1285714285714,3615.7,556.2223214285714,543.1285714285714,3718.4,556.2223214285714,543.1285714285714,3823.8,556.2223214285714,543.1285714285714,3933.9,556.2223214285714,543.1285714285714,4036.5,556.2223214285714,543.1285714285714,4138.6,556.2223214285714,543.1285714285714,4238.7,556.2223214285714,543.1285714285714,4338.9,556.2223214285714,543.1285714285714,4440.7,556.2223214285714,543.1285714285714,4544.8,556.2223214285714,543.1285714285714,4649.4,556.2223214285714,543.1285714285714,4753.2,556.2223214285714,543.1285714285714,4853.3,556.2223214285714,543.1285714285714,4955.2]","[1706.2,1706.2,1000,0,706.2,""smooth"",""down"",""down"",""good_move"",4654.5,2947.8,2480.4,1706.7,467.4,""smooth"",""right"",""right"",""good_move"",8227,3572.2,3109.2,4654.8,463,""smooth"",""down"",""down"",""good_move"",11951.2,3724,3312.7,8227.2,411.3,""smooth"",""right"",""right"",""good_move"",14376.2,2424.7,1988.7,11951.5,436,""oops"",""down"",""down"",""good_move"",16756.7,2380.2,2034.2,14376.5,346,""oops"",""right"",""up"",""bad_move"",19588,2831,2394.6,16757,436.4,""smooth"",""down"",""down"",""good_move"",22742.3,3153.9,2596.6,19588.4,557.3,""while_blue"",""right"",""right"",""good_move""]","",""
"5268","","<div style=""width:500px;"">
  <p>What determined the result of this run?</p>
  </div>","0","html-slider-response","65","765407","0.0-5.0-1.11","215","1","2025-07-23 11:39:36","1f75c3e559b7213887762d5229550c2b","41.246.139.147","Mozilla/5.0 (Windows NT 10.0; Win64; x64) AppleWebKit/537.36 (KHTML, like Gecko) Chrome/138.0.0.0 Safari/537.36","WebKit","Chrome","138.0.0.0","Windows","10.0","https://app.prolific.com/","en-US,en;q=0.9","650ac282d9578d72800bf303","683db9eb0562dbf637994deb","6880c9d571c1bd156936bb13","2","1","650ac282d9578d72800bf303","2","1","2025-07-23T11:52:23.966Z","","","","","","","","","","","AttribQ","","50","","","","","","","","","","","","","","","","","","","","","","","","","","","","",""
"3192","","<div style=""width:500px;"">
  <p>How much control did you have over the ball?</p>
  </div>","0","html-slider-response","66","768600","0.0-5.0-2.11","215","1","2025-07-23 11:39:36","1f75c3e559b7213887762d5229550c2b","41.246.139.147","Mozilla/5.0 (Windows NT 10.0; Win64; x64) AppleWebKit/537.36 (KHTML, like Gecko) Chrome/138.0.0.0 Safari/537.36","WebKit","Chrome","138.0.0.0","Windows","10.0","https://app.prolific.com/","en-US,en;q=0.9","650ac282d9578d72800bf303","683db9eb0562dbf637994deb","6880c9d571c1bd156936bb13","2","1","650ac282d9578d72800bf303","2","1","2025-07-23T11:52:27.159Z","","","","","","","","","","","ControlQ","","50","","","","","","","","","","","","","","","","","","","","","","","","","","","","",""
"4485","","<div style=""width:500px;"">
  <p>How would you describe your current emotional state?</p>
  </div>","0","html-slider-response","67","773086","0.0-5.0-3.11","215","1","2025-07-23 11:39:36","1f75c3e559b7213887762d5229550c2b","41.246.139.147","Mozilla/5.0 (Windows NT 10.0; Win64; x64) AppleWebKit/537.36 (KHTML, like Gecko) Chrome/138.0.0.0 Safari/537.36","WebKit","Chrome","138.0.0.0","Windows","10.0","https://app.prolific.com/","en-US,en;q=0.9","650ac282d9578d72800bf303","683db9eb0562dbf637994deb","6880c9d571c1bd156936bb13","2","1","650ac282d9578d72800bf303","2","1","2025-07-23T11:52:31.645Z","","","","","","","","","","","StressQ","","50","","","","","","","","","","","","","","","","","","","","","","","","","","","","",""
"2599","","<div style=""width:500px;"">
  <p>What best describes how you currently feel?</p>
  </div>","9","html-slider-response","68","775686","0.0-5.0-4.11","215","1","2025-07-23 11:39:36","1f75c3e559b7213887762d5229550c2b","41.246.139.147","Mozilla/5.0 (Windows NT 10.0; Win64; x64) AppleWebKit/537.36 (KHTML, like Gecko) Chrome/138.0.0.0 Safari/537.36","WebKit","Chrome","138.0.0.0","Windows","10.0","https://app.prolific.com/","en-US,en;q=0.9","650ac282d9578d72800bf303","683db9eb0562dbf637994deb","6880c9d571c1bd156936bb13","2","1","650ac282d9578d72800bf303","2","1","2025-07-23T11:52:34.245Z","","","","","","","","","","","MotivationQ","","50","","","","","","","","","","","","","","","","","","","","","","","","","","","","",""
"","","","","ctl-task-cpt","69","820518","0.0-5.0-0.12","215","1","2025-07-23 11:39:36","1f75c3e559b7213887762d5229550c2b","41.246.139.147","Mozilla/5.0 (Windows NT 10.0; Win64; x64) AppleWebKit/537.36 (KHTML, like Gecko) Chrome/138.0.0.0 Safari/537.36","WebKit","Chrome","138.0.0.0","Windows","10.0","https://app.prolific.com/","en-US,en;q=0.9","650ac282d9578d72800bf303","683db9eb0562dbf637994deb","6880c9d571c1bd156936bb13","2","1","650ac282d9578d72800bf303","2","1","2025-07-23T11:53:19.077Z","","","","","","","","","","","","","","win-only","2","g1:SE,g2:NW","0.7","13","0","781181.4","1800.8","6806.2","41810.5","1","4","4","6","2","-4","-4","9","13","0.06818181818181818","1080.5","3000","-2950","[""left"",""up""]","{""num_key_presses"":6,""num_perfect"":5,""num_errors"":0,""num_randdir"":1,""num_randdir_good_moves"":0,""num_whilered"":0,""num_whileblue"":0,""num_blue"":5,""num_good_moves"":5}","[300.22232142857143,300.12857142857143,0.2,300.22232142857143,300.12857142857143,100.4,300.22232142857143,300.12857142857143,200.7,300.22232142857143,300.12857142857143,304.9,300.22232142857143,300.12857142857143,405.5,300.22232142857143,300.12857142857143,510.8,272.22232142857143,282.12857142857143,615.3,94.22232142857143,104.12857142857143,720.8,75.22232142857143,60.128571428571426,820.8,75.22232142857143,60.128571428571426,921,75.22232142857143,60.128571428571426,1024.9,75.22232142857143,60.128571428571426,1129.9,75.22232142857143,60.128571428571426,1230.4,75.22232142857143,60.128571428571426,1331.1,75.22232142857143,60.128571428571426,1435.5,75.22232142857143,60.128571428571426,1540.5,75.22232142857143,60.128571428571426,1640.5,75.22232142857143,60.128571428571426,1745.3,75.22232142857143,60.128571428571426,1845.3,75.22232142857143,60.128571428571426,1945.7,75.22232142857143,60.128571428571426,2045.7,75.22232142857143,60.128571428571426,2146.1,75.22232142857143,60.128571428571426,2249.8,75.22232142857143,60.128571428571426,2356.3,75.22232142857143,60.128571428571426,2459.7,75.22232142857143,60.128571428571426,2559.7,75.22232142857143,60.128571428571426,2660.8,75.22232142857143,60.128571428571426,2765.7,75.22232142857143,60.128571428571426,2866.4,75.22232142857143,60.128571428571426,2966.4,75.22232142857143,60.128571428571426,3069.6,75.22232142857143,60.128571428571426,3169.7,75.22232142857143,60.128571428571426,3274.5,75.22232142857143,60.128571428571426,3374.7,75.22232142857143,60.128571428571426,3478.1,75.22232142857143,60.128571428571426,3580.9,75.22232142857143,60.128571428571426,3685.3,75.22232142857143,60.128571428571426,3790.2,75.22232142857143,60.128571428571426,3896.9,75.22232142857143,60.128571428571426,4000,75.22232142857143,60.128571428571426,4105,75.22232142857143,60.128571428571426,4205.4,75.22232142857143,60.128571428571426,4310.1,75.22232142857143,60.128571428571426,4414.6,75.22232142857143,60.128571428571426,4516.5,75.22232142857143,60.128571428571426,4620.5,75.22232142857143,60.128571428571426,4724.8,75.22232142857143,60.128571428571426,4829.8,75.22232142857143,60.128571428571426,4934.8]","[4576.3,4576.3,2186,2004.7,385.6,""smooth"",""up"",""up"",""good_move"",11345.3,6768.6,2166.8,8765.5,413,""smooth"",""up"",""up"",""good_move"",16806.8,5461.1,1771.1,14577.5,458.2,""oops"",""up"",""down"",""bad_move"",23132.5,6325.2,2360.8,20299.7,472,""smooth"",""up"",""up"",""good_move"",26612,3479.2,2797.4,23132.8,681.8,""smooth"",""left"",""left"",""good_move"",29073.6,2461.2,2003.9,26612.4,457.3,""smooth"",""left"",""left"",""good_move""]","",""
"3863","","<div style=""width:500px;"">
  <p>What determined the result of this run?</p>
  </div>","0","html-slider-response","70","824382","0.0-5.0-1.12","215","1","2025-07-23 11:39:36","1f75c3e559b7213887762d5229550c2b","41.246.139.147","Mozilla/5.0 (Windows NT 10.0; Win64; x64) AppleWebKit/537.36 (KHTML, like Gecko) Chrome/138.0.0.0 Safari/537.36","WebKit","Chrome","138.0.0.0","Windows","10.0","https://app.prolific.com/","en-US,en;q=0.9","650ac282d9578d72800bf303","683db9eb0562dbf637994deb","6880c9d571c1bd156936bb13","2","1","650ac282d9578d72800bf303","2","1","2025-07-23T11:53:22.941Z","","","","","","","","","","","AttribQ","","50","","","","","","","","","","","","","","","","","","","","","","","","","","","","",""
"2626","","<div style=""width:500px;"">
  <p>How much control did you have over the ball?</p>
  </div>","4","html-slider-response","71","827009","0.0-5.0-2.12","215","1","2025-07-23 11:39:36","1f75c3e559b7213887762d5229550c2b","41.246.139.147","Mozilla/5.0 (Windows NT 10.0; Win64; x64) AppleWebKit/537.36 (KHTML, like Gecko) Chrome/138.0.0.0 Safari/537.36","WebKit","Chrome","138.0.0.0","Windows","10.0","https://app.prolific.com/","en-US,en;q=0.9","650ac282d9578d72800bf303","683db9eb0562dbf637994deb","6880c9d571c1bd156936bb13","2","1","650ac282d9578d72800bf303","2","1","2025-07-23T11:53:25.568Z","","","","","","","","","","","ControlQ","","50","","","","","","","","","","","","","","","","","","","","","","","","","","","","",""
"2360","","<div style=""width:500px;"">
  <p>How would you describe your current emotional state?</p>
  </div>","43","html-slider-response","72","829370","0.0-5.0-3.12","215","1","2025-07-23 11:39:36","1f75c3e559b7213887762d5229550c2b","41.246.139.147","Mozilla/5.0 (Windows NT 10.0; Win64; x64) AppleWebKit/537.36 (KHTML, like Gecko) Chrome/138.0.0.0 Safari/537.36","WebKit","Chrome","138.0.0.0","Windows","10.0","https://app.prolific.com/","en-US,en;q=0.9","650ac282d9578d72800bf303","683db9eb0562dbf637994deb","6880c9d571c1bd156936bb13","2","1","650ac282d9578d72800bf303","2","1","2025-07-23T11:53:27.929Z","","","","","","","","","","","StressQ","","50","","","","","","","","","","","","","","","","","","","","","","","","","","","","",""
"2330","","<div style=""width:500px;"">
  <p>What best describes how you currently feel?</p>
  </div>","46","html-slider-response","73","831701","0.0-5.0-4.12","215","1","2025-07-23 11:39:36","1f75c3e559b7213887762d5229550c2b","41.246.139.147","Mozilla/5.0 (Windows NT 10.0; Win64; x64) AppleWebKit/537.36 (KHTML, like Gecko) Chrome/138.0.0.0 Safari/537.36","WebKit","Chrome","138.0.0.0","Windows","10.0","https://app.prolific.com/","en-US,en;q=0.9","650ac282d9578d72800bf303","683db9eb0562dbf637994deb","6880c9d571c1bd156936bb13","2","1","650ac282d9578d72800bf303","2","1","2025-07-23T11:53:30.260Z","","","","","","","","","","","MotivationQ","","50","","","","","","","","","","","","","","","","","","","","","","","","","","","","",""
"","","","","ctl-task-cpt","74","869394","0.0-5.0-0.13","215","1","2025-07-23 11:39:36","1f75c3e559b7213887762d5229550c2b","41.246.139.147","Mozilla/5.0 (Windows NT 10.0; Win64; x64) AppleWebKit/537.36 (KHTML, like Gecko) Chrome/138.0.0.0 Safari/537.36","WebKit","Chrome","138.0.0.0","Windows","10.0","https://app.prolific.com/","en-US,en;q=0.9","650ac282d9578d72800bf303","683db9eb0562dbf637994deb","6880c9d571c1bd156936bb13","2","1","650ac282d9578d72800bf303","2","1","2025-07-23T11:54:07.953Z","","","","","","","","","","","","","","win-only","3","g1:SW,g2:NE","0.8","14","0","837196.7","2647.7","7652.6","34672.4","1","4","8","6","1","-1","-3","6","9","0.045454545454545456","1934.5","3000","-2770","[""down"",""left""]","{""num_key_presses"":9,""num_perfect"":6,""num_errors"":2,""num_randdir"":1,""num_randdir_good_moves"":0,""num_whilered"":0,""num_whileblue"":2,""num_blue"":2,""num_good_moves"":6}","[298.22232142857143,292.12857142857143,0.3,298.22232142857143,292.12857142857143,102.4,298.22232142857143,292.12857142857143,203,298.22232142857143,292.12857142857143,303.2,298.22232142857143,292.12857142857143,403.8,298.22232142857143,292.12857142857143,509.7,298.22232142857143,292.12857142857143,610.5,311.22232142857143,262.12857142857143,717.2,536.2223214285714,36.128571428571426,821.5,577.2223214285714,3.1285714285714263,923.8,584.2223214285714,0.12857142857142634,1029.3,567.2223214285714,31.128571428571426,1135.6,363.22232142857143,215.12857142857143,1238.3,168.22232142857143,373.12857142857143,1338.9,152.22232142857143,409.12857142857143,1445.2,87.22232142857143,477.12857142857143,1549,67.22232142857143,510.12857142857143,1650,67.22232142857143,526.1285714285714,1755.8,67.22232142857143,526.1285714285714,1860.6,67.22232142857143,526.1285714285714,1965,67.22232142857143,526.1285714285714,2066.4,67.22232142857143,526.1285714285714,2170.7,67.22232142857143,526.1285714285714,2274.6,67.22232142857143,526.1285714285714,2379.7,67.22232142857143,526.1285714285714,2484.7,67.22232142857143,526.1285714285714,2588.1,67.22232142857143,526.1285714285714,2690.1,67.22232142857143,526.1285714285714,2794.7,67.22232142857143,526.1285714285714,2905,67.22232142857143,526.1285714285714,3009.5,67.22232142857143,526.1285714285714,3115,67.22232142857143,526.1285714285714,3218.4,67.22232142857143,526.1285714285714,3321.1,67.22232142857143,526.1285714285714,3424.2,67.22232142857143,526.1285714285714,3524.7,67.22232142857143,526.1285714285714,3629.4,67.22232142857143,526.1285714285714,3733.5,67.22232142857143,526.1285714285714,3838.5,67.22232142857143,526.1285714285714,3939.1,67.22232142857143,526.1285714285714,4039.7,67.22232142857143,526.1285714285714,4144.2,67.22232142857143,526.1285714285714,4245.1,67.22232142857143,526.1285714285714,4347.8,67.22232142857143,526.1285714285714,4448.5,67.22232142857143,526.1285714285714,4551.1,67.22232142857143,526.1285714285714,4653.3,67.22232142857143,526.1285714285714,4759.4,67.22232142857143,526.1285714285714,4864.9,67.22232142857143,526.1285714285714,4969.3]","[1448.2,1448.2,1000,0,448.2,""smooth"",""down"",""down"",""good_move"",4133.8,2685.3,2238.9,1448.5,446.4,""oops"",""left"",""right"",""bad_move"",7196.3,3062.1,2610.4,4134.2,451.7,""smooth"",""left"",""left"",""good_move"",10211.1,3014.5,2581.4,7196.6,433.1,""smooth"",""left"",""left"",""good_move"",12981.9,2770.6,2319.1,10211.3,451.5,""smooth"",""left"",""left"",""good_move"",15582.5,2600.4,2213.1,12982.1,387.3,""while_blue"",""down"",""right"",""bad_move"",18673.6,3090.9,2683,15582.8,407.9,""while_blue"",""down"",""up"",""bad_move"",21976.6,3302.4,2769.8,18674.2,532.6,""smooth"",""down"",""down"",""good_move"",24716.6,2739.7,2311.2,21976.9,428.5,""smooth"",""down"",""down"",""good_move""]","",""
"3269","","<div style=""width:500px;"">
  <p>What determined the result of this run?</p>
  </div>","2","html-slider-response","75","872664","0.0-5.0-1.13","215","1","2025-07-23 11:39:36","1f75c3e559b7213887762d5229550c2b","41.246.139.147","Mozilla/5.0 (Windows NT 10.0; Win64; x64) AppleWebKit/537.36 (KHTML, like Gecko) Chrome/138.0.0.0 Safari/537.36","WebKit","Chrome","138.0.0.0","Windows","10.0","https://app.prolific.com/","en-US,en;q=0.9","650ac282d9578d72800bf303","683db9eb0562dbf637994deb","6880c9d571c1bd156936bb13","2","1","650ac282d9578d72800bf303","2","1","2025-07-23T11:54:11.224Z","","","","","","","","","","","AttribQ","","50","","","","","","","","","","","","","","","","","","","","","","","","","","","","",""
"4968","","<div style=""width:500px;"">
  <p>How much control did you have over the ball?</p>
  </div>","7","html-slider-response","76","877634","0.0-5.0-2.13","215","1","2025-07-23 11:39:36","1f75c3e559b7213887762d5229550c2b","41.246.139.147","Mozilla/5.0 (Windows NT 10.0; Win64; x64) AppleWebKit/537.36 (KHTML, like Gecko) Chrome/138.0.0.0 Safari/537.36","WebKit","Chrome","138.0.0.0","Windows","10.0","https://app.prolific.com/","en-US,en;q=0.9","650ac282d9578d72800bf303","683db9eb0562dbf637994deb","6880c9d571c1bd156936bb13","2","1","650ac282d9578d72800bf303","2","1","2025-07-23T11:54:16.193Z","","","","","","","","","","","ControlQ","","50","","","","","","","","","","","","","","","","","","","","","","","","","","","","",""
"4282","","<div style=""width:500px;"">
  <p>How would you describe your current emotional state?</p>
