"rt","response_timestamp","stimulus","response","trial_type","trial_index","time_elapsed","internal_node_id","run_id","condition","recorded_at","source_code_version","ip","user_agent","device","browser","browser_version","platform","platform_version","referer","accept_language","PROLIFIC_PID","STUDY_ID","SESSION_ID","WEEK","BATCH","prolific_id","week","batch","realtime","success","responses","item_order","radio_event_ids","radio_event_times","key_event_times","mouse_event_times","straightlining","zigzagging","honeypot","eventType","view_history","slider_start","which_type","canvas_config","goals_layout","control_level","trial_number","tutorial_trial_number","trial_start_time","phase1_start_time","phase2_start_time","phase3_start_time","goal_1_value","goal_1_distance","goal_2_value","goal_2_distance","goal_selected","outcome","outcome_total","participant_final_score","participant_initial_score","participant_final_score_prop","goal_choice_rt","allocated_time","allocated_time_remaining","goal_direction","counts","mouse_movements","key_presses","question_order","question_id"
"226961","1753292840629","<p style='font-size:40px;line-height:1.25'><strong>Welcome to the experiment!</strong></p><p style='font-size:1.1em;line-height:1.25'>Thank you for participanting in our experiment again! You will be asked to play the Dysfunctional Ball Game again. We will briefly recap the rules before we start.</p><p style='font-size:1.1em;line-height:1.25'>Press <strong>Next</strong> to continue.</p>","0","custom-html-button-response","0","226966","0.0-0.0","228","1","2025-07-23 17:43:33","1f75c3e559b7213887762d5229550c2b","94.10.147.75","Mozilla/5.0 (Windows NT 10.0; Win64; x64) AppleWebKit/537.36 (KHTML, like Gecko) Chrome/138.0.0.0 Safari/537.36 Edg/138.0.0.0","WebKit","Edge","138.0.0.0","Windows","10.0","https://app.prolific.com/","en-GB,en;q=0.9,en-US;q=0.8","6702f60844f21087e0840e3d","683db9eb0562dbf637994deb","68811e74ea026eed3b9eb95c","2","1","6702f60844f21087e0840e3d","2","1","2025-07-23T17:47:20.630Z","","","","","","","","","","","","","","","","","","","","","","","","","","","","","","","","","","","","","","","","","",""
"125045","","","","fullscreen","1","353026","0.0-1.0","228","1","2025-07-23 17:43:33","1f75c3e559b7213887762d5229550c2b","94.10.147.75","Mozilla/5.0 (Windows NT 10.0; Win64; x64) AppleWebKit/537.36 (KHTML, like Gecko) Chrome/138.0.0.0 Safari/537.36 Edg/138.0.0.0","WebKit","Edge","138.0.0.0","Windows","10.0","https://app.prolific.com/","en-GB,en;q=0.9,en-US;q=0.8","6702f60844f21087e0840e3d","683db9eb0562dbf637994deb","68811e74ea026eed3b9eb95c","2","1","6702f60844f21087e0840e3d","2","1","","true","","","","","","","","","","","","","","","","","","","","","","","","","","","","","","","","","","","","","","","","",""
"4244","1753292970937","<p style='font-size:1.1em;line-height:1.25'>In the following, we will ask you a few questions relating to your feelings in the last 24 hours.<br></p><p style='font-size:1.1em;line-height:1.25'>Press the <strong>Next</strong> button to continue.</p>","0","custom-html-button-response","2","357274","0.0-2.0-0.0","228","1","2025-07-23 17:43:33","1f75c3e559b7213887762d5229550c2b","94.10.147.75","Mozilla/5.0 (Windows NT 10.0; Win64; x64) AppleWebKit/537.36 (KHTML, like Gecko) Chrome/138.0.0.0 Safari/537.36 Edg/138.0.0.0","WebKit","Edge","138.0.0.0","Windows","10.0","https://app.prolific.com/","en-GB,en;q=0.9,en-US;q=0.8","6702f60844f21087e0840e3d","683db9eb0562dbf637994deb","68811e74ea026eed3b9eb95c","2","1","6702f60844f21087e0840e3d","2","1","2025-07-23T17:49:30.938Z","","","","","","","","","","","","","","","","","","","","","","","","","","","","","","","","","","","","","","","","","",""
"183905.5","","","","survey-template","3","541186","0.0-2.0-1.0","228","1","2025-07-23 17:43:33","1f75c3e559b7213887762d5229550c2b","94.10.147.75","Mozilla/5.0 (Windows NT 10.0; Win64; x64) AppleWebKit/537.36 (KHTML, like Gecko) Chrome/138.0.0.0 Safari/537.36 Edg/138.0.0.0","WebKit","Edge","138.0.0.0","Windows","10.0","https://app.prolific.com/","en-GB,en;q=0.9,en-US;q=0.8","6702f60844f21087e0840e3d","683db9eb0562dbf637994deb","68811e74ea026eed3b9eb95c","2","1","6702f60844f21087e0840e3d","2","1","2025-07-23T17:52:34.850Z","","{""Q01"":""3"",""Q02"":""2"",""Q03"":""1"",""Q04"":""4"",""Q05"":""3"",""Q06"":""3"",""Q07"":""3"",""Q08"":""0"",""Q09"":""4"",""Q10"":""5"",""Q11"":""4"",""Q12"":""3"",""Q13"":""5"",""Q14"":""4"",""Q15"":""4"",""Q16"":""3"",""Q17"":""4"",""Q18"":""4"",""Q19"":""1"",""Q20"":""3"",""Q21"":""4"",""Q22"":""3""}","[0,1,2,3,4,5,6,7,8,9,10,11,12,13,14,15,16,17,18,19,20,21]","[""Q01"",""Q02"",""Q03"",""Q04"",""Q05"",""Q06"",""Q07"",""Q08"",""Q09"",""Q10"",""Q11"",""Q12"",""Q13"",""Q14"",""Q15"",""Q16"",""Q16"",""Q17"",""Q18"",""Q19"",""Q20"",""Q21"",""Q22""]","[4448.5,7284.399999856949,10471.799999952316,12584.299999952316,15078.199999809265,19262.599999904633,21288.799999952316,25650.199999809265,38127,41508.39999985695,43781.39999985695,47414.199999809265,50888.39999985695,55686.39999985695,59374.699999809265,94329,97506.59999990463,102229.69999980927,105363.79999995232,122987.39999985695,159701,176032.89999985695,182499.19999980927]","[]","[0,4448.5,7284.399999856949,10471.799999952316,12584.299999952316,15078.199999809265,19262.599999904633,21288.799999952316,25650.199999809265,38127,41508.39999985695,43781.39999985695,47414.199999809265,50888.39999985695,54140.39999985695,55686.39999985695,59374.699999809265,94329,97506.59999990463,98914.59999990463,101214.39999985695,102229.69999980927,105363.79999995232,122987.39999985695,157904.39999985695,159701,174799.59999990463,176032.89999985695,182499.19999980927,183901.89999985695]","0.36363636363636365","0.5238095238095238","0","drsp","","","","","","","","","","","","","","","","","","","","","","","","","","","","","","",""
"15783.100000143051","","","","survey-template","4","556971","0.0-2.0-2.0","228","1","2025-07-23 17:43:33","1f75c3e559b7213887762d5229550c2b","94.10.147.75","Mozilla/5.0 (Windows NT 10.0; Win64; x64) AppleWebKit/537.36 (KHTML, like Gecko) Chrome/138.0.0.0 Safari/537.36 Edg/138.0.0.0","WebKit","Edge","138.0.0.0","Windows","10.0","https://app.prolific.com/","en-GB,en;q=0.9,en-US;q=0.8","6702f60844f21087e0840e3d","683db9eb0562dbf637994deb","68811e74ea026eed3b9eb95c","2","1","6702f60844f21087e0840e3d","2","1","2025-07-23T17:52:50.635Z","","{""Q01"":""4"",""Q02"":""2"",""Q03"":""5""}","[0,1,2]","[""Q01"",""Q02"",""Q03""]","[4390.900000095367,8288.700000047684,13736.400000095367]","[]","[4390.900000095367,8288.700000047684,12068.600000143051,13736.400000095367,15782.300000190735]","0.3333333333333333","0.5","0","stress","","","","","","","","","","","","","","","","","","","","","","","","","","","","","","",""
"241368","","","","instructions","5","798340","0.0-3.0-0.0","228","1","2025-07-23 17:43:33","1f75c3e559b7213887762d5229550c2b","94.10.147.75","Mozilla/5.0 (Windows NT 10.0; Win64; x64) AppleWebKit/537.36 (KHTML, like Gecko) Chrome/138.0.0.0 Safari/537.36 Edg/138.0.0.0","WebKit","Edge","138.0.0.0","Windows","10.0","https://app.prolific.com/","en-GB,en;q=0.9,en-US;q=0.8","6702f60844f21087e0840e3d","683db9eb0562dbf637994deb","68811e74ea026eed3b9eb95c","2","1","6702f60844f21087e0840e3d","2","1","","","","","","","","","","","","","[{""page_index"":0,""viewing_time"":241368}]","","","","","","","","","","","","","","","","","","","","","","","","","","","","","",""
"33775","","<p>Before you start with this game please answer the following three questions yourself. </p>
  <p>Through this game, we measure several aspects of your cognitive performance, such as reaction times, multi-tasking capabilities </p>
  <p>and the ability to assess the situation you are in.</p>
  <p></p>
  <p><b>How good do you usually are in such tasks?</b></p>","61","html-slider-response","6","832117","0.0-4.0-0.0","228","1","2025-07-23 17:43:33","1f75c3e559b7213887762d5229550c2b","94.10.147.75","Mozilla/5.0 (Windows NT 10.0; Win64; x64) AppleWebKit/537.36 (KHTML, like Gecko) Chrome/138.0.0.0 Safari/537.36 Edg/138.0.0.0","WebKit","Edge","138.0.0.0","Windows","10.0","https://app.prolific.com/","en-GB,en;q=0.9,en-US;q=0.8","6702f60844f21087e0840e3d","683db9eb0562dbf637994deb","68811e74ea026eed3b9eb95c","2","1","6702f60844f21087e0840e3d","2","1","2025-07-23T17:57:25.781Z","","","","","","","","","","","PreSkillQ","","50","","","","","","","","","","","","","","","","","","","","","","","","","","","","",""
"5548","","<div style=""width:500px;"">
  <p>How well do you think you will perform in this task compared to other participants?</p>
  </div>","60","html-slider-response","7","837666","0.0-4.0-1.0","228","1","2025-07-23 17:43:33","1f75c3e559b7213887762d5229550c2b","94.10.147.75","Mozilla/5.0 (Windows NT 10.0; Win64; x64) AppleWebKit/537.36 (KHTML, like Gecko) Chrome/138.0.0.0 Safari/537.36 Edg/138.0.0.0","WebKit","Edge","138.0.0.0","Windows","10.0","https://app.prolific.com/","en-GB,en;q=0.9,en-US;q=0.8","6702f60844f21087e0840e3d","683db9eb0562dbf637994deb","68811e74ea026eed3b9eb95c","2","1","6702f60844f21087e0840e3d","2","1","2025-07-23T17:57:31.330Z","","","","","","","","","","","PrePerfQ","","50","","","","","","","","","","","","","","","","","","","","","","","","","","","","",""
"8597","","<div style=""width:500px;"">
  <p>What best describes how you currently feel?</p>
  </div>","55","html-slider-response","8","846263","0.0-4.0-2.0","228","1","2025-07-23 17:43:33","1f75c3e559b7213887762d5229550c2b","94.10.147.75","Mozilla/5.0 (Windows NT 10.0; Win64; x64) AppleWebKit/537.36 (KHTML, like Gecko) Chrome/138.0.0.0 Safari/537.36 Edg/138.0.0.0","WebKit","Edge","138.0.0.0","Windows","10.0","https://app.prolific.com/","en-GB,en;q=0.9,en-US;q=0.8","6702f60844f21087e0840e3d","683db9eb0562dbf637994deb","68811e74ea026eed3b9eb95c","2","1","6702f60844f21087e0840e3d","2","1","2025-07-23T17:57:39.928Z","","","","","","","","","","","PreMotivationQ","","50","","","","","","","","","","","","","","","","","","","","","","","","","","","","",""
"","","","","ctl-task-cpt","9","871633","0.0-5.0-0.0","228","1","2025-07-23 17:43:33","1f75c3e559b7213887762d5229550c2b","94.10.147.75","Mozilla/5.0 (Windows NT 10.0; Win64; x64) AppleWebKit/537.36 (KHTML, like Gecko) Chrome/138.0.0.0 Safari/537.36 Edg/138.0.0.0","WebKit","Edge","138.0.0.0","Windows","10.0","https://app.prolific.com/","en-GB,en;q=0.9,en-US;q=0.8","6702f60844f21087e0840e3d","683db9eb0562dbf637994deb","68811e74ea026eed3b9eb95c","2","1","6702f60844f21087e0840e3d","2","1","2025-07-23T17:58:05.297Z","","","","","","","","","","","","","","win-only","0","g1:NW,g2:SE","1","1","0","847652.9","8388.7","13391","22362.8","1","4","4","6","2","-4","-5","0","0","0","5002.2","3000","-3000","[""down"",""right""]","{""num_key_presses"":3,""num_perfect"":1,""num_errors"":1,""num_randdir"":0,""num_randdir_good_moves"":0,""num_whilered"":1,""num_whileblue"":0,""num_blue"":0,""num_good_moves"":1}","[300.22232142857143,298.12857142857143,0.5,300.22232142857143,298.12857142857143,101.7,300.22232142857143,298.12857142857143,203.5,300.22232142857143,298.12857142857143,307.3,300.22232142857143,298.12857142857143,407.3,300.22232142857143,298.12857142857143,513.5,300.22232142857143,298.12857142857143,617.6,300.22232142857143,298.12857142857143,723.5,300.22232142857143,298.12857142857143,824.1,300.22232142857143,298.12857142857143,927.8,300.22232142857143,298.12857142857143,1028.5,300.22232142857143,298.12857142857143,1129.3,300.22232142857143,298.12857142857143,1231.7,300.22232142857143,298.12857142857143,1333.5,300.22232142857143,298.12857142857143,1437,300.22232142857143,298.12857142857143,1537,300.22232142857143,298.12857142857143,1637.3,300.22232142857143,298.12857142857143,1737.4,300.22232142857143,298.12857142857143,1841.9,300.22232142857143,298.12857142857143,1947.4,300.22232142857143,298.12857142857143,2053.4,300.22232142857143,298.12857142857143,2157.5,300.22232142857143,298.12857142857143,2262.2,300.22232142857143,298.12857142857143,2362.3,300.22232142857143,298.12857142857143,2462.7,300.22232142857143,298.12857142857143,2562.7,300.22232142857143,298.12857142857143,2667.6,300.22232142857143,298.12857142857143,2767.6,300.22232142857143,298.12857142857143,2872,300.22232142857143,298.12857142857143,2972.2,300.22232142857143,298.12857142857143,3075.1,300.22232142857143,298.12857142857143,3177,300.22232142857143,298.12857142857143,3278.1,300.22232142857143,298.12857142857143,3383.4,300.22232142857143,298.12857142857143,3487,300.22232142857143,298.12857142857143,3587.8,300.22232142857143,298.12857142857143,3692.6,300.22232142857143,298.12857142857143,3797.4,300.22232142857143,298.12857142857143,3902.4,300.22232142857143,298.12857142857143,4010.4,300.22232142857143,298.12857142857143,4111.8,300.22232142857143,298.12857142857143,4211.9,300.22232142857143,298.12857142857143,4313.2,300.22232142857143,298.12857142857143,4417.2,300.22232142857143,298.12857142857143,4517.5,300.22232142857143,298.12857142857143,4623.4,300.22232142857143,298.12857142857143,4726.9,300.22232142857143,298.12857142857143,4827.7,300.22232142857143,298.12857142857143,4932.4]","[2397.9,2397.9,1000,0,1397.9,""smooth"",""right"",""right"",""good_move"",2830.8,431.8,2779.1,2399.1,-2347.4,""error"",""-"",""-"",""no_move"",3058.5,227.1,2779.1,2399.1,-2119.6,""while_red"",""-"",""-"",""no_move""]","",""
"7592","","<div style=""width:500px;"">
  <p>What determined the result of this run?</p>
  </div>","99","html-slider-response","10","879226","0.0-5.0-1.0","228","1","2025-07-23 17:43:33","1f75c3e559b7213887762d5229550c2b","94.10.147.75","Mozilla/5.0 (Windows NT 10.0; Win64; x64) AppleWebKit/537.36 (KHTML, like Gecko) Chrome/138.0.0.0 Safari/537.36 Edg/138.0.0.0","WebKit","Edge","138.0.0.0","Windows","10.0","https://app.prolific.com/","en-GB,en;q=0.9,en-US;q=0.8","6702f60844f21087e0840e3d","683db9eb0562dbf637994deb","68811e74ea026eed3b9eb95c","2","1","6702f60844f21087e0840e3d","2","1","2025-07-23T17:58:12.890Z","","","","","","","","","","","AttribQ","","50","","","","","","","","","","","","","","","","","","","","","","","","","","","","",""
"5991","","<div style=""width:500px;"">
  <p>How much control did you have over the ball?</p>
  </div>","55","html-slider-response","11","885218","0.0-5.0-2.0","228","1","2025-07-23 17:43:33","1f75c3e559b7213887762d5229550c2b","94.10.147.75","Mozilla/5.0 (Windows NT 10.0; Win64; x64) AppleWebKit/537.36 (KHTML, like Gecko) Chrome/138.0.0.0 Safari/537.36 Edg/138.0.0.0","WebKit","Edge","138.0.0.0","Windows","10.0","https://app.prolific.com/","en-GB,en;q=0.9,en-US;q=0.8","6702f60844f21087e0840e3d","683db9eb0562dbf637994deb","68811e74ea026eed3b9eb95c","2","1","6702f60844f21087e0840e3d","2","1","2025-07-23T17:58:18.883Z","","","","","","","","","","","ControlQ","","50","","","","","","","","","","","","","","","","","","","","","","","","","","","","",""
"7088","","<div style=""width:500px;"">
  <p>How would you describe your current emotional state?</p>
  </div>","43","html-slider-response","12","892307","0.0-5.0-3.0","228","1","2025-07-23 17:43:33","1f75c3e559b7213887762d5229550c2b","94.10.147.75","Mozilla/5.0 (Windows NT 10.0; Win64; x64) AppleWebKit/537.36 (KHTML, like Gecko) Chrome/138.0.0.0 Safari/537.36 Edg/138.0.0.0","WebKit","Edge","138.0.0.0","Windows","10.0","https://app.prolific.com/","en-GB,en;q=0.9,en-US;q=0.8","6702f60844f21087e0840e3d","683db9eb0562dbf637994deb","68811e74ea026eed3b9eb95c","2","1","6702f60844f21087e0840e3d","2","1","2025-07-23T17:58:25.971Z","","","","","","","","","","","StressQ","","50","","","","","","","","","","","","","","","","","","","","","","","","","","","","",""
"5213","","<div style=""width:500px;"">
  <p>What best describes how you currently feel?</p>
  </div>","61","html-slider-response","13","897520","0.0-5.0-4.0","228","1","2025-07-23 17:43:33","1f75c3e559b7213887762d5229550c2b","94.10.147.75","Mozilla/5.0 (Windows NT 10.0; Win64; x64) AppleWebKit/537.36 (KHTML, like Gecko) Chrome/138.0.0.0 Safari/537.36 Edg/138.0.0.0","WebKit","Edge","138.0.0.0","Windows","10.0","https://app.prolific.com/","en-GB,en;q=0.9,en-US;q=0.8","6702f60844f21087e0840e3d","683db9eb0562dbf637994deb","68811e74ea026eed3b9eb95c","2","1","6702f60844f21087e0840e3d","2","1","2025-07-23T17:58:31.184Z","","","","","","","","","","","MotivationQ","","50","","","","","","","","","","","","","","","","","","","","","","","","","","","","",""
"","","","","ctl-task-cpt","14","941773","0.0-5.0-0.1","228","1","2025-07-23 17:43:33","1f75c3e559b7213887762d5229550c2b","94.10.147.75","Mozilla/5.0 (Windows NT 10.0; Win64; x64) AppleWebKit/537.36 (KHTML, like Gecko) Chrome/138.0.0.0 Safari/537.36 Edg/138.0.0.0","WebKit","Edge","138.0.0.0","Windows","10.0","https://app.prolific.com/","en-GB,en;q=0.9,en-US;q=0.8","6702f60844f21087e0840e3d","683db9eb0562dbf637994deb","68811e74ea026eed3b9eb95c","2","1","6702f60844f21087e0840e3d","2","1","2025-07-23T17:59:15.437Z","","","","","","","","","","","","","","win-only","0","g1:NW,g2:SE","0.9","2","0","898908.4","1883.9","6885.7","41246.2","1","4","8","6","1","1","-5","0","0","0","5001.8","3000","640","[""left"",""up""]","{""num_key_presses"":13,""num_perfect"":4,""num_errors"":6,""num_randdir"":0,""num_randdir_good_moves"":0,""num_whilered"":3,""num_whileblue"":0,""num_blue"":3,""num_good_moves"":4}","[299.22232142857143,295.12857142857143,0.3,299.22232142857143,295.12857142857143,101.9,299.22232142857143,295.12857142857143,206.9,299.22232142857143,295.12857142857143,312.6,252.22232142857143,450.12857142857143,417.2,230.22232142857143,540.1285714285714,522,230.22232142857143,540.1285714285714,626.7,230.22232142857143,540.1285714285714,727.1,230.22232142857143,540.1285714285714,827.1,230.22232142857143,540.1285714285714,932.3,230.22232142857143,540.1285714285714,1037.1,230.22232142857143,540.1285714285714,1141.7,230.22232142857143,540.1285714285714,1241.7,230.22232142857143,540.1285714285714,1341.8,230.22232142857143,540.1285714285714,1448.1,230.22232142857143,540.1285714285714,1551.9,230.22232142857143,540.1285714285714,1657,230.22232142857143,540.1285714285714,1758.5,230.22232142857143,540.1285714285714,1862.4,230.22232142857143,540.1285714285714,1967.6,230.22232142857143,540.1285714285714,2067.7,230.22232142857143,540.1285714285714,2171.8,230.22232142857143,540.1285714285714,2271.9,230.22232142857143,540.1285714285714,2372.1,230.22232142857143,540.1285714285714,2472.2,230.22232142857143,540.1285714285714,2576.9,230.22232142857143,540.1285714285714,2677.2,230.22232142857143,540.1285714285714,2781.6,230.22232142857143,540.1285714285714,2881.9,230.22232142857143,540.1285714285714,2987,230.22232142857143,540.1285714285714,3091.5,230.22232142857143,540.1285714285714,3191.8,230.22232142857143,540.1285714285714,3292.3,230.22232142857143,540.1285714285714,3396.7,230.22232142857143,540.1285714285714,3498,230.22232142857143,540.1285714285714,3601.6,230.22232142857143,540.1285714285714,3701.7,230.22232142857143,540.1285714285714,3807.3,230.22232142857143,540.1285714285714,3911.5,230.22232142857143,540.1285714285714,4012.6,230.22232142857143,540.1285714285714,4117.1,230.22232142857143,540.1285714285714,4222.1,230.22232142857143,540.1285714285714,4322.4,230.22232142857143,540.1285714285714,4426.7,230.22232142857143,540.1285714285714,4527,230.22232142857143,540.1285714285714,4632.3,230.22232142857143,540.1285714285714,4736.7,230.22232142857143,540.1285714285714,4836.7,230.22232142857143,540.1285714285714,4942]","[893.3,893.3,1000,0,-106.7,""error"",""-"",""-"",""no_move"",1092.3,198.7,1000,0,92.3,""while_red"",""-"",""-"",""no_move"",3682.6,2789,1904.6,1895.3,-117.3,""error"",""-"",""-"",""no_move"",8465,4782.2,2916.6,4684.7,863.7,""smooth"",""left"",""left"",""good_move"",8721.8,256.3,3311.4,8465.5,-3055.1,""error"",""-"",""-"",""no_move"",8902.8,180.7,3311.4,8465.5,-2874.1,""while_red"",""-"",""-"",""no_move"",9122,399.9,3311.4,8465.5,-2654.9,""while_red"",""-"",""-"",""no_move"",14793.2,6071.1,2010.6,12581.5,201.1,""smooth"",""left"",""left"",""good_move"",15322.3,528.4,2980.5,14793.9,-2452.1,""error"",""-"",""-"",""no_move"",18372.9,3050.3,2548.3,16325.4,-500.8,""error"",""-"",""-"",""no_move"",21309,2935.8,2144.3,19375.4,-210.7,""error"",""-"",""-"",""no_move"",25028.1,3718.6,1864.9,22310.6,852.6,""smooth"",""up"",""up"",""good_move"",34262.2,9233.8,2206.4,31584.8,471,""smooth"",""up"",""up"",""good_move""]","",""
"4286","","<div style=""width:500px;"">
  <p>What determined the result of this run?</p>
  </div>","97","html-slider-response","15","946061","0.0-5.0-1.1","228","1","2025-07-23 17:43:33","1f75c3e559b7213887762d5229550c2b","94.10.147.75","Mozilla/5.0 (Windows NT 10.0; Win64; x64) AppleWebKit/537.36 (KHTML, like Gecko) Chrome/138.0.0.0 Safari/537.36 Edg/138.0.0.0","WebKit","Edge","138.0.0.0","Windows","10.0","https://app.prolific.com/","en-GB,en;q=0.9,en-US;q=0.8","6702f60844f21087e0840e3d","683db9eb0562dbf637994deb","68811e74ea026eed3b9eb95c","2","1","6702f60844f21087e0840e3d","2","1","2025-07-23T17:59:19.725Z","","","","","","","","","","","AttribQ","","50","","","","","","","","","","","","","","","","","","","","","","","","","","","","",""
"3362","","<div style=""width:500px;"">
  <p>How much control did you have over the ball?</p>
  </div>","63","html-slider-response","16","949424","0.0-5.0-2.1","228","1","2025-07-23 17:43:33","1f75c3e559b7213887762d5229550c2b","94.10.147.75","Mozilla/5.0 (Windows NT 10.0; Win64; x64) AppleWebKit/537.36 (KHTML, like Gecko) Chrome/138.0.0.0 Safari/537.36 Edg/138.0.0.0","WebKit","Edge","138.0.0.0","Windows","10.0","https://app.prolific.com/","en-GB,en;q=0.9,en-US;q=0.8","6702f60844f21087e0840e3d","683db9eb0562dbf637994deb","68811e74ea026eed3b9eb95c","2","1","6702f60844f21087e0840e3d","2","1","2025-07-23T17:59:23.088Z","","","","","","","","","","","ControlQ","","50","","","","","","","","","","","","","","","","","","","","","","","","","","","","",""
"4724","","<div style=""width:500px;"">
  <p>How would you describe your current emotional state?</p>
  </div>","40","html-slider-response","17","954149","0.0-5.0-3.1","228","1","2025-07-23 17:43:33","1f75c3e559b7213887762d5229550c2b","94.10.147.75","Mozilla/5.0 (Windows NT 10.0; Win64; x64) AppleWebKit/537.36 (KHTML, like Gecko) Chrome/138.0.0.0 Safari/537.36 Edg/138.0.0.0","WebKit","Edge","138.0.0.0","Windows","10.0","https://app.prolific.com/","en-GB,en;q=0.9,en-US;q=0.8","6702f60844f21087e0840e3d","683db9eb0562dbf637994deb","68811e74ea026eed3b9eb95c","2","1","6702f60844f21087e0840e3d","2","1","2025-07-23T17:59:27.813Z","","","","","","","","","","","StressQ","","50","","","","","","","","","","","","","","","","","","","","","","","","","","","","",""
"53860","","<div style=""width:500px;"">
  <p>What best describes how you currently feel?</p>
  </div>","56","html-slider-response","18","1008010","0.0-5.0-4.1","228","1","2025-07-23 17:43:33","1f75c3e559b7213887762d5229550c2b","94.10.147.75","Mozilla/5.0 (Windows NT 10.0; Win64; x64) AppleWebKit/537.36 (KHTML, like Gecko) Chrome/138.0.0.0 Safari/537.36 Edg/138.0.0.0","WebKit","Edge","138.0.0.0","Windows","10.0","https://app.prolific.com/","en-GB,en;q=0.9,en-US;q=0.8","6702f60844f21087e0840e3d","683db9eb0562dbf637994deb","68811e74ea026eed3b9eb95c","2","1","6702f60844f21087e0840e3d","2","1","2025-07-23T18:00:21.674Z","","","","","","","","","","","MotivationQ","","50","","","","","","","","","","","","","","","","","","","","","","","","","","","","",""
"","","","","ctl-task-cpt","19","1039599","0.0-5.0-0.2","228","1","2025-07-23 17:43:33","1f75c3e559b7213887762d5229550c2b","94.10.147.75","Mozilla/5.0 (Windows NT 10.0; Win64; x64) AppleWebKit/537.36 (KHTML, like Gecko) Chrome/138.0.0.0 Safari/537.36 Edg/138.0.0.0","WebKit","Edge","138.0.0.0","Windows","10.0","https://app.prolific.com/","en-GB,en;q=0.9,en-US;q=0.8","6702f60844f21087e0840e3d","683db9eb0562dbf637994deb","68811e74ea026eed3b9eb95c","2","1","6702f60844f21087e0840e3d","2","1","2025-07-23T18:00:53.263Z","","","","","","","","","","","","","","win-only","3","g1:SW,g2:NE","0.8","3","0","1009405.1","2317.5","7321.7","28565.9","1","4","8","6","1","-1","-1","0","0","0","5004.2","3000","-3005","[""down"",""left""]","{""num_key_presses"":4,""num_perfect"":3,""num_errors"":0,""num_randdir"":1,""num_randdir_good_moves"":0,""num_whilered"":0,""num_whileblue"":0,""num_blue"":2,""num_good_moves"":3}","[294.22232142857143,303.12857142857143,0.1,294.22232142857143,303.12857142857143,104.4,294.22232142857143,303.12857142857143,209,294.22232142857143,303.12857142857143,309.3,294.22232142857143,303.12857142857143,413.2,290.22232142857143,335.12857142857143,513.6,289.22232142857143,409.12857142857143,618.2,289.22232142857143,409.12857142857143,724.4,289.22232142857143,409.12857142857143,828.8,289.22232142857143,409.12857142857143,929,289.22232142857143,409.12857142857143,1033.3,289.22232142857143,409.12857142857143,1134.5,289.22232142857143,409.12857142857143,1238.2,289.22232142857143,409.12857142857143,1338.5,289.22232142857143,409.12857142857143,1438.6,289.22232142857143,409.12857142857143,1538.6,289.22232142857143,409.12857142857143,1638.7,289.22232142857143,409.12857142857143,1743.2,289.22232142857143,409.12857142857143,1843.3,289.22232142857143,409.12857142857143,1943.8,289.22232142857143,409.12857142857143,2043.9,289.22232142857143,409.12857142857143,2148.7,289.22232142857143,409.12857142857143,2249.6,289.22232142857143,409.12857142857143,2354,289.22232142857143,409.12857142857143,2458.6,289.22232142857143,409.12857142857143,2559,289.22232142857143,409.12857142857143,2663.1,289.22232142857143,409.12857142857143,2768.1,289.22232142857143,409.12857142857143,2868.8,289.22232142857143,409.12857142857143,2973.5,289.22232142857143,409.12857142857143,3078.8,289.22232142857143,409.12857142857143,3183.7,289.22232142857143,409.12857142857143,3284.9,289.22232142857143,409.12857142857143,3387.9,289.22232142857143,409.12857142857143,3488.4,289.22232142857143,409.12857142857143,3594.4,289.22232142857143,409.12857142857143,3699.5,289.22232142857143,409.12857142857143,3803.6,289.22232142857143,409.12857142857143,3904.2,289.22232142857143,409.12857142857143,4007.9,289.22232142857143,409.12857142857143,4108.7,289.22232142857143,409.12857142857143,4208.8,289.22232142857143,409.12857142857143,4313.7,289.22232142857143,409.12857142857143,4418.6,289.22232142857143,409.12857142857143,4518.7,289.22232142857143,409.12857142857143,4623.2,289.22232142857143,409.12857142857143,4723.8,289.22232142857143,409.12857142857143,4823.8,289.22232142857143,409.12857142857143,4924.6]","[2243.9,2243.9,1000,0,1243.9,""smooth"",""left"",""left"",""good_move"",6028.1,3783.8,3074.4,2244.3,709.4,""smooth"",""left"",""left"",""good_move"",9444.9,3416.6,2985.8,6028.3,430.8,""smooth"",""down"",""down"",""good_move"",12198.3,2753.1,2368.6,9445.2,384.5,""oops"",""down"",""up"",""bad_move""]","",""
"8250","","<div style=""width:500px;"">
  <p>What determined the result of this run?</p>
  </div>","42","html-slider-response","20","1047849","0.0-5.0-1.2","228","1","2025-07-23 17:43:33","1f75c3e559b7213887762d5229550c2b","94.10.147.75","Mozilla/5.0 (Windows NT 10.0; Win64; x64) AppleWebKit/537.36 (KHTML, like Gecko) Chrome/138.0.0.0 Safari/537.36 Edg/138.0.0.0","WebKit","Edge","138.0.0.0","Windows","10.0","https://app.prolific.com/","en-GB,en;q=0.9,en-US;q=0.8","6702f60844f21087e0840e3d","683db9eb0562dbf637994deb","68811e74ea026eed3b9eb95c","2","1","6702f60844f21087e0840e3d","2","1","2025-07-23T18:01:01.513Z","","","","","","","","","","","AttribQ","","50","","","","","","","","","","","","","","","","","","","","","","","","","","","","",""
"5126","","<div style=""width:500px;"">
  <p>How much control did you have over the ball?</p>
  </div>","68","html-slider-response","21","1052977","0.0-5.0-2.2","228","1","2025-07-23 17:43:33","1f75c3e559b7213887762d5229550c2b","94.10.147.75","Mozilla/5.0 (Windows NT 10.0; Win64; x64) AppleWebKit/537.36 (KHTML, like Gecko) Chrome/138.0.0.0 Safari/537.36 Edg/138.0.0.0","WebKit","Edge","138.0.0.0","Windows","10.0","https://app.prolific.com/","en-GB,en;q=0.9,en-US;q=0.8","6702f60844f21087e0840e3d","683db9eb0562dbf637994deb","68811e74ea026eed3b9eb95c","2","1","6702f60844f21087e0840e3d","2","1","2025-07-23T18:01:06.641Z","","","","","","","","","","","ControlQ","","50","","","","","","","","","","","","","","","","","","","","","","","","","","","","",""
"4006","","<div style=""width:500px;"">
  <p>How would you describe your current emotional state?</p>
  </div>","36","html-slider-response","22","1056983","0.0-5.0-3.2","228","1","2025-07-23 17:43:33","1f75c3e559b7213887762d5229550c2b","94.10.147.75","Mozilla/5.0 (Windows NT 10.0; Win64; x64) AppleWebKit/537.36 (KHTML, like Gecko) Chrome/138.0.0.0 Safari/537.36 Edg/138.0.0.0","WebKit","Edge","138.0.0.0","Windows","10.0","https://app.prolific.com/","en-GB,en;q=0.9,en-US;q=0.8","6702f60844f21087e0840e3d","683db9eb0562dbf637994deb","68811e74ea026eed3b9eb95c","2","1","6702f60844f21087e0840e3d","2","1","2025-07-23T18:01:10.647Z","","","","","","","","","","","StressQ","","50","","","","","","","","","","","","","","","","","","","","","","","","","","","","",""
"19635","","<div style=""width:500px;"">
  <p>What best describes how you currently feel?</p>
  </div>","59","html-slider-response","23","1076619","0.0-5.0-4.2","228","1","2025-07-23 17:43:33","1f75c3e559b7213887762d5229550c2b","94.10.147.75","Mozilla/5.0 (Windows NT 10.0; Win64; x64) AppleWebKit/537.36 (KHTML, like Gecko) Chrome/138.0.0.0 Safari/537.36 Edg/138.0.0.0","WebKit","Edge","138.0.0.0","Windows","10.0","https://app.prolific.com/","en-GB,en;q=0.9,en-US;q=0.8","6702f60844f21087e0840e3d","683db9eb0562dbf637994deb","68811e74ea026eed3b9eb95c","2","1","6702f60844f21087e0840e3d","2","1","2025-07-23T18:01:30.283Z","","","","","","","","","","","MotivationQ","","50","","","","","","","","","","","","","","","","","","","","","","","","","","","","",""
"","","","","ctl-task-cpt","24","1114686","0.0-5.0-0.3","228","1","2025-07-23 17:43:33","1f75c3e559b7213887762d5229550c2b","94.10.147.75","Mozilla/5.0 (Windows NT 10.0; Win64; x64) AppleWebKit/537.36 (KHTML, like Gecko) Chrome/138.0.0.0 Safari/537.36 Edg/138.0.0.0","WebKit","Edge","138.0.0.0","Windows","10.0","https://app.prolific.com/","en-GB,en;q=0.9,en-US;q=0.8","6702f60844f21087e0840e3d","683db9eb0562dbf637994deb","68811e74ea026eed3b9eb95c","2","1","6702f60844f21087e0840e3d","2","1","2025-07-23T18:02:08.351Z","","","","","","","","","","","","","","win-only","3","g1:SW,g2:NE","0.7","4","0","1078010.8","2944.6","7946","35046.4","1","4","4","6","2","-4","-4","0","0","0","5001.4","3000","-3015","[""up"",""right""]","{""num_key_presses"":5,""num_perfect"":2,""num_errors"":0,""num_randdir"":3,""num_randdir_good_moves"":0,""num_whilered"":0,""num_whileblue"":0,""num_blue"":3,""num_good_moves"":2}","[296.22232142857143,297.12857142857143,0.6,296.22232142857143,297.12857142857143,101,296.22232142857143,297.12857142857143,202.4,296.22232142857143,297.12857142857143,307.2,296.22232142857143,297.12857142857143,410.9,296.22232142857143,297.12857142857143,511.3,296.22232142857143,297.12857142857143,611.8,296.22232142857143,297.12857142857143,712.2,296.22232142857143,297.12857142857143,816.3,296.22232142857143,297.12857142857143,921.4,296.22232142857143,297.12857142857143,1026.3,296.22232142857143,297.12857142857143,1131.4,296.22232142857143,297.12857142857143,1236.4,296.22232142857143,297.12857142857143,1337.6,296.22232142857143,297.12857142857143,1437.6,296.22232142857143,297.12857142857143,1541,296.22232142857143,297.12857142857143,1646.6,296.22232142857143,297.12857142857143,1751,296.22232142857143,297.12857142857143,1856,296.22232142857143,297.12857142857143,1956.1,296.22232142857143,297.12857142857143,2060.6,296.22232142857143,297.12857142857143,2161.5,296.22232142857143,297.12857142857143,2266.9,296.22232142857143,297.12857142857143,2368.3,296.22232142857143,297.12857142857143,2471.2,296.22232142857143,297.12857142857143,2576.5,296.22232142857143,297.12857142857143,2681.2,296.22232142857143,297.12857142857143,2786.4,296.22232142857143,297.12857142857143,2891.5,296.22232142857143,297.12857142857143,2996.4,296.22232142857143,297.12857142857143,3096.7,296.22232142857143,297.12857142857143,3201.3,296.22232142857143,297.12857142857143,3302,296.22232142857143,297.12857142857143,3406.7,296.22232142857143,297.12857142857143,3507.3,296.22232142857143,297.12857142857143,3611.2,296.22232142857143,297.12857142857143,3711.2,296.22232142857143,297.12857142857143,3811.3,296.22232142857143,297.12857142857143,3917,296.22232142857143,297.12857142857143,4021,296.22232142857143,297.12857142857143,4121.4,296.22232142857143,297.12857142857143,4221.6,296.22232142857143,297.12857142857143,4326.9,296.22232142857143,297.12857142857143,4431.1,296.22232142857143,297.12857142857143,4539.2,296.22232142857143,297.12857142857143,4641.3,296.22232142857143,297.12857142857143,4745.5,296.22232142857143,297.12857142857143,4846.5,296.22232142857143,297.12857142857143,4950.9]","[5114.3,5114.3,2754,2009.5,350.8,""oops"",""right"",""left"",""bad_move"",9013.1,3898.2,2918,5114.9,980.2,""smooth"",""up"",""up"",""good_move"",14115.2,5101.4,1624,12115.3,375.9,""oops"",""up"",""down"",""bad_move"",17552.8,3437,2707.2,14115.8,729.8,""smooth"",""right"",""right"",""good_move"",23949.9,6396.9,2715.1,20805,429.9,""oops"",""right"",""left"",""bad_move""]","",""
"4637","","<div style=""width:500px;"">
  <p>What determined the result of this run?</p>
  </div>","61","html-slider-response","25","1119325","0.0-5.0-1.3","228","1","2025-07-23 17:43:33","1f75c3e559b7213887762d5229550c2b","94.10.147.75","Mozilla/5.0 (Windows NT 10.0; Win64; x64) AppleWebKit/537.36 (KHTML, like Gecko) Chrome/138.0.0.0 Safari/537.36 Edg/138.0.0.0","WebKit","Edge","138.0.0.0","Windows","10.0","https://app.prolific.com/","en-GB,en;q=0.9,en-US;q=0.8","6702f60844f21087e0840e3d","683db9eb0562dbf637994deb","68811e74ea026eed3b9eb95c","2","1","6702f60844f21087e0840e3d","2","1","2025-07-23T18:02:12.989Z","","","","","","","","","","","AttribQ","","50","","","","","","","","","","","","","","","","","","","","","","","","","","","","",""
"3889","","<div style=""width:500px;"">
  <p>How much control did you have over the ball?</p>
  </div>","57","html-slider-response","26","1123216","0.0-5.0-2.3","228","1","2025-07-23 17:43:33","1f75c3e559b7213887762d5229550c2b","94.10.147.75","Mozilla/5.0 (Windows NT 10.0; Win64; x64) AppleWebKit/537.36 (KHTML, like Gecko) Chrome/138.0.0.0 Safari/537.36 Edg/138.0.0.0","WebKit","Edge","138.0.0.0","Windows","10.0","https://app.prolific.com/","en-GB,en;q=0.9,en-US;q=0.8","6702f60844f21087e0840e3d","683db9eb0562dbf637994deb","68811e74ea026eed3b9eb95c","2","1","6702f60844f21087e0840e3d","2","1","2025-07-23T18:02:16.880Z","","","","","","","","","","","ControlQ","","50","","","","","","","","","","","","","","","","","","","","","","","","","","","","",""
"57506","","<div style=""width:500px;"">
  <p>How would you describe your current emotional state?</p>
  </div>","46","html-slider-response","27","1180723","0.0-5.0-3.3","228","1","2025-07-23 17:43:33","1f75c3e559b7213887762d5229550c2b","94.10.147.75","Mozilla/5.0 (Windows NT 10.0; Win64; x64) AppleWebKit/537.36 (KHTML, like Gecko) Chrome/138.0.0.0 Safari/537.36 Edg/138.0.0.0","WebKit","Edge","138.0.0.0","Windows","10.0","https://app.prolific.com/","en-GB,en;q=0.9,en-US;q=0.8","6702f60844f21087e0840e3d","683db9eb0562dbf637994deb","68811e74ea026eed3b9eb95c","2","1","6702f60844f21087e0840e3d","2","1","2025-07-23T18:03:14.387Z","","","","","","","","","","","StressQ","","50","","","","","","","","","","","","","","","","","","","","","","","","","","","","",""
"10480","","<div style=""width:500px;"">
  <p>What best describes how you currently feel?</p>
  </div>","56","html-slider-response","28","1191204","0.0-5.0-4.3","228","1","2025-07-23 17:43:33","1f75c3e559b7213887762d5229550c2b","94.10.147.75","Mozilla/5.0 (Windows NT 10.0; Win64; x64) AppleWebKit/537.36 (KHTML, like Gecko) Chrome/138.0.0.0 Safari/537.36 Edg/138.0.0.0","WebKit","Edge","138.0.0.0","Windows","10.0","https://app.prolific.com/","en-GB,en;q=0.9,en-US;q=0.8","6702f60844f21087e0840e3d","683db9eb0562dbf637994deb","68811e74ea026eed3b9eb95c","2","1","6702f60844f21087e0840e3d","2","1","2025-07-23T18:03:24.868Z","","","","","","","","","","","MotivationQ","","50","","","","","","","","","","","","","","","","","","","","","","","","","","","","",""
"","","","","ctl-task-cpt","29","1227594","0.0-5.0-0.4","228","1","2025-07-23 17:43:33","1f75c3e559b7213887762d5229550c2b","94.10.147.75","Mozilla/5.0 (Windows NT 10.0; Win64; x64) AppleWebKit/537.36 (KHTML, like Gecko) Chrome/138.0.0.0 Safari/537.36 Edg/138.0.0.0","WebKit","Edge","138.0.0.0","Windows","10.0","https://app.prolific.com/","en-GB,en;q=0.9,en-US;q=0.8","6702f60844f21087e0840e3d","683db9eb0562dbf637994deb","68811e74ea026eed3b9eb95c","2","1","6702f60844f21087e0840e3d","2","1","2025-07-23T18:04:01.258Z","","","","","","","","","","","","","","win-only","3","g1:SW,g2:NE","0.6","5","0","1192593.6","3734.5","8741.3","33371.4","1","4","4","6","1","-1","-2","0","0","0","5006.8","3000","-3010","[""down"",""left""]","{""num_key_presses"":6,""num_perfect"":2,""num_errors"":1,""num_randdir"":3,""num_randdir_good_moves"":1,""num_whilered"":0,""num_whileblue"":0,""num_blue"":1,""num_good_moves"":2}","[294.22232142857143,300.12857142857143,0.2,294.22232142857143,300.12857142857143,101.4,294.22232142857143,300.12857142857143,201.8,294.22232142857143,300.12857142857143,301.9,294.22232142857143,300.12857142857143,402.2,294.22232142857143,300.12857142857143,506.4,294.22232142857143,300.12857142857143,612.3,294.22232142857143,300.12857142857143,712.4,294.22232142857143,300.12857142857143,816.7,294.22232142857143,300.12857142857143,921.1,294.22232142857143,300.12857142857143,1021.1,294.22232142857143,300.12857142857143,1124.7,294.22232142857143,300.12857142857143,1226.5,294.22232142857143,300.12857142857143,1329.4,294.22232142857143,300.12857142857143,1432.3,294.22232142857143,300.12857142857143,1532.3,294.22232142857143,300.12857142857143,1632.9,294.22232142857143,300.12857142857143,1736.8,294.22232142857143,300.12857142857143,1841.2,294.22232142857143,300.12857142857143,1942.3,294.22232142857143,300.12857142857143,2042.6,294.22232142857143,300.12857142857143,2147.6,294.22232142857143,300.12857142857143,2252.2,294.22232142857143,300.12857142857143,2356.9,294.22232142857143,300.12857142857143,2457.8,294.22232142857143,300.12857142857143,2561.4,294.22232142857143,300.12857142857143,2666.1,294.22232142857143,300.12857142857143,2766.6,294.22232142857143,300.12857142857143,2866.9,294.22232142857143,300.12857142857143,2972.9,294.22232142857143,300.12857142857143,3074.2,294.22232142857143,300.12857142857143,3178.3,294.22232142857143,300.12857142857143,3281.1,294.22232142857143,300.12857142857143,3382.3,294.22232142857143,300.12857142857143,3486.4,294.22232142857143,300.12857142857143,3586.9,294.22232142857143,300.12857142857143,3694.2,294.22232142857143,300.12857142857143,3796.3,294.22232142857143,300.12857142857143,3896.7,294.22232142857143,300.12857142857143,4001.1,294.22232142857143,300.12857142857143,4101.7,294.22232142857143,300.12857142857143,4206.7,294.22232142857143,300.12857142857143,4311.7,294.22232142857143,300.12857142857143,4412.3,294.22232142857143,300.12857142857143,4516.3,294.22232142857143,300.12857142857143,4621.6,294.22232142857143,300.12857142857143,4721.9,294.22232142857143,300.12857142857143,4823.9,294.22232142857143,300.12857142857143,4924]","[976,976,1000,0,-24,""error"",""-"",""-"",""no_move"",5949.4,4973.3,3273.2,1979,697.2,""smooth"",""left"",""left"",""good_move"",8863.5,2913.5,2337.8,5950,575.7,""oops"",""left"",""down"",""good_move"",12260.4,3396.2,2754.3,8864.2,641.9,""oops"",""left"",""up"",""bad_move"",15551.7,3290.6,2938.8,12261.1,351.8,""oops"",""down"",""up"",""bad_move"",21679.3,6127.4,2117.3,19115.4,446.6,""smooth"",""up"",""up"",""bad_move""]","",""
"3714","","<div style=""width:500px;"">
  <p>What determined the result of this run?</p>
  </div>","66","html-slider-response","30","1231309","0.0-5.0-1.4","228","1","2025-07-23 17:43:33","1f75c3e559b7213887762d5229550c2b","94.10.147.75","Mozilla/5.0 (Windows NT 10.0; Win64; x64) AppleWebKit/537.36 (KHTML, like Gecko) Chrome/138.0.0.0 Safari/537.36 Edg/138.0.0.0","WebKit","Edge","138.0.0.0","Windows","10.0","https://app.prolific.com/","en-GB,en;q=0.9,en-US;q=0.8","6702f60844f21087e0840e3d","683db9eb0562dbf637994deb","68811e74ea026eed3b9eb95c","2","1","6702f60844f21087e0840e3d","2","1","2025-07-23T18:04:04.973Z","","","","","","","","","","","AttribQ","","50","","","","","","","","","","","","","","","","","","","","","","","","","","","","",""
"4558","","<div style=""width:500px;"">
  <p>How much control did you have over the ball?</p>
  </div>","57","html-slider-response","31","1235868","0.0-5.0-2.4","228","1","2025-07-23 17:43:33","1f75c3e559b7213887762d5229550c2b","94.10.147.75","Mozilla/5.0 (Windows NT 10.0; Win64; x64) AppleWebKit/537.36 (KHTML, like Gecko) Chrome/138.0.0.0 Safari/537.36 Edg/138.0.0.0","WebKit","Edge","138.0.0.0","Windows","10.0","https://app.prolific.com/","en-GB,en;q=0.9,en-US;q=0.8","6702f60844f21087e0840e3d","683db9eb0562dbf637994deb","68811e74ea026eed3b9eb95c","2","1","6702f60844f21087e0840e3d","2","1","2025-07-23T18:04:09.532Z","","","","","","","","","","","ControlQ","","50","","","","","","","","","","","","","","","","","","","","","","","","","","","","",""
"3892","","<div style=""width:500px;"">
  <p>How would you describe your current emotional state?</p>
  </div>","44","html-slider-response","32","1239761","0.0-5.0-3.4","228","1","2025-07-23 17:43:33","1f75c3e559b7213887762d5229550c2b","94.10.147.75","Mozilla/5.0 (Windows NT 10.0; Win64; x64) AppleWebKit/537.36 (KHTML, like Gecko) Chrome/138.0.0.0 Safari/537.36 Edg/138.0.0.0","WebKit","Edge","138.0.0.0","Windows","10.0","https://app.prolific.com/","en-GB,en;q=0.9,en-US;q=0.8","6702f60844f21087e0840e3d","683db9eb0562dbf637994deb","68811e74ea026eed3b9eb95c","2","1","6702f60844f21087e0840e3d","2","1","2025-07-23T18:04:13.425Z","","","","","","","","","","","StressQ","","50","","","","","","","","","","","","","","","","","","","","","","","","","","","","",""
"4499","","<div style=""width:500px;"">
  <p>What best describes how you currently feel?</p>
  </div>","59","html-slider-response","33","1244260","0.0-5.0-4.4","228","1","2025-07-23 17:43:33","1f75c3e559b7213887762d5229550c2b","94.10.147.75","Mozilla/5.0 (Windows NT 10.0; Win64; x64) AppleWebKit/537.36 (KHTML, like Gecko) Chrome/138.0.0.0 Safari/537.36 Edg/138.0.0.0","WebKit","Edge","138.0.0.0","Windows","10.0","https://app.prolific.com/","en-GB,en;q=0.9,en-US;q=0.8","6702f60844f21087e0840e3d","683db9eb0562dbf637994deb","68811e74ea026eed3b9eb95c","2","1","6702f60844f21087e0840e3d","2","1","2025-07-23T18:04:17.925Z","","","","","","","","","","","MotivationQ","","50","","","","","","","","","","","","","","","","","","","","","","","","","","","","",""
"","","","","ctl-task-cpt","34","1278831","0.0-5.0-0.5","228","1","2025-07-23 17:43:33","1f75c3e559b7213887762d5229550c2b","94.10.147.75","Mozilla/5.0 (Windows NT 10.0; Win64; x64) AppleWebKit/537.36 (KHTML, like Gecko) Chrome/138.0.0.0 Safari/537.36 Edg/138.0.0.0","WebKit","Edge","138.0.0.0","Windows","10.0","https://app.prolific.com/","en-GB,en;q=0.9,en-US;q=0.8","6702f60844f21087e0840e3d","683db9eb0562dbf637994deb","68811e74ea026eed3b9eb95c","2","1","6702f60844f21087e0840e3d","2","1","2025-07-23T18:04:52.496Z","","","","","","","","","","","","","","win-only","3","g1:SW,g2:NE","0.5","6","0","1245649.3","3654.5","8655.3","31550.9","1","4","8","6","2","-8","-9","0","0","0","5000.8","3000","-3005","[""up"",""right""]","{""num_key_presses"":6,""num_perfect"":2,""num_errors"":1,""num_randdir"":3,""num_randdir_good_moves"":1,""num_whilered"":0,""num_whileblue"":0,""num_blue"":1,""num_good_moves"":3}","[299.22232142857143,297.12857142857143,0.3,299.22232142857143,297.12857142857143,101.5,299.22232142857143,297.12857142857143,207.6,299.22232142857143,297.12857142857143,307.9,299.22232142857143,297.12857142857143,408.6,299.22232142857143,297.12857142857143,510.8,299.22232142857143,297.12857142857143,611.2,299.22232142857143,297.12857142857143,711.7,299.22232142857143,297.12857142857143,816.1,299.22232142857143,297.12857142857143,916.9,299.22232142857143,297.12857142857143,1016.9,299.22232142857143,297.12857142857143,1120.9,299.22232142857143,297.12857142857143,1221.5,299.22232142857143,297.12857142857143,1327,299.22232142857143,297.12857142857143,1431.7,299.22232142857143,297.12857142857143,1536.8,299.22232142857143,297.12857142857143,1642.5,299.22232142857143,297.12857142857143,1742.5,299.22232142857143,297.12857142857143,1845.7,299.22232142857143,297.12857142857143,1946.6,299.22232142857143,297.12857142857143,2050.9,299.22232142857143,297.12857142857143,2151.5,299.22232142857143,297.12857142857143,2252,299.22232142857143,297.12857142857143,2356.4,299.22232142857143,297.12857142857143,2457,299.22232142857143,297.12857142857143,2560.8,299.22232142857143,297.12857142857143,2662.4,299.22232142857143,297.12857142857143,2766.4,299.22232142857143,297.12857142857143,2871.2,299.22232142857143,297.12857142857143,2972.7,299.22232142857143,297.12857142857143,3073.2,299.22232142857143,297.12857142857143,3175.8,299.22232142857143,297.12857142857143,3281.7,299.22232142857143,297.12857142857143,3386.5,299.22232142857143,297.12857142857143,3490.9,299.22232142857143,297.12857142857143,3591.8,299.22232142857143,297.12857142857143,3696,299.22232142857143,297.12857142857143,3796.2,299.22232142857143,297.12857142857143,3896.6,299.22232142857143,297.12857142857143,3996.8,299.22232142857143,297.12857142857143,4101.3,299.22232142857143,297.12857142857143,4206.3,299.22232142857143,297.12857142857143,4306.3,299.22232142857143,297.12857142857143,4406.5,299.22232142857143,297.12857142857143,4506.7,299.22232142857143,297.12857142857143,4611.7,299.22232142857143,297.12857142857143,4716.3,299.22232142857143,297.12857142857143,4816.6,299.22232142857143,297.12857142857143,4916.8]","[1736.6,1736.6,1000,0,736.6,""smooth"",""right"",""right"",""good_move"",5382.4,3645.1,3153,1737.4,492,""oops"",""right"",""down"",""bad_move"",8920.9,3538,3061.7,5382.9,476.3,""oops"",""up"",""down"",""bad_move"",13453.9,4532.9,2274.2,13045.9,-1866.2,""error"",""-"",""-"",""no_move"",17013.9,3559.7,2015.8,14455.6,542.5,""oops"",""right"",""right"",""good_move"",20068.3,3054.1,2559.4,17014.2,494.7,""smooth"",""right"",""right"",""good_move""]","",""
"5748","","<div style=""width:500px;"">
  <p>What determined the result of this run?</p>
  </div>","61","html-slider-response","35","1284582","0.0-5.0-1.5","228","1","2025-07-23 17:43:33","1f75c3e559b7213887762d5229550c2b","94.10.147.75","Mozilla/5.0 (Windows NT 10.0; Win64; x64) AppleWebKit/537.36 (KHTML, like Gecko) Chrome/138.0.0.0 Safari/537.36 Edg/138.0.0.0","WebKit","Edge","138.0.0.0","Windows","10.0","https://app.prolific.com/","en-GB,en;q=0.9,en-US;q=0.8","6702f60844f21087e0840e3d","683db9eb0562dbf637994deb","68811e74ea026eed3b9eb95c","2","1","6702f60844f21087e0840e3d","2","1","2025-07-23T18:04:58.246Z","","","","","","","","","","","AttribQ","","50","","","","","","","","","","","","","","","","","","","","","","","","","","","","",""
"3458","","<div style=""width:500px;"">
  <p>How much control did you have over the ball?</p>
  </div>","62","html-slider-response","36","1288041","0.0-5.0-2.5","228","1","2025-07-23 17:43:33","1f75c3e559b7213887762d5229550c2b","94.10.147.75","Mozilla/5.0 (Windows NT 10.0; Win64; x64) AppleWebKit/537.36 (KHTML, like Gecko) Chrome/138.0.0.0 Safari/537.36 Edg/138.0.0.0","WebKit","Edge","138.0.0.0","Windows","10.0","https://app.prolific.com/","en-GB,en;q=0.9,en-US;q=0.8","6702f60844f21087e0840e3d","683db9eb0562dbf637994deb","68811e74ea026eed3b9eb95c","2","1","6702f60844f21087e0840e3d","2","1","2025-07-23T18:05:01.705Z","","","","","","","","","","","ControlQ","","50","","","","","","","","","","","","","","","","","","","","","","","","","","","","",""
"3539","","<div style=""width:500px;"">
  <p>How would you describe your current emotional state?</p>
  </div>","37","html-slider-response","37","1291581","0.0-5.0-3.5","228","1","2025-07-23 17:43:33","1f75c3e559b7213887762d5229550c2b","94.10.147.75","Mozilla/5.0 (Windows NT 10.0; Win64; x64) AppleWebKit/537.36 (KHTML, like Gecko) Chrome/138.0.0.0 Safari/537.36 Edg/138.0.0.0","WebKit","Edge","138.0.0.0","Windows","10.0","https://app.prolific.com/","en-GB,en;q=0.9,en-US;q=0.8","6702f60844f21087e0840e3d","683db9eb0562dbf637994deb","68811e74ea026eed3b9eb95c","2","1","6702f60844f21087e0840e3d","2","1","2025-07-23T18:05:05.246Z","","","","","","","","","","","StressQ","","50","","","","","","","","","","","","","","","","","","","","","","","","","","","","",""
"6342","","<div style=""width:500px;"">
  <p>What best describes how you currently feel?</p>
  </div>","62","html-slider-response","38","1297924","0.0-5.0-4.5","228","1","2025-07-23 17:43:33","1f75c3e559b7213887762d5229550c2b","94.10.147.75","Mozilla/5.0 (Windows NT 10.0; Win64; x64) AppleWebKit/537.36 (KHTML, like Gecko) Chrome/138.0.0.0 Safari/537.36 Edg/138.0.0.0","WebKit","Edge","138.0.0.0","Windows","10.0","https://app.prolific.com/","en-GB,en;q=0.9,en-US;q=0.8","6702f60844f21087e0840e3d","683db9eb0562dbf637994deb","68811e74ea026eed3b9eb95c","2","1","6702f60844f21087e0840e3d","2","1","2025-07-23T18:05:11.589Z","","","","","","","","","","","MotivationQ","","50","","","","","","","","","","","","","","","","","","","","","","","","","","","","",""
"","","","","ctl-task-cpt","39","1325083","0.0-5.0-0.6","228","1","2025-07-23 17:43:33","1f75c3e559b7213887762d5229550c2b","94.10.147.75","Mozilla/5.0 (Windows NT 10.0; Win64; x64) AppleWebKit/537.36 (KHTML, like Gecko) Chrome/138.0.0.0 Safari/537.36 Edg/138.0.0.0","WebKit","Edge","138.0.0.0","Windows","10.0","https://app.prolific.com/","en-GB,en;q=0.9,en-US;q=0.8","6702f60844f21087e0840e3d","683db9eb0562dbf637994deb","68811e74ea026eed3b9eb95c","2","1","6702f60844f21087e0840e3d","2","1","2025-07-23T18:05:38.747Z","","","","","","","","","","","","","","win-only","3","g1:SW,g2:NE","0.4","7","0","1299313.3","2340.3","7341.5","24140.6","1","4","4","6","2","-4","-4","0","0","0","5001.2","3000","-2995","[""up"",""right""]","{""num_key_presses"":4,""num_perfect"":2,""num_errors"":0,""num_randdir"":2,""num_randdir_good_moves"":2,""num_whilered"":0,""num_whileblue"":0,""num_blue"":1,""num_good_moves"":4}","[298.22232142857143,298.12857142857143,0.3,298.22232142857143,298.12857142857143,101.2,298.22232142857143,298.12857142857143,205.9,298.22232142857143,298.12857142857143,306.7,298.22232142857143,298.12857142857143,410.6,298.22232142857143,298.12857142857143,511.9,305.22232142857143,311.12857142857143,613.8,315.22232142857143,343.12857142857143,715.3,321.22232142857143,366.12857142857143,815.6,321.22232142857143,366.12857142857143,915.6,321.22232142857143,366.12857142857143,1020.8,321.22232142857143,366.12857142857143,1121.1,321.22232142857143,366.12857142857143,1226,321.22232142857143,366.12857142857143,1330.2,321.22232142857143,366.12857142857143,1430.5,321.22232142857143,366.12857142857143,1532.4,321.22232142857143,366.12857142857143,1635.4,321.22232142857143,366.12857142857143,1735.9,321.22232142857143,366.12857142857143,1840.8,321.22232142857143,366.12857142857143,1947.9,321.22232142857143,366.12857142857143,2050.8,321.22232142857143,366.12857142857143,2150.8,321.22232142857143,366.12857142857143,2250.9,321.22232142857143,366.12857142857143,2355.5,321.22232142857143,366.12857142857143,2455.5,321.22232142857143,366.12857142857143,2556.8,321.22232142857143,366.12857142857143,2663.1,321.22232142857143,366.12857142857143,2766.5,321.22232142857143,366.12857142857143,2869.9,321.22232142857143,366.12857142857143,2970.6,321.22232142857143,366.12857142857143,3070.9,321.22232142857143,366.12857142857143,3172.7,321.22232142857143,366.12857142857143,3277.1,321.22232142857143,366.12857142857143,3380.1,321.22232142857143,366.12857142857143,3483.6,321.22232142857143,366.12857142857143,3585.5,321.22232142857143,366.12857142857143,3690.3,321.22232142857143,366.12857142857143,3790.3,321.22232142857143,366.12857142857143,3890.9,321.22232142857143,366.12857142857143,3996.5,321.22232142857143,366.12857142857143,4100.5,321.22232142857143,366.12857142857143,4201,321.22232142857143,366.12857142857143,4306.6,321.22232142857143,366.12857142857143,4412.6,321.22232142857143,366.12857142857143,4515.6,321.22232142857143,366.12857142857143,4621,321.22232142857143,366.12857142857143,4726.4,321.22232142857143,366.12857142857143,4832.9,321.22232142857143,366.12857142857143,4936.5]","[2433.3,2433.3,1000,0,1433.3,""smooth"",""up"",""up"",""good_move"",8789.3,6355.6,2462.3,5874.8,452.2,""oops"",""up"",""up"",""good_move"",11842.5,3053.1,2571,8789.4,482.1,""oops"",""up"",""right"",""good_move"",14411.7,2568.6,2047.3,11843.1,521.3,""smooth"",""up"",""up"",""good_move""]","",""
"4601","","<div style=""width:500px;"">
  <p>What determined the result of this run?</p>
  </div>","72","html-slider-response","40","1329685","0.0-5.0-1.6","228","1","2025-07-23 17:43:33","1f75c3e559b7213887762d5229550c2b","94.10.147.75","Mozilla/5.0 (Windows NT 10.0; Win64; x64) AppleWebKit/537.36 (KHTML, like Gecko) Chrome/138.0.0.0 Safari/537.36 Edg/138.0.0.0","WebKit","Edge","138.0.0.0","Windows","10.0","https://app.prolific.com/","en-GB,en;q=0.9,en-US;q=0.8","6702f60844f21087e0840e3d","683db9eb0562dbf637994deb","68811e74ea026eed3b9eb95c","2","1","6702f60844f21087e0840e3d","2","1","2025-07-23T18:05:43.349Z","","","","","","","","","","","AttribQ","","50","","","","","","","","","","","","","","","","","","","","","","","","","","","","",""
"4201","","<div style=""width:500px;"">
  <p>How much control did you have over the ball?</p>
  </div>","64","html-slider-response","41","1333887","0.0-5.0-2.6","228","1","2025-07-23 17:43:33","1f75c3e559b7213887762d5229550c2b","94.10.147.75","Mozilla/5.0 (Windows NT 10.0; Win64; x64) AppleWebKit/537.36 (KHTML, like Gecko) Chrome/138.0.0.0 Safari/537.36 Edg/138.0.0.0","WebKit","Edge","138.0.0.0","Windows","10.0","https://app.prolific.com/","en-GB,en;q=0.9,en-US;q=0.8","6702f60844f21087e0840e3d","683db9eb0562dbf637994deb","68811e74ea026eed3b9eb95c","2","1","6702f60844f21087e0840e3d","2","1","2025-07-23T18:05:47.552Z","","","","","","","","","","","ControlQ","","50","","","","","","","","","","","","","","","","","","","","","","","","","","","","",""
"6545","","<div style=""width:500px;"">
  <p>How would you describe your current emotional state?</p>
  </div>","69","html-slider-response","42","1340434","0.0-5.0-3.6","228","1","2025-07-23 17:43:33","1f75c3e559b7213887762d5229550c2b","94.10.147.75","Mozilla/5.0 (Windows NT 10.0; Win64; x64) AppleWebKit/537.36 (KHTML, like Gecko) Chrome/138.0.0.0 Safari/537.36 Edg/138.0.0.0","WebKit","Edge","138.0.0.0","Windows","10.0","https://app.prolific.com/","en-GB,en;q=0.9,en-US;q=0.8","6702f60844f21087e0840e3d","683db9eb0562dbf637994deb","68811e74ea026eed3b9eb95c","2","1","6702f60844f21087e0840e3d","2","1","2025-07-23T18:05:54.098Z","","","","","","","","","","","StressQ","","50","","","","","","","","","","","","","","","","","","","","","","","","","","","","",""
"5708","","<div style=""width:500px;"">
  <p>What best describes how you currently feel?</p>
  </div>","56","html-slider-response","43","1346142","0.0-5.0-4.6","228","1","2025-07-23 17:43:33","1f75c3e559b7213887762d5229550c2b","94.10.147.75","Mozilla/5.0 (Windows NT 10.0; Win64; x64) AppleWebKit/537.36 (KHTML, like Gecko) Chrome/138.0.0.0 Safari/537.36 Edg/138.0.0.0","WebKit","Edge","138.0.0.0","Windows","10.0","https://app.prolific.com/","en-GB,en;q=0.9,en-US;q=0.8","6702f60844f21087e0840e3d","683db9eb0562dbf637994deb","68811e74ea026eed3b9eb95c","2","1","6702f60844f21087e0840e3d","2","1","2025-07-23T18:05:59.807Z","","","","","","","","","","","MotivationQ","","50","","","","","","","","","","","","","","","","","","","","","","","","","","","","",""
"","","","","ctl-task-cpt","44","1374108","0.0-5.0-0.7","228","1","2025-07-23 17:43:33","1f75c3e559b7213887762d5229550c2b","94.10.147.75","Mozilla/5.0 (Windows NT 10.0; Win64; x64) AppleWebKit/537.36 (KHTML, like Gecko) Chrome/138.0.0.0 Safari/537.36 Edg/138.0.0.0","WebKit","Edge","138.0.0.0","Windows","10.0","https://app.prolific.com/","en-GB,en;q=0.9,en-US;q=0.8","6702f60844f21087e0840e3d","683db9eb0562dbf637994deb","68811e74ea026eed3b9eb95c","2","1","6702f60844f21087e0840e3d","2","1","2025-07-23T18:06:27.772Z","","","","","","","","","","","","","","win-only","0","g1:NW,g2:SE","0.3","8","0","1347531.4","6088.2","11091.4","24950.7","1","4","8","6","1","-1","-1","0","0","0","5003.2","3000","-2990","[""left"",""up""]","{""num_key_presses"":3,""num_perfect"":0,""num_errors"":0,""num_randdir"":3,""num_randdir_good_moves"":1,""num_whilered"":0,""num_whileblue"":0,""num_blue"":1,""num_good_moves"":1}","[295.22232142857143,297.12857142857143,0.3,295.22232142857143,297.12857142857143,102.4,295.22232142857143,297.12857142857143,204.4,295.22232142857143,297.12857142857143,310.8,295.22232142857143,297.12857142857143,413.5,295.22232142857143,297.12857142857143,521.1,295.22232142857143,297.12857142857143,624.7,295.22232142857143,297.12857142857143,727.9,295.22232142857143,297.12857142857143,828.5,295.22232142857143,297.12857142857143,932,295.22232142857143,297.12857142857143,1032.8,295.22232142857143,297.12857142857143,1132.9,295.22232142857143,297.12857142857143,1239,295.22232142857143,297.12857142857143,1341.9,295.22232142857143,297.12857142857143,1442.5,295.22232142857143,297.12857142857143,1543.7,295.22232142857143,297.12857142857143,1647.7,295.22232142857143,297.12857142857143,1748.1,295.22232142857143,297.12857142857143,1852.4,295.22232142857143,297.12857142857143,1952.7,295.22232142857143,297.12857142857143,2055.4,295.22232142857143,297.12857142857143,2155.7,295.22232142857143,297.12857142857143,2257.6,295.22232142857143,297.12857142857143,2357.7,295.22232142857143,297.12857142857143,2458,295.22232142857143,297.12857142857143,2558.7,295.22232142857143,297.12857142857143,2662.2,295.22232142857143,297.12857142857143,2762.9,295.22232142857143,297.12857142857143,2862.9,295.22232142857143,297.12857142857143,2962.9,295.22232142857143,297.12857142857143,3068.4,295.22232142857143,297.12857142857143,3172.6,295.22232142857143,297.12857142857143,3272.6,295.22232142857143,297.12857142857143,3374.2,295.22232142857143,297.12857142857143,3479.2,295.22232142857143,297.12857142857143,3582.4,295.22232142857143,297.12857142857143,3682.4,295.22232142857143,297.12857142857143,3782.5,295.22232142857143,297.12857142857143,3884.4,295.22232142857143,297.12857142857143,3988.9,295.22232142857143,297.12857142857143,4092.5,295.22232142857143,297.12857142857143,4197.4,295.22232142857143,297.12857142857143,4297.8,295.22232142857143,297.12857142857143,4398,295.22232142857143,297.12857142857143,4502.4,295.22232142857143,297.12857142857143,4604.6,295.22232142857143,297.12857142857143,4708.6,295.22232142857143,297.12857142857143,4812.3,295.22232142857143,297.12857142857143,4912.3]","[2269.4,2269.5,1000,0,1269.5,""oops"",""down"",""down"",""bad_move"",5048.8,2778.9,1530.5,2269.9,1248.4,""oops"",""left"",""up"",""good_move"",11064,6014.7,2144.8,8475.7,443.5,""oops"",""left"",""down"",""bad_move""]","",""
"11724","","<div style=""width:500px;"">
  <p>What determined the result of this run?</p>
  </div>","66","html-slider-response","45","1385834","0.0-5.0-1.7","228","1","2025-07-23 17:43:33","1f75c3e559b7213887762d5229550c2b","94.10.147.75","Mozilla/5.0 (Windows NT 10.0; Win64; x64) AppleWebKit/537.36 (KHTML, like Gecko) Chrome/138.0.0.0 Safari/537.36 Edg/138.0.0.0","WebKit","Edge","138.0.0.0","Windows","10.0","https://app.prolific.com/","en-GB,en;q=0.9,en-US;q=0.8","6702f60844f21087e0840e3d","683db9eb0562dbf637994deb","68811e74ea026eed3b9eb95c","2","1","6702f60844f21087e0840e3d","2","1","2025-07-23T18:06:39.498Z","","","","","","","","","","","AttribQ","","50","","","","","","","","","","","","","","","","","","","","","","","","","","","","",""
"10160","","<div style=""width:500px;"">
  <p>How much control did you have over the ball?</p>
  </div>","9","html-slider-response","46","1395995","0.0-5.0-2.7","228","1","2025-07-23 17:43:33","1f75c3e559b7213887762d5229550c2b","94.10.147.75","Mozilla/5.0 (Windows NT 10.0; Win64; x64) AppleWebKit/537.36 (KHTML, like Gecko) Chrome/138.0.0.0 Safari/537.36 Edg/138.0.0.0","WebKit","Edge","138.0.0.0","Windows","10.0","https://app.prolific.com/","en-GB,en;q=0.9,en-US;q=0.8","6702f60844f21087e0840e3d","683db9eb0562dbf637994deb","68811e74ea026eed3b9eb95c","2","1","6702f60844f21087e0840e3d","2","1","2025-07-23T18:06:49.659Z","","","","","","","","","","","ControlQ","","50","","","","","","","","","","","","","","","","","","","","","","","","","","","","",""
"6310","","<div style=""width:500px;"">
  <p>How would you describe your current emotional state?</p>
  </div>","65","html-slider-response","47","1402307","0.0-5.0-3.7","228","1","2025-07-23 17:43:33","1f75c3e559b7213887762d5229550c2b","94.10.147.75","Mozilla/5.0 (Windows NT 10.0; Win64; x64) AppleWebKit/537.36 (KHTML, like Gecko) Chrome/138.0.0.0 Safari/537.36 Edg/138.0.0.0","WebKit","Edge","138.0.0.0","Windows","10.0","https://app.prolific.com/","en-GB,en;q=0.9,en-US;q=0.8","6702f60844f21087e0840e3d","683db9eb0562dbf637994deb","68811e74ea026eed3b9eb95c","2","1","6702f60844f21087e0840e3d","2","1","2025-07-23T18:06:55.971Z","","","","","","","","","","","StressQ","","50","","","","","","","","","","","","","","","","","","","","","","","","","","","","",""
"4239","","<div style=""width:500px;"">
  <p>What best describes how you currently feel?</p>
  </div>","54","html-slider-response","48","1406547","0.0-5.0-4.7","228","1","2025-07-23 17:43:33","1f75c3e559b7213887762d5229550c2b","94.10.147.75","Mozilla/5.0 (Windows NT 10.0; Win64; x64) AppleWebKit/537.36 (KHTML, like Gecko) Chrome/138.0.0.0 Safari/537.36 Edg/138.0.0.0","WebKit","Edge","138.0.0.0","Windows","10.0","https://app.prolific.com/","en-GB,en;q=0.9,en-US;q=0.8","6702f60844f21087e0840e3d","683db9eb0562dbf637994deb","68811e74ea026eed3b9eb95c","2","1","6702f60844f21087e0840e3d","2","1","2025-07-23T18:07:00.211Z","","","","","","","","","","","MotivationQ","","50","","","","","","","","","","","","","","","","","","","","","","","","","","","","",""
"","","","","ctl-task-cpt","49","1440673","0.0-5.0-0.8","228","1","2025-07-23 17:43:33","1f75c3e559b7213887762d5229550c2b","94.10.147.75","Mozilla/5.0 (Windows NT 10.0; Win64; x64) AppleWebKit/537.36 (KHTML, like Gecko) Chrome/138.0.0.0 Safari/537.36 Edg/138.0.0.0","WebKit","Edge","138.0.0.0","Windows","10.0","https://app.prolific.com/","en-GB,en;q=0.9,en-US;q=0.8","6702f60844f21087e0840e3d","683db9eb0562dbf637994deb","68811e74ea026eed3b9eb95c","2","1","6702f60844f21087e0840e3d","2","1","2025-07-23T18:07:34.337Z","","","","","","","","","","","","","","win-only","3","g1:SW,g2:NE","0.2","9","0","1407937.5","3606.9","8611.3","31105.1","1","4","4","6","2","-4","-4","0","0","0","5004.4","3000","-2980","[""up"",""right""]","{""num_key_presses"":5,""num_perfect"":1,""num_errors"":0,""num_randdir"":4,""num_randdir_good_moves"":2,""num_whilered"":0,""num_whileblue"":0,""num_blue"":2,""num_good_moves"":3}","[293.22232142857143,300.12857142857143,0.1,293.22232142857143,300.12857142857143,104,293.22232142857143,300.12857142857143,204.5,293.22232142857143,300.12857142857143,305.6,293.22232142857143,300.12857142857143,408.7,293.22232142857143,300.12857142857143,509.3,293.22232142857143,300.12857142857143,609.7,293.22232142857143,300.12857142857143,713.9,293.22232142857143,300.12857142857143,814,293.22232142857143,300.12857142857143,920.9,293.22232142857143,300.12857142857143,1021.9,293.22232142857143,300.12857142857143,1123.8,293.22232142857143,300.12857142857143,1229,293.22232142857143,300.12857142857143,1333.7,293.22232142857143,300.12857142857143,1434.5,293.22232142857143,300.12857142857143,1538.7,293.22232142857143,300.12857142857143,1640.2,293.22232142857143,300.12857142857143,1743.9,293.22232142857143,300.12857142857143,1850.8,293.22232142857143,300.12857142857143,1954.1,293.22232142857143,300.12857142857143,2054.1,293.22232142857143,300.12857142857143,2158.6,293.22232142857143,300.12857142857143,2258.7,293.22232142857143,300.12857142857143,2358.8,293.22232142857143,300.12857142857143,2464.3,293.22232142857143,300.12857142857143,2569.1,293.22232142857143,300.12857142857143,2671.8,293.22232142857143,300.12857142857143,2773.4,293.22232142857143,300.12857142857143,2874,293.22232142857143,300.12857142857143,2974.1,293.22232142857143,300.12857142857143,3075,293.22232142857143,300.12857142857143,3178.5,293.22232142857143,300.12857142857143,3278.9,293.22232142857143,300.12857142857143,3385.1,293.22232142857143,300.12857142857143,3488.2,293.22232142857143,300.12857142857143,3588.4,293.22232142857143,300.12857142857143,3689.1,293.22232142857143,300.12857142857143,3794.2,293.22232142857143,300.12857142857143,3898.8,293.22232142857143,300.12857142857143,4003.7,293.22232142857143,300.12857142857143,4109.7,293.22232142857143,300.12857142857143,4213.6,293.22232142857143,300.12857142857143,4314.2,293.22232142857143,300.12857142857143,4419.3,293.22232142857143,300.12857142857143,4523.4,293.22232142857143,300.12857142857143,4623.6,293.22232142857143,300.12857142857143,4724,293.22232142857143,300.12857142857143,4828.8,293.22232142857143,300.12857142857143,4933.8]","[1565.2,1565.2,1000,0,565.2,""oops"",""right"",""right"",""good_move"",4774.3,3208.8,2635.7,1565.5,573.1,""oops"",""right"",""down"",""bad_move"",10331.3,5556.6,2972.5,6964.6,394.2,""oops"",""right"",""right"",""good_move"",16838,6506.4,2458.9,14004.7,374.4,""smooth"",""right"",""right"",""good_move"",19373.6,2535.3,1768.4,16838.3,766.9,""oops"",""up"",""down"",""bad_move""]","",""
"6691","","<div style=""width:500px;"">
  <p>What determined the result of this run?</p>
  </div>","66","html-slider-response","50","1447365","0.0-5.0-1.8","228","1","2025-07-23 17:43:33","1f75c3e559b7213887762d5229550c2b","94.10.147.75","Mozilla/5.0 (Windows NT 10.0; Win64; x64) AppleWebKit/537.36 (KHTML, like Gecko) Chrome/138.0.0.0 Safari/537.36 Edg/138.0.0.0","WebKit","Edge","138.0.0.0","Windows","10.0","https://app.prolific.com/","en-GB,en;q=0.9,en-US;q=0.8","6702f60844f21087e0840e3d","683db9eb0562dbf637994deb","68811e74ea026eed3b9eb95c","2","1","6702f60844f21087e0840e3d","2","1","2025-07-23T18:07:41.029Z","","","","","","","","","","","AttribQ","","50","","","","","","","","","","","","","","","","","","","","","","","","","","","","",""
"4787","","<div style=""width:500px;"">
  <p>How much control did you have over the ball?</p>
  </div>","0","html-slider-response","51","1452154","0.0-5.0-2.8","228","1","2025-07-23 17:43:33","1f75c3e559b7213887762d5229550c2b","94.10.147.75","Mozilla/5.0 (Windows NT 10.0; Win64; x64) AppleWebKit/537.36 (KHTML, like Gecko) Chrome/138.0.0.0 Safari/537.36 Edg/138.0.0.0","WebKit","Edge","138.0.0.0","Windows","10.0","https://app.prolific.com/","en-GB,en;q=0.9,en-US;q=0.8","6702f60844f21087e0840e3d","683db9eb0562dbf637994deb","68811e74ea026eed3b9eb95c","2","1","6702f60844f21087e0840e3d","2","1","2025-07-23T18:07:45.818Z","","","","","","","","","","","ControlQ","","50","","","","","","","","","","","","","","","","","","","","","","","","","","","","",""
"18451","","<div style=""width:500px;"">
  <p>How would you describe your current emotional state?</p>
  </div>","70","html-slider-response","52","1470606","0.0-5.0-3.8","228","1","2025-07-23 17:43:33","1f75c3e559b7213887762d5229550c2b","94.10.147.75","Mozilla/5.0 (Windows NT 10.0; Win64; x64) AppleWebKit/537.36 (KHTML, like Gecko) Chrome/138.0.0.0 Safari/537.36 Edg/138.0.0.0","WebKit","Edge","138.0.0.0","Windows","10.0","https://app.prolific.com/","en-GB,en;q=0.9,en-US;q=0.8","6702f60844f21087e0840e3d","683db9eb0562dbf637994deb","68811e74ea026eed3b9eb95c","2","1","6702f60844f21087e0840e3d","2","1","2025-07-23T18:08:04.271Z","","","","","","","","","","","StressQ","","50","","","","","","","","","","","","","","","","","","","","","","","","","","","","",""
"3213","","<div style=""width:500px;"">
  <p>What best describes how you currently feel?</p>
  </div>","61","html-slider-response","53","1473820","0.0-5.0-4.8","228","1","2025-07-23 17:43:33","1f75c3e559b7213887762d5229550c2b","94.10.147.75","Mozilla/5.0 (Windows NT 10.0; Win64; x64) AppleWebKit/537.36 (KHTML, like Gecko) Chrome/138.0.0.0 Safari/537.36 Edg/138.0.0.0","WebKit","Edge","138.0.0.0","Windows","10.0","https://app.prolific.com/","en-GB,en;q=0.9,en-US;q=0.8","6702f60844f21087e0840e3d","683db9eb0562dbf637994deb","68811e74ea026eed3b9eb95c","2","1","6702f60844f21087e0840e3d","2","1","2025-07-23T18:08:07.484Z","","","","","","","","","","","MotivationQ","","50","","","","","","","","","","","","","","","","","","","","","","","","","","","","",""
"","","","","ctl-task-cpt","54","1498761","0.0-5.0-0.9","228","1","2025-07-23 17:43:33","1f75c3e559b7213887762d5229550c2b","94.10.147.75","Mozilla/5.0 (Windows NT 10.0; Win64; x64) AppleWebKit/537.36 (KHTML, like Gecko) Chrome/138.0.0.0 Safari/537.36 Edg/138.0.0.0","WebKit","Edge","138.0.0.0","Windows","10.0","https://app.prolific.com/","en-GB,en;q=0.9,en-US;q=0.8","6702f60844f21087e0840e3d","683db9eb0562dbf637994deb","68811e74ea026eed3b9eb95c","2","1","6702f60844f21087e0840e3d","2","1","2025-07-23T18:08:32.425Z","","","","","","","","","","","","","","win-only","3","g1:SW,g2:NE","0.4","10","0","1475209.8","2308.1","7310.7","21921.4","1","4","8","6","1","1","1","1","0","0.007575757575757576","5002.6","3000","1315","[""down"",""left""]","{""num_key_presses"":4,""num_perfect"":3,""num_errors"":0,""num_randdir"":1,""num_randdir_good_moves"":1,""num_whilered"":0,""num_whileblue"":0,""num_blue"":1,""num_good_moves"":4}","[299.22232142857143,294.12857142857143,0.2,299.22232142857143,294.12857142857143,100.4,299.22232142857143,294.12857142857143,202.5,299.22232142857143,294.12857142857143,307.8,299.22232142857143,294.12857142857143,410.9,299.22232142857143,294.12857142857143,515.8,299.22232142857143,294.12857142857143,618.8,299.22232142857143,294.12857142857143,722.4,299.22232142857143,294.12857142857143,827.6,299.22232142857143,294.12857142857143,928.3,299.22232142857143,294.12857142857143,1035.1,299.22232142857143,294.12857142857143,1135.9,299.22232142857143,294.12857142857143,1238,299.22232142857143,294.12857142857143,1339.3,299.22232142857143,294.12857142857143,1443.3,299.22232142857143,294.12857142857143,1549,299.22232142857143,294.12857142857143,1652.7,299.22232142857143,294.12857142857143,1758,299.22232142857143,294.12857142857143,1863.1,299.22232142857143,294.12857142857143,1965.3,299.22232142857143,294.12857142857143,2065.4,299.22232142857143,294.12857142857143,2168.1,299.22232142857143,294.12857142857143,2272.6,299.22232142857143,294.12857142857143,2378.2,299.22232142857143,294.12857142857143,2478.8,299.22232142857143,294.12857142857143,2583.6,299.22232142857143,294.12857142857143,2687.6,299.22232142857143,294.12857142857143,2792,299.22232142857143,294.12857142857143,2894.2,299.22232142857143,294.12857142857143,3002.5,299.22232142857143,294.12857142857143,3108.7,299.22232142857143,294.12857142857143,3215.7,299.22232142857143,294.12857142857143,3317,299.22232142857143,294.12857142857143,3418.3,299.22232142857143,294.12857142857143,3522.5,299.22232142857143,294.12857142857143,3622.8,299.22232142857143,294.12857142857143,3728.1,299.22232142857143,294.12857142857143,3833.4,299.22232142857143,294.12857142857143,3937.2,299.22232142857143,294.12857142857143,4037.4,299.22232142857143,294.12857142857143,4143.5,299.22232142857143,294.12857142857143,4247.9,299.22232142857143,294.12857142857143,4352.4,299.22232142857143,294.12857142857143,4457.2,299.22232142857143,294.12857142857143,4558.1,299.22232142857143,294.12857142857143,4663,299.22232142857143,294.12857142857143,4763.8,299.22232142857143,294.12857142857143,4865,299.22232142857143,294.12857142857143,4968.9]","[1517.3,1517.4,1000,0,517.4,""smooth"",""left"",""left"",""good_move"",5147,3629.3,3225,1517.7,404.3,""smooth"",""left"",""left"",""good_move"",7993.5,2846.4,2441.2,5147.1,405.2,""oops"",""down"",""down"",""good_move"",14513.1,6519,2752.2,11360.3,400.6,""smooth"",""down"",""down"",""good_move""]","",""
"7026","","<div style=""width:500px;"">
  <p>What determined the result of this run?</p>
  </div>","65","html-slider-response","55","1505788","0.0-5.0-1.9","228","1","2025-07-23 17:43:33","1f75c3e559b7213887762d5229550c2b","94.10.147.75","Mozilla/5.0 (Windows NT 10.0; Win64; x64) AppleWebKit/537.36 (KHTML, like Gecko) Chrome/138.0.0.0 Safari/537.36 Edg/138.0.0.0","WebKit","Edge","138.0.0.0","Windows","10.0","https://app.prolific.com/","en-GB,en;q=0.9,en-US;q=0.8","6702f60844f21087e0840e3d","683db9eb0562dbf637994deb","68811e74ea026eed3b9eb95c","2","1","6702f60844f21087e0840e3d","2","1","2025-07-23T18:08:39.452Z","","","","","","","","","","","AttribQ","","50","","","","","","","","","","","","","","","","","","","","","","","","","","","","",""
"4733","","<div style=""width:500px;"">
  <p>How much control did you have over the ball?</p>
  </div>","99","html-slider-response","56","1510522","0.0-5.0-2.9","228","1","2025-07-23 17:43:33","1f75c3e559b7213887762d5229550c2b","94.10.147.75","Mozilla/5.0 (Windows NT 10.0; Win64; x64) AppleWebKit/537.36 (KHTML, like Gecko) Chrome/138.0.0.0 Safari/537.36 Edg/138.0.0.0","WebKit","Edge","138.0.0.0","Windows","10.0","https://app.prolific.com/","en-GB,en;q=0.9,en-US;q=0.8","6702f60844f21087e0840e3d","683db9eb0562dbf637994deb","68811e74ea026eed3b9eb95c","2","1","6702f60844f21087e0840e3d","2","1","2025-07-23T18:08:44.186Z","","","","","","","","","","","ControlQ","","50","","","","","","","","","","","","","","","","","","","","","","","","","","","","",""
"5667","","<div style=""width:500px;"">
  <p>How would you describe your current emotional state?</p>
  </div>","41","html-slider-response","57","1516190","0.0-5.0-3.9","228","1","2025-07-23 17:43:33","1f75c3e559b7213887762d5229550c2b","94.10.147.75","Mozilla/5.0 (Windows NT 10.0; Win64; x64) AppleWebKit/537.36 (KHTML, like Gecko) Chrome/138.0.0.0 Safari/537.36 Edg/138.0.0.0","WebKit","Edge","138.0.0.0","Windows","10.0","https://app.prolific.com/","en-GB,en;q=0.9,en-US;q=0.8","6702f60844f21087e0840e3d","683db9eb0562dbf637994deb","68811e74ea026eed3b9eb95c","2","1","6702f60844f21087e0840e3d","2","1","2025-07-23T18:08:49.854Z","","","","","","","","","","","StressQ","","50","","","","","","","","","","","","","","","","","","","","","","","","","","","","",""
"9241","","<div style=""width:500px;"">
  <p>What best describes how you currently feel?</p>
  </div>","82","html-slider-response","58","1525433","0.0-5.0-4.9","228","1","2025-07-23 17:43:33","1f75c3e559b7213887762d5229550c2b","94.10.147.75","Mozilla/5.0 (Windows NT 10.0; Win64; x64) AppleWebKit/537.36 (KHTML, like Gecko) Chrome/138.0.0.0 Safari/537.36 Edg/138.0.0.0","WebKit","Edge","138.0.0.0","Windows","10.0","https://app.prolific.com/","en-GB,en;q=0.9,en-US;q=0.8","6702f60844f21087e0840e3d","683db9eb0562dbf637994deb","68811e74ea026eed3b9eb95c","2","1","6702f60844f21087e0840e3d","2","1","2025-07-23T18:08:59.097Z","","","","","","","","","","","MotivationQ","","50","","","","","","","","","","","","","","","","","","","","","","","","","","","","",""
"","","","","ctl-task-cpt","59","1568813","0.0-5.0-0.10","228","1","2025-07-23 17:43:33","1f75c3e559b7213887762d5229550c2b","94.10.147.75","Mozilla/5.0 (Windows NT 10.0; Win64; x64) AppleWebKit/537.36 (KHTML, like Gecko) Chrome/138.0.0.0 Safari/537.36 Edg/138.0.0.0","WebKit","Edge","138.0.0.0","Windows","10.0","https://app.prolific.com/","en-GB,en;q=0.9,en-US;q=0.8","6702f60844f21087e0840e3d","683db9eb0562dbf637994deb","68811e74ea026eed3b9eb95c","2","1","6702f60844f21087e0840e3d","2","1","2025-07-23T18:09:42.478Z","","","","","","","","","","","","","","win-only","1","g1:NE,g2:SW","0.5","11","0","1526822","1507.1","6510.5","40361","1","4","4","6","1","1","1","2","1","0.015151515151515152","5003.4","3000","65","[""up"",""right""]","{""num_key_presses"":6,""num_perfect"":3,""num_errors"":0,""num_randdir"":3,""num_randdir_good_moves"":2,""num_whilered"":0,""num_whileblue"":0,""num_blue"":5,""num_good_moves"":5}","[296.22232142857143,303.12857142857143,0.2,296.22232142857143,303.12857142857143,104.6,296.22232142857143,303.12857142857143,213.7,296.22232142857143,303.12857142857143,314.5,296.22232142857143,303.12857142857143,415.4,296.22232142857143,303.12857142857143,518.1,296.22232142857143,303.12857142857143,618.6,296.22232142857143,303.12857142857143,723.5,296.22232142857143,303.12857142857143,823.9,296.22232142857143,303.12857142857143,930,296.22232142857143,303.12857142857143,1034.1,296.22232142857143,303.12857142857143,1138.4,296.22232142857143,303.12857142857143,1239,296.22232142857143,303.12857142857143,1339,296.22232142857143,303.12857142857143,1444.7,296.22232142857143,303.12857142857143,1548.6,296.22232142857143,303.12857142857143,1648.7,296.22232142857143,303.12857142857143,1754.2,296.22232142857143,303.12857142857143,1854.3,296.22232142857143,303.12857142857143,1959.8,296.22232142857143,303.12857142857143,2063.3,296.22232142857143,303.12857142857143,2164.8,296.22232142857143,303.12857142857143,2268.5,296.22232142857143,303.12857142857143,2368.8,296.22232142857143,303.12857142857143,2473.4,296.22232142857143,303.12857142857143,2579.6,296.22232142857143,303.12857142857143,2680.9,296.22232142857143,303.12857142857143,2783.4,296.22232142857143,303.12857142857143,2888.9,296.22232142857143,303.12857142857143,2996.3,296.22232142857143,303.12857142857143,3098.6,296.22232142857143,303.12857142857143,3204.3,296.22232142857143,303.12857142857143,3309.8,296.22232142857143,303.12857142857143,3414.7,296.22232142857143,303.12857142857143,3518.7,296.22232142857143,303.12857142857143,3623.8,296.22232142857143,303.12857142857143,3724.2,296.22232142857143,303.12857142857143,3828.6,296.22232142857143,303.12857142857143,3929.1,296.22232142857143,303.12857142857143,4030.4,296.22232142857143,303.12857142857143,4135.2,296.22232142857143,303.12857142857143,4238.4,296.22232142857143,303.12857142857143,4338.5,296.22232142857143,303.12857142857143,4439.2,296.22232142857143,303.12857142857143,4544.2,296.22232142857143,303.12857142857143,4646.7,296.22232142857143,303.12857142857143,4748.8,296.22232142857143,303.12857142857143,4849.8,296.22232142857143,303.12857142857143,4954]","[1602,1602,1000,0,602,""oops"",""up"",""down"",""bad_move"",4444.8,2842.5,2184.2,1602.4,658.3,""smooth"",""right"",""right"",""good_move"",14216.6,9771.2,2432.7,11330.8,453.1,""smooth"",""right"",""right"",""good_move"",18065.6,3848.7,3357.8,14216.9,490.9,""oops"",""up"",""up"",""good_move"",23386.7,5320.7,2062.6,20901.9,422.2,""smooth"",""up"",""up"",""good_move"",33760.7,10373.7,2313.6,31031.6,415.5,""oops"",""up"",""up"",""good_move""]","",""
"4147","","<div style=""width:500px;"">
  <p>What determined the result of this run?</p>
  </div>","77","html-slider-response","60","1572961","0.0-5.0-1.10","228","1","2025-07-23 17:43:33","1f75c3e559b7213887762d5229550c2b","94.10.147.75","Mozilla/5.0 (Windows NT 10.0; Win64; x64) AppleWebKit/537.36 (KHTML, like Gecko) Chrome/138.0.0.0 Safari/537.36 Edg/138.0.0.0","WebKit","Edge","138.0.0.0","Windows","10.0","https://app.prolific.com/","en-GB,en;q=0.9,en-US;q=0.8","6702f60844f21087e0840e3d","683db9eb0562dbf637994deb","68811e74ea026eed3b9eb95c","2","1","6702f60844f21087e0840e3d","2","1","2025-07-23T18:09:46.625Z","","","","","","","","","","","AttribQ","","50","","","","","","","","","","","","","","","","","","","","","","","","","","","","",""
"4114","","<div style=""width:500px;"">
  <p>How much control did you have over the ball?</p>
  </div>","100","html-slider-response","61","1577077","0.0-5.0-2.10","228","1","2025-07-23 17:43:33","1f75c3e559b7213887762d5229550c2b","94.10.147.75","Mozilla/5.0 (Windows NT 10.0; Win64; x64) AppleWebKit/537.36 (KHTML, like Gecko) Chrome/138.0.0.0 Safari/537.36 Edg/138.0.0.0","WebKit","Edge","138.0.0.0","Windows","10.0","https://app.prolific.com/","en-GB,en;q=0.9,en-US;q=0.8","6702f60844f21087e0840e3d","683db9eb0562dbf637994deb","68811e74ea026eed3b9eb95c","2","1","6702f60844f21087e0840e3d","2","1","2025-07-23T18:09:50.741Z","","","","","","","","","","","ControlQ","","50","","","","","","","","","","","","","","","","","","","","","","","","","","","","",""
"8463","","<div style=""width:500px;"">
  <p>How would you describe your current emotional state?</p>
  </div>","20","html-slider-response","62","1585542","0.0-5.0-3.10","228","1","2025-07-23 17:43:33","1f75c3e559b7213887762d5229550c2b","94.10.147.75","Mozilla/5.0 (Windows NT 10.0; Win64; x64) AppleWebKit/537.36 (KHTML, like Gecko) Chrome/138.0.0.0 Safari/537.36 Edg/138.0.0.0","WebKit","Edge","138.0.0.0","Windows","10.0","https://app.prolific.com/","en-GB,en;q=0.9,en-US;q=0.8","6702f60844f21087e0840e3d","683db9eb0562dbf637994deb","68811e74ea026eed3b9eb95c","2","1","6702f60844f21087e0840e3d","2","1","2025-07-23T18:09:59.206Z","","","","","","","","","","","StressQ","","50","","","","","","","","","","","","","","","","","","","","","","","","","","","","",""
"3563","","<div style=""width:500px;"">
  <p>What best describes how you currently feel?</p>
  </div>","71","html-slider-response","63","1589107","0.0-5.0-4.10","228","1","2025-07-23 17:43:33","1f75c3e559b7213887762d5229550c2b","94.10.147.75","Mozilla/5.0 (Windows NT 10.0; Win64; x64) AppleWebKit/537.36 (KHTML, like Gecko) Chrome/138.0.0.0 Safari/537.36 Edg/138.0.0.0","WebKit","Edge","138.0.0.0","Windows","10.0","https://app.prolific.com/","en-GB,en;q=0.9,en-US;q=0.8","6702f60844f21087e0840e3d","683db9eb0562dbf637994deb","68811e74ea026eed3b9eb95c","2","1","6702f60844f21087e0840e3d","2","1","2025-07-23T18:10:02.771Z","","","","","","","","","","","MotivationQ","","50","","","","","","","","","","","","","","","","","","","","","","","","","","","","",""
"","","","","ctl-task-cpt","64","1619544","0.0-5.0-0.11","228","1","2025-07-23 17:43:33","1f75c3e559b7213887762d5229550c2b","94.10.147.75","Mozilla/5.0 (Windows NT 10.0; Win64; x64) AppleWebKit/537.36 (KHTML, like Gecko) Chrome/138.0.0.0 Safari/537.36 Edg/138.0.0.0","WebKit","Edge","138.0.0.0","Windows","10.0","https://app.prolific.com/","en-GB,en;q=0.9,en-US;q=0.8","6702f60844f21087e0840e3d","683db9eb0562dbf637994deb","68811e74ea026eed3b9eb95c","2","1","6702f60844f21087e0840e3d","2","1","2025-07-23T18:10:33.208Z","","","","","","","","","","","","","","win-only","0","g1:NW,g2:SE","0.6","12","0","1590496.4","1828.5","6831.9","27416","1","4","8","6","1","-1","-1","1","2","0.007575757575757576","5003.4","3000","-2970","[""left"",""up""]","{""num_key_presses"":6,""num_perfect"":4,""num_errors"":0,""num_randdir"":2,""num_randdir_good_moves"":0,""num_whilered"":0,""num_whileblue"":0,""num_blue"":0,""num_good_moves"":4}","[298.22232142857143,298.12857142857143,0.6,298.22232142857143,298.12857142857143,110,298.22232142857143,298.12857142857143,212.7,320.22232142857143,294.12857142857143,320.4,660.2223214285714,281.12857142857143,426.6,723.2223214285714,305.12857142857143,527.7,740.2223214285714,308.12857142857143,633,740.2223214285714,308.12857142857143,738.5,740.2223214285714,308.12857142857143,840.5,740.2223214285714,308.12857142857143,940.9,740.2223214285714,308.12857142857143,1042.3,740.2223214285714,308.12857142857143,1147.4,740.2223214285714,308.12857142857143,1248.4,740.2223214285714,308.12857142857143,1352.7,740.2223214285714,308.12857142857143,1457.4,740.2223214285714,308.12857142857143,1558.3,740.2223214285714,308.12857142857143,1662.1,740.2223214285714,308.12857142857143,1762.1,740.2223214285714,308.12857142857143,1868.4,740.2223214285714,308.12857142857143,1968.7,740.2223214285714,308.12857142857143,2072.9,740.2223214285714,308.12857142857143,2173.1,740.2223214285714,308.12857142857143,2274.3,740.2223214285714,308.12857142857143,2376.8,740.2223214285714,308.12857142857143,2477.4,740.2223214285714,308.12857142857143,2584.3,740.2223214285714,308.12857142857143,2687.7,740.2223214285714,308.12857142857143,2789.8,740.2223214285714,308.12857142857143,2893.7,740.2223214285714,308.12857142857143,2997.5,740.2223214285714,308.12857142857143,3105.5,740.2223214285714,308.12857142857143,3207.5,740.2223214285714,308.12857142857143,3307.7,740.2223214285714,308.12857142857143,3412.7,740.2223214285714,308.12857142857143,3518.7,740.2223214285714,308.12857142857143,3620.4,740.2223214285714,308.12857142857143,3722.7,740.2223214285714,308.12857142857143,3822.7,740.2223214285714,308.12857142857143,3926.7,740.2223214285714,308.12857142857143,4027.1,740.2223214285714,308.12857142857143,4127.2,740.2223214285714,308.12857142857143,4227.8,740.2223214285714,308.12857142857143,4334.4,740.2223214285714,308.12857142857143,4438.7,740.2223214285714,308.12857142857143,4540.5,740.2223214285714,308.12857142857143,4643,740.2223214285714,308.12857142857143,4743.2,740.2223214285714,308.12857142857143,4847,740.2223214285714,308.12857142857143,4947.7]","[1540.5,1540.5,1000,0,540.5,""smooth"",""left"",""left"",""good_move"",4572,3031.2,2420.8,1540.9,610.4,""oops"",""left"",""down"",""bad_move"",7845,3272.6,2816.9,4572.4,455.7,""smooth"",""left"",""left"",""good_move"",10816.2,2970.1,2529.2,7846.1,440.9,""smooth"",""up"",""up"",""good_move"",14123.1,3306.3,2875,10816.8,431.3,""smooth"",""up"",""up"",""good_move"",17184.7,3060.8,2685.4,14124,375.3,""oops"",""up"",""down"",""bad_move""]","",""
"7388","","<div style=""width:500px;"">
  <p>What determined the result of this run?</p>
  </div>","79","html-slider-response","65","1626933","0.0-5.0-1.11","228","1","2025-07-23 17:43:33","1f75c3e559b7213887762d5229550c2b","94.10.147.75","Mozilla/5.0 (Windows NT 10.0; Win64; x64) AppleWebKit/537.36 (KHTML, like Gecko) Chrome/138.0.0.0 Safari/537.36 Edg/138.0.0.0","WebKit","Edge","138.0.0.0","Windows","10.0","https://app.prolific.com/","en-GB,en;q=0.9,en-US;q=0.8","6702f60844f21087e0840e3d","683db9eb0562dbf637994deb","68811e74ea026eed3b9eb95c","2","1","6702f60844f21087e0840e3d","2","1","2025-07-23T18:10:40.597Z","","","","","","","","","","","AttribQ","","50","","","","","","","","","","","","","","","","","","","","","","","","","","","","",""
"2548","","<div style=""width:500px;"">
  <p>How much control did you have over the ball?</p>
  </div>","20","html-slider-response","66","1629482","0.0-5.0-2.11","228","1","2025-07-23 17:43:33","1f75c3e559b7213887762d5229550c2b","94.10.147.75","Mozilla/5.0 (Windows NT 10.0; Win64; x64) AppleWebKit/537.36 (KHTML, like Gecko) Chrome/138.0.0.0 Safari/537.36 Edg/138.0.0.0","WebKit","Edge","138.0.0.0","Windows","10.0","https://app.prolific.com/","en-GB,en;q=0.9,en-US;q=0.8","6702f60844f21087e0840e3d","683db9eb0562dbf637994deb","68811e74ea026eed3b9eb95c","2","1","6702f60844f21087e0840e3d","2","1","2025-07-23T18:10:43.146Z","","","","","","","","","","","ControlQ","","50","","","","","","","","","","","","","","","","","","","","","","","","","","","","",""
"9499","","<div style=""width:500px;"">
  <p>How would you describe your current emotional state?</p>
  </div>","60","html-slider-response","67","1638983","0.0-5.0-3.11","228","1","2025-07-23 17:43:33","1f75c3e559b7213887762d5229550c2b","94.10.147.75","Mozilla/5.0 (Windows NT 10.0; Win64; x64) AppleWebKit/537.36 (KHTML, like Gecko) Chrome/138.0.0.0 Safari/537.36 Edg/138.0.0.0","WebKit","Edge","138.0.0.0","Windows","10.0","https://app.prolific.com/","en-GB,en;q=0.9,en-US;q=0.8","6702f60844f21087e0840e3d","683db9eb0562dbf637994deb","68811e74ea026eed3b9eb95c","2","1","6702f60844f21087e0840e3d","2","1","2025-07-23T18:10:52.647Z","","","","","","","","","","","StressQ","","50","","","","","","","","","","","","","","","","","","","","","","","","","","","","",""
"6012","","<div style=""width:500px;"">
  <p>What best describes how you currently feel?</p>
  </div>","55","html-slider-response","68","1644996","0.0-5.0-4.11","228","1","2025-07-23 17:43:33","1f75c3e559b7213887762d5229550c2b","94.10.147.75","Mozilla/5.0 (Windows NT 10.0; Win64; x64) AppleWebKit/537.36 (KHTML, like Gecko) Chrome/138.0.0.0 Safari/537.36 Edg/138.0.0.0","WebKit","Edge","138.0.0.0","Windows","10.0","https://app.prolific.com/","en-GB,en;q=0.9,en-US;q=0.8","6702f60844f21087e0840e3d","683db9eb0562dbf637994deb","68811e74ea026eed3b9eb95c","2","1","6702f60844f21087e0840e3d","2","1","2025-07-23T18:10:58.660Z","","","","","","","","","","","MotivationQ","","50","","","","","","","","","","","","","","","","","","","","","","","","","","","","",""
"","","","","ctl-task-cpt","69","1677704","0.0-5.0-0.12","228","1","2025-07-23 17:43:33","1f75c3e559b7213887762d5229550c2b","94.10.147.75","Mozilla/5.0 (Windows NT 10.0; Win64; x64) AppleWebKit/537.36 (KHTML, like Gecko) Chrome/138.0.0.0 Safari/537.36 Edg/138.0.0.0","WebKit","Edge","138.0.0.0","Windows","10.0","https://app.prolific.com/","en-GB,en;q=0.9,en-US;q=0.8","6702f60844f21087e0840e3d","683db9eb0562dbf637994deb","68811e74ea026eed3b9eb95c","2","1","6702f60844f21087e0840e3d","2","1","2025-07-23T18:11:31.368Z","","","","","","","","","","","","","","win-only","0","g1:NW,g2:SE","0.7","13","0","1646386.2","1865.7","6867.6","29686.4","1","4","8","6","1","1","1","2","1","0.015151515151515152","5001.9","3000","615","[""left"",""up""]","{""num_key_presses"":6,""num_perfect"":5,""num_errors"":0,""num_randdir"":1,""num_randdir_good_moves"":0,""num_whilered"":0,""num_whileblue"":0,""num_blue"":2,""num_good_moves"":5}","[297.22232142857143,297.12857142857143,0.5,297.22232142857143,297.12857142857143,105.4,297.22232142857143,297.12857142857143,205.5,297.22232142857143,297.12857142857143,307.5,297.22232142857143,297.12857142857143,410,297.22232142857143,297.12857142857143,517.1,297.22232142857143,297.12857142857143,621.3,297.22232142857143,297.12857142857143,721.6,297.22232142857143,297.12857142857143,825.1,297.22232142857143,297.12857142857143,925.5,297.22232142857143,297.12857142857143,1031,297.22232142857143,297.12857142857143,1134,297.22232142857143,297.12857142857143,1234.5,297.22232142857143,297.12857142857143,1336.6,297.22232142857143,297.12857142857143,1436.9,297.22232142857143,297.12857142857143,1541.5,297.22232142857143,297.12857142857143,1641.7,297.22232142857143,297.12857142857143,1745.8,297.22232142857143,297.12857142857143,1849.8,297.22232142857143,297.12857142857143,1952.9,297.22232142857143,297.12857142857143,2055.4,297.22232142857143,297.12857142857143,2155.4,297.22232142857143,297.12857142857143,2256.3,297.22232142857143,297.12857142857143,2359.9,297.22232142857143,297.12857142857143,2460.3,297.22232142857143,297.12857142857143,2566.8,297.22232142857143,297.12857142857143,2667,297.22232142857143,297.12857142857143,2767,297.22232142857143,297.12857142857143,2871.6,297.22232142857143,297.12857142857143,2975.4,297.22232142857143,297.12857142857143,3081.8,297.22232142857143,297.12857142857143,3186.4,297.22232142857143,297.12857142857143,3289.5,297.22232142857143,297.12857142857143,3389.8,297.22232142857143,297.12857142857143,3500.4,297.22232142857143,297.12857142857143,3605.1,297.22232142857143,297.12857142857143,3705.1,297.22232142857143,297.12857142857143,3809.6,297.22232142857143,297.12857142857143,3909.8,297.22232142857143,297.12857142857143,4011.3,297.22232142857143,297.12857142857143,4117.3,297.22232142857143,297.12857142857143,4218.2,297.22232142857143,297.12857142857143,4318.9,297.22232142857143,297.12857142857143,4421.1,297.22232142857143,297.12857142857143,4526.4,297.22232142857143,297.12857142857143,4632.1,297.22232142857143,297.12857142857143,4737.5,297.22232142857143,297.12857142857143,4840.4,297.22232142857143,297.12857142857143,4945.8]","[1473.3,1473.3,1000,0,473.3,""smooth"",""left"",""left"",""good_move"",4915.3,3441.1,3027.9,1474.2,413.2,""smooth"",""left"",""left"",""good_move"",7760.8,2845.1,2391.5,4915.7,453.6,""smooth"",""up"",""up"",""good_move"",13481.9,5720.8,1734.4,11283.5,464.1,""oops"",""up"",""right"",""bad_move"",19933.5,6451.1,3517.5,16054.4,361.6,""smooth"",""left"",""left"",""good_move"",22724.7,2790.7,2358.9,19934.1,431.7,""smooth"",""up"",""up"",""good_move""]","",""
"22464","","<div style=""width:500px;"">
  <p>What determined the result of this run?</p>
  </div>","64","html-slider-response","70","1700169","0.0-5.0-1.12","228","1","2025-07-23 17:43:33","1f75c3e559b7213887762d5229550c2b","94.10.147.75","Mozilla/5.0 (Windows NT 10.0; Win64; x64) AppleWebKit/537.36 (KHTML, like Gecko) Chrome/138.0.0.0 Safari/537.36 Edg/138.0.0.0","WebKit","Edge","138.0.0.0","Windows","10.0","https://app.prolific.com/","en-GB,en;q=0.9,en-US;q=0.8","6702f60844f21087e0840e3d","683db9eb0562dbf637994deb","68811e74ea026eed3b9eb95c","2","1","6702f60844f21087e0840e3d","2","1","2025-07-23T18:11:53.833Z","","","","","","","","","","","AttribQ","","50","","","","","","","","","","","","","","","","","","","","","","","","","","","","",""
"5481","","<div style=""width:500px;"">
  <p>How much control did you have over the ball?</p>
  </div>","28","html-slider-response","71","1705652","0.0-5.0-2.12","228","1","2025-07-23 17:43:33","1f75c3e559b7213887762d5229550c2b","94.10.147.75","Mozilla/5.0 (Windows NT 10.0; Win64; x64) AppleWebKit/537.36 (KHTML, like Gecko) Chrome/138.0.0.0 Safari/537.36 Edg/138.0.0.0","WebKit","Edge","138.0.0.0","Windows","10.0","https://app.prolific.com/","en-GB,en;q=0.9,en-US;q=0.8","6702f60844f21087e0840e3d","683db9eb0562dbf637994deb","68811e74ea026eed3b9eb95c","2","1","6702f60844f21087e0840e3d","2","1","2025-07-23T18:11:59.316Z","","","","","","","","","","","ControlQ","","50","","","","","","","","","","","","","","","","","","","","","","","","","","","","",""
"4664","","<div style=""width:500px;"">
  <p>How would you describe your current emotional state?</p>
  </div>","56","html-slider-response","72","1710318","0.0-5.0-3.12","228","1","2025-07-23 17:43:33","1f75c3e559b7213887762d5229550c2b","94.10.147.75","Mozilla/5.0 (Windows NT 10.0; Win64; x64) AppleWebKit/537.36 (KHTML, like Gecko) Chrome/138.0.0.0 Safari/537.36 Edg/138.0.0.0","WebKit","Edge","138.0.0.0","Windows","10.0","https://app.prolific.com/","en-GB,en;q=0.9,en-US;q=0.8","6702f60844f21087e0840e3d","683db9eb0562dbf637994deb","68811e74ea026eed3b9eb95c","2","1","6702f60844f21087e0840e3d","2","1","2025-07-23T18:12:03.982Z","","","","","","","","","","","StressQ","","50","","","","","","","","","","","","","","","","","","","","","","","","","","","","",""
"7663","","<div style=""width:500px;"">
  <p>What best describes how you currently feel?</p>
  </div>","59","html-slider-response","73","1717982","0.0-5.0-4.12","228","1","2025-07-23 17:43:33","1f75c3e559b7213887762d5229550c2b","94.10.147.75","Mozilla/5.0 (Windows NT 10.0; Win64; x64) AppleWebKit/537.36 (KHTML, like Gecko) Chrome/138.0.0.0 Safari/537.36 Edg/138.0.0.0","WebKit","Edge","138.0.0.0","Windows","10.0","https://app.prolific.com/","en-GB,en;q=0.9,en-US;q=0.8","6702f60844f21087e0840e3d","683db9eb0562dbf637994deb","68811e74ea026eed3b9eb95c","2","1","6702f60844f21087e0840e3d","2","1","2025-07-23T18:12:11.646Z","","","","","","","","","","","MotivationQ","","50","","","","","","","","","","","","","","","","","","","","","","","","","","","","",""
"","","","","ctl-task-cpt","74","1753414","0.0-5.0-0.13","228","1","2025-07-23 17:43:33","1f75c3e559b7213887762d5229550c2b","94.10.147.75","Mozilla/5.0 (Windows NT 10.0; Win64; x64) AppleWebKit/537.36 (KHTML, like Gecko) Chrome/138.0.0.0 Safari/537.36 Edg/138.0.0.0","WebKit","Edge","138.0.0.0","Windows","10.0","https://app.prolific.com/","en-GB,en;q=0.9,en-US;q=0.8","6702f60844f21087e0840e3d","683db9eb0562dbf637994deb","68811e74ea026eed3b9eb95c","2","1","6702f60844f21087e0840e3d","2","1","2025-07-23T18:12:47.078Z","","","","","","","","","","","","","","win-only","1","g1:NE,g2:SW","0.8","14","0","1719371.5","4231.6","9233.4","32406.2","1","4","4","6","2","4","4","6","2","0.045454545454545456","5001.8","3000","250","[""down"",""left""]","{""num_key_presses"":6,""num_perfect"":4,""num_errors"":0,""num_randdir"":2,""num_randdir_good_moves"":2,""num_whilered"":0,""num_whileblue"":0,""num_blue"":2,""num_good_moves"":6}","[300.22232142857143,294.12857142857143,0.5,300.22232142857143,294.12857142857143,104.8,300.22232142857143,294.12857142857143,215.7,300.22232142857143,294.12857142857143,319.9,300.22232142857143,294.12857142857143,427.5,300.22232142857143,294.12857142857143,529.8,300.22232142857143,294.12857142857143,635.4,300.22232142857143,294.12857142857143,741,300.22232142857143,294.12857142857143,841.1,300.22232142857143,294.12857142857143,947.6,300.22232142857143,294.12857142857143,1052.5,300.22232142857143,294.12857142857143,1153.9,300.22232142857143,294.12857142857143,1258,440.22232142857143,276.12857142857143,1358.5,790.2223214285714,250.12857142857143,1462,817.2223214285714,250.12857142857143,1568.3,817.2223214285714,250.12857142857143,1668.8,817.2223214285714,250.12857142857143,1770.2,817.2223214285714,250.12857142857143,1870.5,817.2223214285714,250.12857142857143,1974.5,817.2223214285714,250.12857142857143,2078.7,817.2223214285714,250.12857142857143,2182.5,817.2223214285714,250.12857142857143,2288.9,817.2223214285714,250.12857142857143,2390.8,817.2223214285714,250.12857142857143,2494.8,817.2223214285714,250.12857142857143,2594.8,817.2223214285714,250.12857142857143,2695.9,817.2223214285714,250.12857142857143,2801.6,817.2223214285714,250.12857142857143,2906.4,817.2223214285714,250.12857142857143,3010.4,817.2223214285714,250.12857142857143,3112.4,817.2223214285714,250.12857142857143,3217.3,817.2223214285714,250.12857142857143,3321.3,817.2223214285714,250.12857142857143,3424.6,817.2223214285714,250.12857142857143,3531.1,817.2223214285714,250.12857142857143,3631.6,817.2223214285714,250.12857142857143,3734.9,817.2223214285714,250.12857142857143,3837.1,817.2223214285714,250.12857142857143,3939.3,817.2223214285714,250.12857142857143,4044.1,817.2223214285714,250.12857142857143,4145.9,817.2223214285714,250.12857142857143,4252.2,817.2223214285714,250.12857142857143,4355.5,817.2223214285714,250.12857142857143,4456.9,817.2223214285714,250.12857142857143,4560.8,817.2223214285714,250.12857142857143,4661,817.2223214285714,250.12857142857143,4766.1,817.2223214285714,250.12857142857143,4868.3,817.2223214285714,250.12857142857143,4970.2]","[5372.2,5372.2,2766.3,2010,595.9,""smooth"",""left"",""left"",""good_move"",7918.5,2545.7,1954.8,5372.8,590.9,""smooth"",""left"",""left"",""good_move"",13837.9,5919.1,2337.2,11083,417.7,""smooth"",""left"",""left"",""good_move"",17081.7,3243.4,2731.5,13838.3,511.9,""smooth"",""down"",""down"",""good_move"",20289.4,3206.7,2624.2,17082.8,582.5,""oops"",""down"",""down"",""good_move"",23079.9,2789.5,2357.4,20290.4,432.1,""oops"",""down"",""down"",""good_move""]","",""
"6278","","<div style=""width:500px;"">
  <p>What determined the result of this run?</p>
  </div>","83","html-slider-response","75","1759694","0.0-5.0-1.13","228","1","2025-07-23 17:43:33","1f75c3e559b7213887762d5229550c2b","94.10.147.75","Mozilla/5.0 (Windows NT 10.0; Win64; x64) AppleWebKit/537.36 (KHTML, like Gecko) Chrome/138.0.0.0 Safari/537.36 Edg/138.0.0.0","WebKit","Edge","138.0.0.0","Windows","10.0","https://app.prolific.com/","en-GB,en;q=0.9,en-US;q=0.8","6702f60844f21087e0840e3d","683db9eb0562dbf637994deb","68811e74ea026eed3b9eb95c","2","1","6702f60844f21087e0840e3d","2","1","2025-07-23T18:12:53.358Z","","","","","","","","","","","AttribQ","","50","","","","","","","","","","","","","","","","","","","","","","","","","","","","",""
"7245","","<div style=""width:500px;"">
  <p>How much control did you have over the ball?</p>
