"rt","response_timestamp","stimulus","response","trial_type","trial_index","time_elapsed","internal_node_id","run_id","condition","recorded_at","source_code_version","ip","user_agent","device","browser","browser_version","platform","platform_version","referer","accept_language","PROLIFIC_PID","STUDY_ID","SESSION_ID","WEEK","BATCH","prolific_id","week","batch","realtime","success","responses","item_order","radio_event_ids","radio_event_times","key_event_times","mouse_event_times","straightlining","zigzagging","honeypot","eventType","view_history","slider_start","which_type","canvas_config","goals_layout","control_level","trial_number","tutorial_trial_number","trial_start_time","phase1_start_time","phase2_start_time","phase3_start_time","goal_1_value","goal_1_distance","goal_2_value","goal_2_distance","goal_selected","outcome","outcome_total","participant_final_score","participant_initial_score","participant_final_score_prop","goal_choice_rt","allocated_time","allocated_time_remaining","goal_direction","counts","mouse_movements","key_presses","question_order","question_id"
"7425","1753865104045","<p style='font-size:40px;line-height:1.25'><strong>Welcome to the experiment!</strong></p><p style='font-size:1.1em;line-height:1.25'>Thank you for participanting in our experiment again! You will be asked to play the Dysfunctional Ball Game again. We will briefly recap the rules before we start.</p><p style='font-size:1.1em;line-height:1.25'>Press <strong>Next</strong> to continue.</p>","0","custom-html-button-response","0","7427","0.0-0.0","268","1","2025-07-30 08:44:49","1f75c3e559b7213887762d5229550c2b","152.106.99.150","Mozilla/5.0 (Windows NT 10.0; Win64; x64) AppleWebKit/537.36 (KHTML, like Gecko) Chrome/138.0.0.0 Safari/537.36","WebKit","Chrome","138.0.0.0","Windows","10.0","https://app.prolific.com/","en-US,en;q=0.9","666408427db5e38fe0ea1736","6877631c9844ddd5501205fc","6889daa5eab3438c1666d302","3","1","666408427db5e38fe0ea1736","3","1","2025-07-30T08:45:04.046Z","","","","","","","","","","","","","","","","","","","","","","","","","","","","","","","","","","","","","","","","","",""
"4942","","","","fullscreen","1","13371","0.0-1.0","268","1","2025-07-30 08:44:49","1f75c3e559b7213887762d5229550c2b","152.106.99.150","Mozilla/5.0 (Windows NT 10.0; Win64; x64) AppleWebKit/537.36 (KHTML, like Gecko) Chrome/138.0.0.0 Safari/537.36","WebKit","Chrome","138.0.0.0","Windows","10.0","https://app.prolific.com/","en-US,en;q=0.9","666408427db5e38fe0ea1736","6877631c9844ddd5501205fc","6889daa5eab3438c1666d302","3","1","666408427db5e38fe0ea1736","3","1","","true","","","","","","","","","","","","","","","","","","","","","","","","","","","","","","","","","","","","","","","","",""
"5382","1753865115373","<p style='font-size:1.1em;line-height:1.25'>In the following, we will ask you a few questions relating to your feelings in the last 24 hours.<br></p><p style='font-size:1.1em;line-height:1.25'>Press the <strong>Next</strong> button to continue.</p>","0","custom-html-button-response","2","18754","0.0-2.0-0.0","268","1","2025-07-30 08:44:49","1f75c3e559b7213887762d5229550c2b","152.106.99.150","Mozilla/5.0 (Windows NT 10.0; Win64; x64) AppleWebKit/537.36 (KHTML, like Gecko) Chrome/138.0.0.0 Safari/537.36","WebKit","Chrome","138.0.0.0","Windows","10.0","https://app.prolific.com/","en-US,en;q=0.9","666408427db5e38fe0ea1736","6877631c9844ddd5501205fc","6889daa5eab3438c1666d302","3","1","666408427db5e38fe0ea1736","3","1","2025-07-30T08:45:15.373Z","","","","","","","","","","","","","","","","","","","","","","","","","","","","","","","","","","","","","","","","","",""
"90778.19999999925","","","","survey-template","3","109536","0.0-2.0-1.0","268","1","2025-07-30 08:44:49","1f75c3e559b7213887762d5229550c2b","152.106.99.150","Mozilla/5.0 (Windows NT 10.0; Win64; x64) AppleWebKit/537.36 (KHTML, like Gecko) Chrome/138.0.0.0 Safari/537.36","WebKit","Chrome","138.0.0.0","Windows","10.0","https://app.prolific.com/","en-US,en;q=0.9","666408427db5e38fe0ea1736","6877631c9844ddd5501205fc","6889daa5eab3438c1666d302","3","1","666408427db5e38fe0ea1736","3","1","2025-07-30T08:46:46.155Z","","{""Q01"":""4"",""Q02"":""3"",""Q03"":""4"",""Q04"":""3"",""Q05"":""3"",""Q06"":""2"",""Q07"":""3"",""Q08"":""1"",""Q09"":""3"",""Q10"":""4"",""Q11"":""2"",""Q12"":""2"",""Q13"":""2"",""Q14"":""2"",""Q15"":""1"",""Q16"":""3"",""Q17"":""1"",""Q18"":""2"",""Q19"":""2"",""Q20"":""3"",""Q21"":""2"",""Q22"":""2""}","[0,1,2,3,4,5,6,7,8,9,10,11,12,13,14,15,16,17,18,19,20,21]","[""Q01"",""Q02"",""Q03"",""Q04"",""Q05"",""Q06"",""Q07"",""Q08"",""Q09"",""Q10"",""Q11"",""Q12"",""Q13"",""Q14"",""Q15"",""Q15"",""Q16"",""Q16"",""Q17"",""Q18"",""Q19"",""Q20"",""Q21"",""Q22""]","[4605.5,6981.699999999255,8101.699999999255,9333.699999999255,12157.5,14541.5,15845.5,19317.5,22733.199999999255,26477.300000000745,29365.400000000373,30597.5,32581.099999999627,33581.59999999963,35917.699999999255,37037.699999999255,38117.199999999255,39965.5,41269.300000000745,44037.09999999963,75605.19999999925,81277.5,87181.30000000075,89221.80000000075]","[]","[2.599999999627471,4605.5,5733.4000000003725,6365.5999999996275,6981.699999999255,8101.699999999255,9333.699999999255,11133.699999999255,12157.5,14541.5,15845.5,19317.5,22733.199999999255,26477.300000000745,28581.800000000745,29365.400000000373,30597.5,32581.099999999627,33581.59999999963,35189.59999999963,35917.699999999255,37037.699999999255,38117.199999999255,39965.5,41269.300000000745,42989.699999999255,44037.09999999963,45309.699999999255,75605.19999999925,78749.40000000037,81277.5,87181.30000000075,88557.5,89221.80000000075,90773.5]","0.4090909090909091","0.47619047619047616","0","drsp","","","","","","","","","","","","","","","","","","","","","","","","","","","","","","",""
"54441.59999999963","","","","survey-template","4","163979","0.0-2.0-2.0","268","1","2025-07-30 08:44:49","1f75c3e559b7213887762d5229550c2b","152.106.99.150","Mozilla/5.0 (Windows NT 10.0; Win64; x64) AppleWebKit/537.36 (KHTML, like Gecko) Chrome/138.0.0.0 Safari/537.36","WebKit","Chrome","138.0.0.0","Windows","10.0","https://app.prolific.com/","en-US,en;q=0.9","666408427db5e38fe0ea1736","6877631c9844ddd5501205fc","6889daa5eab3438c1666d302","3","1","666408427db5e38fe0ea1736","3","1","2025-07-30T08:47:40.598Z","","{""Q01"":""1"",""Q02"":""1"",""Q03"":""1""}","[0,1,2]","[""Q01"",""Q02"",""Q03"",""Q02""]","[4480.9000000003725,5472.699999999255,7872.9000000003725,50680.90000000037]","[]","[3528.800000000745,4480.9000000003725,5472.699999999255,7872.9000000003725,50680.90000000037,54440.800000000745]","0.6666666666666666","0","0","stress","","","","","","","","","","","","","","","","","","","","","","","","","","","","","","",""
"3199","","","","instructions","5","167178","0.0-3.0-0.0","268","1","2025-07-30 08:44:49","1f75c3e559b7213887762d5229550c2b","152.106.99.150","Mozilla/5.0 (Windows NT 10.0; Win64; x64) AppleWebKit/537.36 (KHTML, like Gecko) Chrome/138.0.0.0 Safari/537.36","WebKit","Chrome","138.0.0.0","Windows","10.0","https://app.prolific.com/","en-US,en;q=0.9","666408427db5e38fe0ea1736","6877631c9844ddd5501205fc","6889daa5eab3438c1666d302","3","1","666408427db5e38fe0ea1736","3","1","","","","","","","","","","","","","[{""page_index"":0,""viewing_time"":3199}]","","","","","","","","","","","","","","","","","","","","","","","","","","","","","",""
"4055","","<p>Before you start with this game please answer the following three questions yourself. </p>
  <p>Through this game, we measure several aspects of your cognitive performance, such as reaction times, multi-tasking capabilities </p>
  <p>and the ability to assess the situation you are in.</p>
  <p></p>
  <p><b>How good do you usually are in such tasks?</b></p>","55","html-slider-response","6","171234","0.0-4.0-0.0","268","1","2025-07-30 08:44:49","1f75c3e559b7213887762d5229550c2b","152.106.99.150","Mozilla/5.0 (Windows NT 10.0; Win64; x64) AppleWebKit/537.36 (KHTML, like Gecko) Chrome/138.0.0.0 Safari/537.36","WebKit","Chrome","138.0.0.0","Windows","10.0","https://app.prolific.com/","en-US,en;q=0.9","666408427db5e38fe0ea1736","6877631c9844ddd5501205fc","6889daa5eab3438c1666d302","3","1","666408427db5e38fe0ea1736","3","1","2025-07-30T08:47:47.853Z","","","","","","","","","","","PreSkillQ","","50","","","","","","","","","","","","","","","","","","","","","","","","","","","","",""
"3406","","<div style=""width:500px;"">
  <p>How well do you think you will perform in this task compared to other participants?</p>
  </div>","55","html-slider-response","7","174642","0.0-4.0-1.0","268","1","2025-07-30 08:44:49","1f75c3e559b7213887762d5229550c2b","152.106.99.150","Mozilla/5.0 (Windows NT 10.0; Win64; x64) AppleWebKit/537.36 (KHTML, like Gecko) Chrome/138.0.0.0 Safari/537.36","WebKit","Chrome","138.0.0.0","Windows","10.0","https://app.prolific.com/","en-US,en;q=0.9","666408427db5e38fe0ea1736","6877631c9844ddd5501205fc","6889daa5eab3438c1666d302","3","1","666408427db5e38fe0ea1736","3","1","2025-07-30T08:47:51.261Z","","","","","","","","","","","PrePerfQ","","50","","","","","","","","","","","","","","","","","","","","","","","","","","","","",""
"4375","","<div style=""width:500px;"">
  <p>What best describes how you currently feel?</p>
  </div>","74","html-slider-response","8","179018","0.0-4.0-2.0","268","1","2025-07-30 08:44:49","1f75c3e559b7213887762d5229550c2b","152.106.99.150","Mozilla/5.0 (Windows NT 10.0; Win64; x64) AppleWebKit/537.36 (KHTML, like Gecko) Chrome/138.0.0.0 Safari/537.36","WebKit","Chrome","138.0.0.0","Windows","10.0","https://app.prolific.com/","en-US,en;q=0.9","666408427db5e38fe0ea1736","6877631c9844ddd5501205fc","6889daa5eab3438c1666d302","3","1","666408427db5e38fe0ea1736","3","1","2025-07-30T08:47:55.637Z","","","","","","","","","","","PreMotivationQ","","50","","","","","","","","","","","","","","","","","","","","","","","","","","","","",""
"","","","","ctl-task-cpt","9","218007","0.0-5.0-0.0","268","1","2025-07-30 08:44:49","1f75c3e559b7213887762d5229550c2b","152.106.99.150","Mozilla/5.0 (Windows NT 10.0; Win64; x64) AppleWebKit/537.36 (KHTML, like Gecko) Chrome/138.0.0.0 Safari/537.36","WebKit","Chrome","138.0.0.0","Windows","10.0","https://app.prolific.com/","en-US,en;q=0.9","666408427db5e38fe0ea1736","6877631c9844ddd5501205fc","6889daa5eab3438c1666d302","3","1","666408427db5e38fe0ea1736","3","1","2025-07-30T08:48:34.626Z","","","","","","","","","","","","","","win-only","0","g1:NW,g2:SE","1","1","0","189043.9","3751.3","8754.6","35985","1","4","4","6","2","4","3","3","0","0.022727272727272728","3506","3000","525","[""down"",""right""]","{""num_key_presses"":7,""num_perfect"":6,""num_errors"":1,""num_randdir"":0,""num_randdir_good_moves"":0,""num_whilered"":0,""num_whileblue"":0,""num_blue"":2,""num_good_moves"":6}","[413.57142857142856,422.47767857142856,0.1,413.57142857142856,422.47767857142856,105.9,413.57142857142856,422.47767857142856,215.3,391.57142857142856,390.47767857142856,319.5,400.57142857142856,376.47767857142856,419.9,401.57142857142856,375.47767857142856,524.6,401.57142857142856,375.47767857142856,632.3,401.57142857142856,375.47767857142856,735.3,401.57142857142856,375.47767857142856,840.2,401.57142857142856,375.47767857142856,940.4,401.57142857142856,375.47767857142856,1040.5,401.57142857142856,375.47767857142856,1145,401.57142857142856,375.47767857142856,1246.2,401.57142857142856,375.47767857142856,1351,401.57142857142856,375.47767857142856,1454.8,401.57142857142856,375.47767857142856,1554.9,401.57142857142856,375.47767857142856,1661.5,401.57142857142856,375.47767857142856,1765.1,401.57142857142856,375.47767857142856,1870.2,401.57142857142856,375.47767857142856,1970.9,401.57142857142856,375.47767857142856,2077,401.57142857142856,375.47767857142856,2179.4,401.57142857142856,375.47767857142856,2280,401.57142857142856,375.47767857142856,2384.5,401.57142857142856,375.47767857142856,2484.6,396.57142857142856,373.47767857142856,2585.5,387.57142857142856,373.47767857142856,2692.7,402.57142857142856,381.47767857142856,2795.6,462.57142857142856,498.47767857142856,2900.1,510.57142857142856,589.4776785714286,3007.4,653.5714285714286,792.4776785714286,3107.5,695.5714285714286,829.4776785714286,3210.1,712.5714285714286,812.4776785714286,3310.6,731.5714285714286,784.4776785714286,3414.5,737.5714285714286,779.4776785714286,3515.9,738.5714285714286,779.4776785714286,3623.2,731.5714285714286,771.4776785714286,3725.3,712.5714285714286,757.4776785714286,3825.7,654.5714285714286,681.4776785714286,3929.7,592.5714285714286,532.4776785714286,4029.7,592.5714285714286,526.4776785714286,4130.6,592.5714285714286,526.4776785714286,4238.3,592.5714285714286,526.4776785714286,4341.2,592.5714285714286,526.4776785714286,4445.1,592.5714285714286,526.4776785714286,4545.1,592.5714285714286,526.4776785714286,4653.2,592.5714285714286,526.4776785714286,4753.2,592.5714285714286,526.4776785714286,4854.9,592.5714285714286,526.4776785714286,4959.7]","[482,482,1000,0,-518,""error"",""-"",""-"",""no_move"",4459.7,3977.5,2546.8,1486.3,426.7,""smooth"",""right"",""right"",""good_move"",8028.2,3567.9,3054.7,4460.3,513.2,""smooth"",""down"",""down"",""good_move"",10123.7,2094.7,1595.6,8029,499.1,""smooth"",""right"",""right"",""good_move"",20283.8,10159.7,2450,17402.7,431.1,""smooth"",""down"",""down"",""good_move"",23980.8,3696.7,3234,20284.1,462.7,""smooth"",""down"",""down"",""good_move"",27131.9,3150.6,2686.1,23981.3,464.5,""smooth"",""right"",""right"",""good_move""]","",""
"4633","","<div style=""width:500px;"">
  <p>What determined the result of this run?</p>
  </div>","79","html-slider-response","10","222641","0.0-5.0-1.0","268","1","2025-07-30 08:44:49","1f75c3e559b7213887762d5229550c2b","152.106.99.150","Mozilla/5.0 (Windows NT 10.0; Win64; x64) AppleWebKit/537.36 (KHTML, like Gecko) Chrome/138.0.0.0 Safari/537.36","WebKit","Chrome","138.0.0.0","Windows","10.0","https://app.prolific.com/","en-US,en;q=0.9","666408427db5e38fe0ea1736","6877631c9844ddd5501205fc","6889daa5eab3438c1666d302","3","1","666408427db5e38fe0ea1736","3","1","2025-07-30T08:48:39.260Z","","","","","","","","","","","AttribQ","","50","","","","","","","","","","","","","","","","","","","","","","","","","","","","",""
"3272","","<div style=""width:500px;"">
  <p>How much control did you have over the ball?</p>
  </div>","95","html-slider-response","11","225913","0.0-5.0-2.0","268","1","2025-07-30 08:44:49","1f75c3e559b7213887762d5229550c2b","152.106.99.150","Mozilla/5.0 (Windows NT 10.0; Win64; x64) AppleWebKit/537.36 (KHTML, like Gecko) Chrome/138.0.0.0 Safari/537.36","WebKit","Chrome","138.0.0.0","Windows","10.0","https://app.prolific.com/","en-US,en;q=0.9","666408427db5e38fe0ea1736","6877631c9844ddd5501205fc","6889daa5eab3438c1666d302","3","1","666408427db5e38fe0ea1736","3","1","2025-07-30T08:48:42.533Z","","","","","","","","","","","ControlQ","","50","","","","","","","","","","","","","","","","","","","","","","","","","","","","",""
"3087","","<div style=""width:500px;"">
  <p>How would you describe your current emotional state?</p>
  </div>","27","html-slider-response","12","229001","0.0-5.0-3.0","268","1","2025-07-30 08:44:49","1f75c3e559b7213887762d5229550c2b","152.106.99.150","Mozilla/5.0 (Windows NT 10.0; Win64; x64) AppleWebKit/537.36 (KHTML, like Gecko) Chrome/138.0.0.0 Safari/537.36","WebKit","Chrome","138.0.0.0","Windows","10.0","https://app.prolific.com/","en-US,en;q=0.9","666408427db5e38fe0ea1736","6877631c9844ddd5501205fc","6889daa5eab3438c1666d302","3","1","666408427db5e38fe0ea1736","3","1","2025-07-30T08:48:45.620Z","","","","","","","","","","","StressQ","","50","","","","","","","","","","","","","","","","","","","","","","","","","","","","",""
"3895","","<div style=""width:500px;"">
  <p>What best describes how you currently feel?</p>
  </div>","57","html-slider-response","13","232897","0.0-5.0-4.0","268","1","2025-07-30 08:44:49","1f75c3e559b7213887762d5229550c2b","152.106.99.150","Mozilla/5.0 (Windows NT 10.0; Win64; x64) AppleWebKit/537.36 (KHTML, like Gecko) Chrome/138.0.0.0 Safari/537.36","WebKit","Chrome","138.0.0.0","Windows","10.0","https://app.prolific.com/","en-US,en;q=0.9","666408427db5e38fe0ea1736","6877631c9844ddd5501205fc","6889daa5eab3438c1666d302","3","1","666408427db5e38fe0ea1736","3","1","2025-07-30T08:48:49.516Z","","","","","","","","","","","MotivationQ","","50","","","","","","","","","","","","","","","","","","","","","","","","","","","","",""
"","","","","ctl-task-cpt","14","258241","0.0-5.0-0.1","268","1","2025-07-30 08:44:49","1f75c3e559b7213887762d5229550c2b","152.106.99.150","Mozilla/5.0 (Windows NT 10.0; Win64; x64) AppleWebKit/537.36 (KHTML, like Gecko) Chrome/138.0.0.0 Safari/537.36","WebKit","Chrome","138.0.0.0","Windows","10.0","https://app.prolific.com/","en-US,en;q=0.9","666408427db5e38fe0ea1736","6877631c9844ddd5501205fc","6889daa5eab3438c1666d302","3","1","666408427db5e38fe0ea1736","3","1","2025-07-30T08:49:14.860Z","","","","","","","","","","","","","","win-only","0","g1:NW,g2:SE","0.9","2","0","242922.6","1164.2","6166.1","22325.6","1","4","8","6","2","8","8","11","3","0.08333333333333333","1124.2","3000","675","[""down"",""right""]","{""num_key_presses"":6,""num_perfect"":6,""num_errors"":0,""num_randdir"":0,""num_randdir_good_moves"":0,""num_whilered"":0,""num_whileblue"":0,""num_blue"":0,""num_good_moves"":6}","[421.57142857142856,417.47767857142856,0.1,421.57142857142856,417.47767857142856,102.1,421.57142857142856,417.47767857142856,206.8,424.57142857142856,414.47767857142856,311.3,425.57142857142856,410.47767857142856,411.8,420.57142857142856,439.47767857142856,516.4,574.5714285714286,722.4776785714286,616.6,664.5714285714286,843.4776785714286,721.3,710.5714285714286,858.4776785714286,821.5,709.5714285714286,816.4776785714286,923.1,709.5714285714286,794.4776785714286,1026.9,711.5714285714286,791.4776785714286,1131.4,711.5714285714286,791.4776785714286,1232.6,707.5714285714286,784.4776785714286,1336.3,664.5714285714286,747.4776785714286,1436.4,623.5714285714286,685.4776785714286,1538,603.5714285714286,642.4776785714286,1641.6,603.5714285714286,638.4776785714286,1746.5,603.5714285714286,638.4776785714286,1852,603.5714285714286,638.4776785714286,1952.2,603.5714285714286,638.4776785714286,2056.9,603.5714285714286,638.4776785714286,2156.9,603.5714285714286,636.4776785714286,2258,603.5714285714286,635.4776785714286,2361.5,603.5714285714286,635.4776785714286,2463.7,603.5714285714286,635.4776785714286,2566.4,603.5714285714286,635.4776785714286,2667,603.5714285714286,635.4776785714286,2771.1,603.5714285714286,635.4776785714286,2871.6,603.5714285714286,635.4776785714286,2971.7,603.5714285714286,635.4776785714286,3076.4,603.5714285714286,635.4776785714286,3181.8,603.5714285714286,635.4776785714286,3282.5,603.5714285714286,635.4776785714286,3386.8,603.5714285714286,635.4776785714286,3491.2,603.5714285714286,635.4776785714286,3591.2,603.5714285714286,632.4776785714286,3691.3,603.5714285714286,630.4776785714286,3791.9,603.5714285714286,630.4776785714286,3892,603.5714285714286,630.4776785714286,3996.9,603.5714285714286,630.4776785714286,4101.1,603.5714285714286,630.4776785714286,4206,603.5714285714286,630.4776785714286,4306.4,603.5714285714286,630.4776785714286,4411.8,603.5714285714286,630.4776785714286,4516.4,603.5714285714286,630.4776785714286,4616.4,603.5714285714286,630.4776785714286,4717.4,603.5714285714286,630.4776785714286,4821.8,603.5714285714286,630.4776785714286,4926.4]","[1408.8,1408.7,1000,0.1,408.7,""smooth"",""down"",""down"",""good_move"",5233.7,3824.7,3451,1409,373.7,""smooth"",""right"",""right"",""good_move"",8049.2,2815.2,2376.5,5234,438.7,""smooth"",""down"",""down"",""good_move"",10929.2,2879.7,2458.8,8049.6,420.8,""smooth"",""right"",""right"",""good_move"",13904.8,2975.5,2621.9,10929.5,353.5,""smooth"",""down"",""down"",""good_move"",16065.9,2160.9,1790.1,13905.1,370.7,""smooth"",""right"",""right"",""good_move""]","",""
"3983","","<div style=""width:500px;"">
  <p>What determined the result of this run?</p>
  </div>","89","html-slider-response","15","262226","0.0-5.0-1.1","268","1","2025-07-30 08:44:49","1f75c3e559b7213887762d5229550c2b","152.106.99.150","Mozilla/5.0 (Windows NT 10.0; Win64; x64) AppleWebKit/537.36 (KHTML, like Gecko) Chrome/138.0.0.0 Safari/537.36","WebKit","Chrome","138.0.0.0","Windows","10.0","https://app.prolific.com/","en-US,en;q=0.9","666408427db5e38fe0ea1736","6877631c9844ddd5501205fc","6889daa5eab3438c1666d302","3","1","666408427db5e38fe0ea1736","3","1","2025-07-30T08:49:18.845Z","","","","","","","","","","","AttribQ","","50","","","","","","","","","","","","","","","","","","","","","","","","","","","","",""
"3111","","<div style=""width:500px;"">
  <p>How much control did you have over the ball?</p>
  </div>","60","html-slider-response","16","265337","0.0-5.0-2.1","268","1","2025-07-30 08:44:49","1f75c3e559b7213887762d5229550c2b","152.106.99.150","Mozilla/5.0 (Windows NT 10.0; Win64; x64) AppleWebKit/537.36 (KHTML, like Gecko) Chrome/138.0.0.0 Safari/537.36","WebKit","Chrome","138.0.0.0","Windows","10.0","https://app.prolific.com/","en-US,en;q=0.9","666408427db5e38fe0ea1736","6877631c9844ddd5501205fc","6889daa5eab3438c1666d302","3","1","666408427db5e38fe0ea1736","3","1","2025-07-30T08:49:21.956Z","","","","","","","","","","","ControlQ","","50","","","","","","","","","","","","","","","","","","","","","","","","","","","","",""
"2703","","<div style=""width:500px;"">
  <p>How would you describe your current emotional state?</p>
  </div>","67","html-slider-response","17","268042","0.0-5.0-3.1","268","1","2025-07-30 08:44:49","1f75c3e559b7213887762d5229550c2b","152.106.99.150","Mozilla/5.0 (Windows NT 10.0; Win64; x64) AppleWebKit/537.36 (KHTML, like Gecko) Chrome/138.0.0.0 Safari/537.36","WebKit","Chrome","138.0.0.0","Windows","10.0","https://app.prolific.com/","en-US,en;q=0.9","666408427db5e38fe0ea1736","6877631c9844ddd5501205fc","6889daa5eab3438c1666d302","3","1","666408427db5e38fe0ea1736","3","1","2025-07-30T08:49:24.661Z","","","","","","","","","","","StressQ","","50","","","","","","","","","","","","","","","","","","","","","","","","","","","","",""
"3135","","<div style=""width:500px;"">
  <p>What best describes how you currently feel?</p>
  </div>","38","html-slider-response","18","271177","0.0-5.0-4.1","268","1","2025-07-30 08:44:49","1f75c3e559b7213887762d5229550c2b","152.106.99.150","Mozilla/5.0 (Windows NT 10.0; Win64; x64) AppleWebKit/537.36 (KHTML, like Gecko) Chrome/138.0.0.0 Safari/537.36","WebKit","Chrome","138.0.0.0","Windows","10.0","https://app.prolific.com/","en-US,en;q=0.9","666408427db5e38fe0ea1736","6877631c9844ddd5501205fc","6889daa5eab3438c1666d302","3","1","666408427db5e38fe0ea1736","3","1","2025-07-30T08:49:27.797Z","","","","","","","","","","","MotivationQ","","50","","","","","","","","","","","","","","","","","","","","","","","","","","","","",""
"","","","","ctl-task-cpt","19","300307","0.0-5.0-0.2","268","1","2025-07-30 08:44:49","1f75c3e559b7213887762d5229550c2b","152.106.99.150","Mozilla/5.0 (Windows NT 10.0; Win64; x64) AppleWebKit/537.36 (KHTML, like Gecko) Chrome/138.0.0.0 Safari/537.36","WebKit","Chrome","138.0.0.0","Windows","10.0","https://app.prolific.com/","en-US,en;q=0.9","666408427db5e38fe0ea1736","6877631c9844ddd5501205fc","6889daa5eab3438c1666d302","3","1","666408427db5e38fe0ea1736","3","1","2025-07-30T08:49:56.926Z","","","","","","","","","","","","","","win-only","3","g1:SW,g2:NE","0.8","3","0","281203.5","911.6","5917.2","26111.4","1","4","4","6","2","-4","-4","7","11","0.05303030303030303","1528.4","3000","-2995","[""up"",""right""]","{""num_key_presses"":7,""num_perfect"":6,""num_errors"":0,""num_randdir"":1,""num_randdir_good_moves"":0,""num_whilered"":0,""num_whileblue"":0,""num_blue"":0,""num_good_moves"":6}","[422.57142857142856,414.47767857142856,0.2,422.57142857142856,414.47767857142856,105.6,422.57142857142856,414.47767857142856,208.9,422.57142857142856,414.47767857142856,308.9,420.57142857142856,418.47767857142856,410.8,398.57142857142856,445.47767857142856,514.2,314.57142857142856,524.4776785714286,614.3,294.57142857142856,543.4776785714286,720.3,457.57142857142856,365.47767857142856,821.7,631.5714285714286,177.47767857142856,923.8,707.5714285714286,120.47767857142857,1023.9,774.5714285714286,75.47767857142857,1128.7,776.5714285714286,74.47767857142857,1229.2,776.5714285714286,74.47767857142857,1329.7,776.5714285714286,74.47767857142857,1434.1,776.5714285714286,74.47767857142857,1534.3,776.5714285714286,74.47767857142857,1636.1,776.5714285714286,74.47767857142857,1739.2,766.5714285714286,80.47767857142857,1846.1,687.5714285714286,179.47767857142856,1951.8,608.5714285714286,294.47767857142856,2056.7,593.5714285714286,296.47767857142856,2159.2,615.5714285714286,294.47767857142856,2263.9,620.5714285714286,296.47767857142856,2370.4,620.5714285714286,296.47767857142856,2475,620.5714285714286,296.47767857142856,2580.2,620.5714285714286,296.47767857142856,2681.7,620.5714285714286,296.47767857142856,2784.3,620.5714285714286,296.47767857142856,2884.6,620.5714285714286,296.47767857142856,2990,620.5714285714286,296.47767857142856,3095.8,620.5714285714286,296.47767857142856,3197.2,620.5714285714286,296.47767857142856,3299.3,620.5714285714286,296.47767857142856,3404.5,620.5714285714286,296.47767857142856,3508.8,620.5714285714286,296.47767857142856,3614.2,620.5714285714286,296.47767857142856,3716.8,620.5714285714286,296.47767857142856,3819.9,620.5714285714286,296.47767857142856,3924.2,620.5714285714286,296.47767857142856,4025.5,620.5714285714286,296.47767857142856,4129.4,620.5714285714286,296.47767857142856,4231.4,620.5714285714286,296.47767857142856,4334.2,620.5714285714286,296.47767857142856,4439.6,620.5714285714286,296.47767857142856,4544.3,620.5714285714286,296.47767857142856,4645,620.5714285714286,296.47767857142856,4745.6,620.5714285714286,296.47767857142856,4849.2,620.5714285714286,296.47767857142856,4954]","[1552.7,1552.7,1000,0,552.8,""smooth"",""up"",""up"",""good_move"",4373.5,2820.6,2407.8,1552.9,412.8,""smooth"",""up"",""up"",""good_move"",6834.6,2460.8,1988.4,4373.9,472.3,""oops"",""right"",""left"",""bad_move"",10112.6,3277.4,2870.3,6835.2,407.1,""smooth"",""right"",""right"",""good_move"",13170.2,3057.4,2706.2,10112.8,351.2,""smooth"",""right"",""right"",""good_move"",15648.7,2478.3,2141,13170.4,337.3,""smooth"",""right"",""right"",""good_move"",18133.4,2484.5,2152.7,15648.9,331.8,""smooth"",""right"",""right"",""good_move""]","",""
"3422","","<div style=""width:500px;"">
  <p>What determined the result of this run?</p>
  </div>","74","html-slider-response","20","303730","0.0-5.0-1.2","268","1","2025-07-30 08:44:49","1f75c3e559b7213887762d5229550c2b","152.106.99.150","Mozilla/5.0 (Windows NT 10.0; Win64; x64) AppleWebKit/537.36 (KHTML, like Gecko) Chrome/138.0.0.0 Safari/537.36","WebKit","Chrome","138.0.0.0","Windows","10.0","https://app.prolific.com/","en-US,en;q=0.9","666408427db5e38fe0ea1736","6877631c9844ddd5501205fc","6889daa5eab3438c1666d302","3","1","666408427db5e38fe0ea1736","3","1","2025-07-30T08:50:00.349Z","","","","","","","","","","","AttribQ","","50","","","","","","","","","","","","","","","","","","","","","","","","","","","","",""
"2679","","<div style=""width:500px;"">
  <p>How much control did you have over the ball?</p>
  </div>","44","html-slider-response","21","306410","0.0-5.0-2.2","268","1","2025-07-30 08:44:49","1f75c3e559b7213887762d5229550c2b","152.106.99.150","Mozilla/5.0 (Windows NT 10.0; Win64; x64) AppleWebKit/537.36 (KHTML, like Gecko) Chrome/138.0.0.0 Safari/537.36","WebKit","Chrome","138.0.0.0","Windows","10.0","https://app.prolific.com/","en-US,en;q=0.9","666408427db5e38fe0ea1736","6877631c9844ddd5501205fc","6889daa5eab3438c1666d302","3","1","666408427db5e38fe0ea1736","3","1","2025-07-30T08:50:03.029Z","","","","","","","","","","","ControlQ","","50","","","","","","","","","","","","","","","","","","","","","","","","","","","","",""
"3342","","<div style=""width:500px;"">
  <p>How would you describe your current emotional state?</p>
  </div>","26","html-slider-response","22","309753","0.0-5.0-3.2","268","1","2025-07-30 08:44:49","1f75c3e559b7213887762d5229550c2b","152.106.99.150","Mozilla/5.0 (Windows NT 10.0; Win64; x64) AppleWebKit/537.36 (KHTML, like Gecko) Chrome/138.0.0.0 Safari/537.36","WebKit","Chrome","138.0.0.0","Windows","10.0","https://app.prolific.com/","en-US,en;q=0.9","666408427db5e38fe0ea1736","6877631c9844ddd5501205fc","6889daa5eab3438c1666d302","3","1","666408427db5e38fe0ea1736","3","1","2025-07-30T08:50:06.373Z","","","","","","","","","","","StressQ","","50","","","","","","","","","","","","","","","","","","","","","","","","","","","","",""
"2447","","<div style=""width:500px;"">
  <p>What best describes how you currently feel?</p>
  </div>","61","html-slider-response","23","312201","0.0-5.0-4.2","268","1","2025-07-30 08:44:49","1f75c3e559b7213887762d5229550c2b","152.106.99.150","Mozilla/5.0 (Windows NT 10.0; Win64; x64) AppleWebKit/537.36 (KHTML, like Gecko) Chrome/138.0.0.0 Safari/537.36","WebKit","Chrome","138.0.0.0","Windows","10.0","https://app.prolific.com/","en-US,en;q=0.9","666408427db5e38fe0ea1736","6877631c9844ddd5501205fc","6889daa5eab3438c1666d302","3","1","666408427db5e38fe0ea1736","3","1","2025-07-30T08:50:08.820Z","","","","","","","","","","","MotivationQ","","50","","","","","","","","","","","","","","","","","","","","","","","","","","","","",""
"","","","","ctl-task-cpt","24","347217","0.0-5.0-0.3","268","1","2025-07-30 08:44:49","1f75c3e559b7213887762d5229550c2b","152.106.99.150","Mozilla/5.0 (Windows NT 10.0; Win64; x64) AppleWebKit/537.36 (KHTML, like Gecko) Chrome/138.0.0.0 Safari/537.36","WebKit","Chrome","138.0.0.0","Windows","10.0","https://app.prolific.com/","en-US,en;q=0.9","666408427db5e38fe0ea1736","6877631c9844ddd5501205fc","6889daa5eab3438c1666d302","3","1","666408427db5e38fe0ea1736","3","1","2025-07-30T08:50:43.836Z","","","","","","","","","","","","","","win-only","3","g1:SW,g2:NE","0.7","4","0","322226.9","1936.1","6940.1","31991.3","1","4","8","6","2","8","8","15","7","0.11363636363636363","1713.9","3000","485","[""up"",""right""]","{""num_key_presses"":8,""num_perfect"":6,""num_errors"":0,""num_randdir"":2,""num_randdir_good_moves"":1,""num_whilered"":0,""num_whileblue"":0,""num_blue"":1,""num_good_moves"":7}","[429.57142857142856,419.47767857142856,0.3,429.57142857142856,419.47767857142856,100,429.57142857142856,419.47767857142856,200.9,429.57142857142856,419.47767857142856,305.3,429.57142857142856,419.47767857142856,405.6,429.57142857142856,419.47767857142856,505.7,423.57142857142856,422.47767857142856,615.1,421.57142857142856,423.47767857142856,721,412.57142857142856,427.47767857142856,825,394.57142857142856,440.47767857142856,930.6,411.57142857142856,431.47767857142856,1031.2,651.5714285714286,214.47767857142856,1134.6,728.5714285714286,65.47767857142857,1235.3,748.5714285714286,34.47767857142857,1353,748.5714285714286,33.47767857142857,1463.6,748.5714285714286,33.47767857142857,1565.1,748.5714285714286,33.47767857142857,1670.3,748.5714285714286,33.47767857142857,1778.7,748.5714285714286,33.47767857142857,1879.7,747.5714285714286,37.47767857142857,1985,728.5714285714286,109.47767857142857,2085.9,695.5714285714286,240.47767857142856,2194,688.5714285714286,235.47767857142856,2294.3,713.5714285714286,238.47767857142856,2395.1,715.5714285714286,238.47767857142856,2500.2,715.5714285714286,238.47767857142856,2600.8,715.5714285714286,238.47767857142856,2701,715.5714285714286,238.47767857142856,2809.1,715.5714285714286,238.47767857142856,2909.1,715.5714285714286,238.47767857142856,3009.9,715.5714285714286,238.47767857142856,3114.8,715.5714285714286,238.47767857142856,3215.8,715.5714285714286,238.47767857142856,3315.9,715.5714285714286,238.47767857142856,3423.7,715.5714285714286,238.47767857142856,3525.2,715.5714285714286,238.47767857142856,3630.4,715.5714285714286,238.47767857142856,3730.4,715.5714285714286,238.47767857142856,3839.3,715.5714285714286,238.47767857142856,3940.6,715.5714285714286,238.47767857142856,4045.1,715.5714285714286,238.47767857142856,4155.3,715.5714285714286,238.47767857142856,4255.3,715.5714285714286,238.47767857142856,4360.6,715.5714285714286,238.47767857142856,4460.6,715.5714285714286,238.47767857142856,4564.4,715.5714285714286,238.47767857142856,4665.2,715.5714285714286,238.47767857142856,4769.5,715.5714285714286,238.47767857142856,4869.5,715.5714285714286,238.47767857142856,4969.7]","[4738.9,4738.9,2286,2010.1,442.8,""oops"",""up"",""right"",""good_move"",7827.1,3087.9,2710,4739.2,377.9,""smooth"",""up"",""up"",""good_move"",11394.1,3566.6,3133.5,7827.5,433.1,""smooth"",""up"",""up"",""good_move"",14546.7,3152.4,2739.2,11394.3,413.2,""smooth"",""up"",""up"",""good_move"",17138.7,2591.7,2230.6,14547,361.1,""smooth"",""right"",""right"",""good_move"",19618.5,2479.5,2128.2,17139,351.3,""oops"",""right"",""left"",""bad_move"",22537.1,2918.2,2552.7,19618.9,365.5,""smooth"",""right"",""right"",""good_move"",24947.9,2410.3,2070.6,22537.6,339.7,""smooth"",""right"",""right"",""good_move""]","",""
"3345","","<div style=""width:500px;"">
  <p>What determined the result of this run?</p>
  </div>","91","html-slider-response","25","350564","0.0-5.0-1.3","268","1","2025-07-30 08:44:49","1f75c3e559b7213887762d5229550c2b","152.106.99.150","Mozilla/5.0 (Windows NT 10.0; Win64; x64) AppleWebKit/537.36 (KHTML, like Gecko) Chrome/138.0.0.0 Safari/537.36","WebKit","Chrome","138.0.0.0","Windows","10.0","https://app.prolific.com/","en-US,en;q=0.9","666408427db5e38fe0ea1736","6877631c9844ddd5501205fc","6889daa5eab3438c1666d302","3","1","666408427db5e38fe0ea1736","3","1","2025-07-30T08:50:47.183Z","","","","","","","","","","","AttribQ","","50","","","","","","","","","","","","","","","","","","","","","","","","","","","","",""
"2964","","<div style=""width:500px;"">
  <p>How much control did you have over the ball?</p>
  </div>","90","html-slider-response","26","353529","0.0-5.0-2.3","268","1","2025-07-30 08:44:49","1f75c3e559b7213887762d5229550c2b","152.106.99.150","Mozilla/5.0 (Windows NT 10.0; Win64; x64) AppleWebKit/537.36 (KHTML, like Gecko) Chrome/138.0.0.0 Safari/537.36","WebKit","Chrome","138.0.0.0","Windows","10.0","https://app.prolific.com/","en-US,en;q=0.9","666408427db5e38fe0ea1736","6877631c9844ddd5501205fc","6889daa5eab3438c1666d302","3","1","666408427db5e38fe0ea1736","3","1","2025-07-30T08:50:50.148Z","","","","","","","","","","","ControlQ","","50","","","","","","","","","","","","","","","","","","","","","","","","","","","","",""
"3065","","<div style=""width:500px;"">
  <p>How would you describe your current emotional state?</p>
  </div>","22","html-slider-response","27","356596","0.0-5.0-3.3","268","1","2025-07-30 08:44:49","1f75c3e559b7213887762d5229550c2b","152.106.99.150","Mozilla/5.0 (Windows NT 10.0; Win64; x64) AppleWebKit/537.36 (KHTML, like Gecko) Chrome/138.0.0.0 Safari/537.36","WebKit","Chrome","138.0.0.0","Windows","10.0","https://app.prolific.com/","en-US,en;q=0.9","666408427db5e38fe0ea1736","6877631c9844ddd5501205fc","6889daa5eab3438c1666d302","3","1","666408427db5e38fe0ea1736","3","1","2025-07-30T08:50:53.216Z","","","","","","","","","","","StressQ","","50","","","","","","","","","","","","","","","","","","","","","","","","","","","","",""
"3377","","<div style=""width:500px;"">
  <p>What best describes how you currently feel?</p>
  </div>","87","html-slider-response","28","359978","0.0-5.0-4.3","268","1","2025-07-30 08:44:49","1f75c3e559b7213887762d5229550c2b","152.106.99.150","Mozilla/5.0 (Windows NT 10.0; Win64; x64) AppleWebKit/537.36 (KHTML, like Gecko) Chrome/138.0.0.0 Safari/537.36","WebKit","Chrome","138.0.0.0","Windows","10.0","https://app.prolific.com/","en-US,en;q=0.9","666408427db5e38fe0ea1736","6877631c9844ddd5501205fc","6889daa5eab3438c1666d302","3","1","666408427db5e38fe0ea1736","3","1","2025-07-30T08:50:56.597Z","","","","","","","","","","","MotivationQ","","50","","","","","","","","","","","","","","","","","","","","","","","","","","","","",""
"","","","","ctl-task-cpt","29","417785","0.0-5.0-0.4","268","1","2025-07-30 08:44:49","1f75c3e559b7213887762d5229550c2b","152.106.99.150","Mozilla/5.0 (Windows NT 10.0; Win64; x64) AppleWebKit/537.36 (KHTML, like Gecko) Chrome/138.0.0.0 Safari/537.36","WebKit","Chrome","138.0.0.0","Windows","10.0","https://app.prolific.com/","en-US,en;q=0.9","666408427db5e38fe0ea1736","6877631c9844ddd5501205fc","6889daa5eab3438c1666d302","3","1","666408427db5e38fe0ea1736","3","1","2025-07-30T08:51:54.404Z","","","","","","","","","","","","","","win-only","3","g1:SW,g2:NE","0.6","5","0","370009","3209.9","8210.7","54790.7","1","4","8","6","2","-8","-9","6","15","0.045454545454545456","1160.2","3000","-2270","[""up"",""right""]","{""num_key_presses"":10,""num_perfect"":5,""num_errors"":1,""num_randdir"":4,""num_randdir_good_moves"":1,""num_whilered"":0,""num_whileblue"":1,""num_blue"":5,""num_good_moves"":7}","[403.57142857142856,417.47767857142856,0.2,403.57142857142856,417.47767857142856,100.9,403.57142857142856,417.47767857142856,201.9,403.57142857142856,417.47767857142856,314.8,403.57142857142856,417.47767857142856,415.1,433.57142857142856,386.47767857142856,516.7,626.5714285714286,112.47767857142857,622.6,736.5714285714286,-2.5223214285714306,729.2,751.5714285714286,-10.52232142857143,830.6,771.5714285714286,34.47767857142857,931,773.5714285714286,53.47767857142857,1046,773.5714285714286,53.47767857142857,1151,773.5714285714286,53.47767857142857,1262.9,770.5714285714286,54.47767857142857,1366.6,774.5714285714286,35.47767857142857,1471.1,796.5714285714286,28.47767857142857,1571.9,808.5714285714286,32.47767857142857,1676.7,808.5714285714286,32.47767857142857,1782.2,808.5714285714286,32.47767857142857,1893.7,808.5714285714286,32.47767857142857,1995.7,808.5714285714286,32.47767857142857,2097.2,808.5714285714286,32.47767857142857,2201.6,808.5714285714286,32.47767857142857,2309.9,808.5714285714286,32.47767857142857,2411.1,808.5714285714286,32.47767857142857,2517.1,808.5714285714286,32.47767857142857,2617.7,808.5714285714286,32.47767857142857,2717.7,808.5714285714286,32.47767857142857,2818.4,808.5714285714286,32.47767857142857,2924.7,808.5714285714286,32.47767857142857,3026,808.5714285714286,32.47767857142857,3126.2,808.5714285714286,32.47767857142857,3239.6,808.5714285714286,32.47767857142857,3340.7,808.5714285714286,32.47767857142857,3440.8,808.5714285714286,32.47767857142857,3545.6,808.5714285714286,32.47767857142857,3647,808.5714285714286,32.47767857142857,3756.5,808.5714285714286,32.47767857142857,3861.2,808.5714285714286,32.47767857142857,3971.2,808.5714285714286,32.47767857142857,4072.3,808.5714285714286,32.47767857142857,4176.5,808.5714285714286,32.47767857142857,4276.9,808.5714285714286,32.47767857142857,4382.1,808.5714285714286,32.47767857142857,4486.7,808.5714285714286,32.47767857142857,4590.5,808.5714285714286,32.47767857142857,4690.7,808.5714285714286,32.47767857142857,4803,808.5714285714286,32.47767857142857,4906.3]","[8517.7,8517.7,2711.8,5325.2,480.7,""oops"",""up"",""up"",""good_move"",11654.6,3136.6,2718.1,8518,418.5,""smooth"",""right"",""right"",""good_move"",15062.1,3406.9,3025,11655.2,381.9,""smooth"",""up"",""up"",""good_move"",18421.3,3358.9,2960.4,15062.4,398.5,""oops"",""right"",""left"",""bad_move"",21510.8,3089.3,2659.1,18421.5,430.2,""oops"",""up"",""left"",""bad_move"",24853.6,3342.7,2896.2,21510.9,446.5,""oops"",""right"",""down"",""bad_move"",27013.8,2159.8,2025.7,24854,134.1,""smooth"",""up"",""up"",""good_move"",29703.6,2689.6,1975.6,27014,714,""while_blue"",""right"",""up"",""good_move"",36614.4,6910.4,2769.9,33380.6,463.9,""smooth"",""right"",""right"",""good_move"",39797.8,3182.7,2520.8,36615.1,661.9,""smooth"",""right"",""right"",""good_move""]","",""
"3737","","<div style=""width:500px;"">
  <p>What determined the result of this run?</p>
  </div>","82","html-slider-response","30","421525","0.0-5.0-1.4","268","1","2025-07-30 08:44:49","1f75c3e559b7213887762d5229550c2b","152.106.99.150","Mozilla/5.0 (Windows NT 10.0; Win64; x64) AppleWebKit/537.36 (KHTML, like Gecko) Chrome/138.0.0.0 Safari/537.36","WebKit","Chrome","138.0.0.0","Windows","10.0","https://app.prolific.com/","en-US,en;q=0.9","666408427db5e38fe0ea1736","6877631c9844ddd5501205fc","6889daa5eab3438c1666d302","3","1","666408427db5e38fe0ea1736","3","1","2025-07-30T08:51:58.144Z","","","","","","","","","","","AttribQ","","50","","","","","","","","","","","","","","","","","","","","","","","","","","","","",""
"3090","","<div style=""width:500px;"">
  <p>How much control did you have over the ball?</p>
  </div>","84","html-slider-response","31","424619","0.0-5.0-2.4","268","1","2025-07-30 08:44:49","1f75c3e559b7213887762d5229550c2b","152.106.99.150","Mozilla/5.0 (Windows NT 10.0; Win64; x64) AppleWebKit/537.36 (KHTML, like Gecko) Chrome/138.0.0.0 Safari/537.36","WebKit","Chrome","138.0.0.0","Windows","10.0","https://app.prolific.com/","en-US,en;q=0.9","666408427db5e38fe0ea1736","6877631c9844ddd5501205fc","6889daa5eab3438c1666d302","3","1","666408427db5e38fe0ea1736","3","1","2025-07-30T08:52:01.238Z","","","","","","","","","","","ControlQ","","50","","","","","","","","","","","","","","","","","","","","","","","","","","","","",""
"5287","","<div style=""width:500px;"">
  <p>How would you describe your current emotional state?</p>
  </div>","14","html-slider-response","32","429909","0.0-5.0-3.4","268","1","2025-07-30 08:44:49","1f75c3e559b7213887762d5229550c2b","152.106.99.150","Mozilla/5.0 (Windows NT 10.0; Win64; x64) AppleWebKit/537.36 (KHTML, like Gecko) Chrome/138.0.0.0 Safari/537.36","WebKit","Chrome","138.0.0.0","Windows","10.0","https://app.prolific.com/","en-US,en;q=0.9","666408427db5e38fe0ea1736","6877631c9844ddd5501205fc","6889daa5eab3438c1666d302","3","1","666408427db5e38fe0ea1736","3","1","2025-07-30T08:52:06.528Z","","","","","","","","","","","StressQ","","50","","","","","","","","","","","","","","","","","","","","","","","","","","","","",""
"2784","","<div style=""width:500px;"">
  <p>What best describes how you currently feel?</p>
  </div>","74","html-slider-response","33","432694","0.0-5.0-4.4","268","1","2025-07-30 08:44:49","1f75c3e559b7213887762d5229550c2b","152.106.99.150","Mozilla/5.0 (Windows NT 10.0; Win64; x64) AppleWebKit/537.36 (KHTML, like Gecko) Chrome/138.0.0.0 Safari/537.36","WebKit","Chrome","138.0.0.0","Windows","10.0","https://app.prolific.com/","en-US,en;q=0.9","666408427db5e38fe0ea1736","6877631c9844ddd5501205fc","6889daa5eab3438c1666d302","3","1","666408427db5e38fe0ea1736","3","1","2025-07-30T08:52:09.314Z","","","","","","","","","","","MotivationQ","","50","","","","","","","","","","","","","","","","","","","","","","","","","","","","",""
"","","","","ctl-task-cpt","34","462727","0.0-5.0-0.5","268","1","2025-07-30 08:44:49","1f75c3e559b7213887762d5229550c2b","152.106.99.150","Mozilla/5.0 (Windows NT 10.0; Win64; x64) AppleWebKit/537.36 (KHTML, like Gecko) Chrome/138.0.0.0 Safari/537.36","WebKit","Chrome","138.0.0.0","Windows","10.0","https://app.prolific.com/","en-US,en;q=0.9","666408427db5e38fe0ea1736","6877631c9844ddd5501205fc","6889daa5eab3438c1666d302","3","1","666408427db5e38fe0ea1736","3","1","2025-07-30T08:52:39.346Z","","","","","","","","","","","","","","win-only","2","g1:SE,g2:NW","0.5","6","0","442721","1554.5","6557.4","27015.8","1","4","4","6","2","-4","-4","2","6","0.015151515151515152","1934.9","3000","-2330","[""left"",""up""]","{""num_key_presses"":7,""num_perfect"":5,""num_errors"":0,""num_randdir"":2,""num_randdir_good_moves"":1,""num_whilered"":0,""num_whileblue"":0,""num_blue"":0,""num_good_moves"":6}","[418.57142857142856,423.47767857142856,0.2,418.57142857142856,423.47767857142856,104.4,418.57142857142856,423.47767857142856,207.1,418.57142857142856,423.47767857142856,311.4,418.57142857142856,423.47767857142856,412,418.57142857142856,423.47767857142856,512.6,417.57142857142856,420.47767857142856,617,417.57142857142856,420.47767857142856,719.1,411.57142857142856,424.47767857142856,824.2,409.57142857142856,428.47767857142856,927.3,409.57142857142856,428.47767857142856,1030.8,409.57142857142856,403.47767857142856,1132.8,313.57142857142856,239.47767857142856,1236.2,251.57142857142856,179.47767857142856,1336.5,156.57142857142856,128.47767857142856,1437,142.57142857142856,129.47767857142856,1553,119.57142857142857,119.47767857142857,1663.7,112.57142857142857,116.47767857142857,1766,105.57142857142857,111.47767857142857,1866.2,105.57142857142857,111.47767857142857,1966.6,105.57142857142857,111.47767857142857,2071,105.57142857142857,111.47767857142857,2176.8,105.57142857142857,111.47767857142857,2281.2,104.57142857142857,127.47767857142857,2383.5,107.57142857142857,147.47767857142856,2485.8,129.57142857142856,179.47767857142856,2586.4,185.57142857142856,224.47767857142856,2687,204.57142857142856,241.47767857142856,2791.8,208.57142857142856,249.47767857142856,2893.1,208.57142857142856,249.47767857142856,2996.2,208.57142857142856,249.47767857142856,3101.5,208.57142857142856,249.47767857142856,3207.1,208.57142857142856,249.47767857142856,3307.4,208.57142857142856,249.47767857142856,3407.4,208.57142857142856,249.47767857142856,3511.4,208.57142857142856,249.47767857142856,3612.5,208.57142857142856,249.47767857142856,3716.1,208.57142857142856,249.47767857142856,3816.5,208.57142857142856,249.47767857142856,3920.9,208.57142857142856,249.47767857142856,4027.3,208.57142857142856,249.47767857142856,4131.4,208.57142857142856,249.47767857142856,4246.9,208.57142857142856,249.47767857142856,4351.8,208.57142857142856,249.47767857142856,4452.8,208.57142857142856,249.47767857142856,4559.2,208.57142857142856,249.47767857142856,4659.3,208.57142857142856,249.47767857142856,4761.7,208.57142857142856,249.47767857142856,4861.9,208.57142857142856,249.47767857142856,4973.3]","[1508.9,1509,1000,0,509,""smooth"",""up"",""up"",""good_move"",4324.1,2813.5,2388.8,1510.6,424.7,""smooth"",""left"",""left"",""good_move"",6674.9,2350.5,1842.6,4324.4,507.9,""oops"",""up"",""right"",""bad_move"",10005.9,3330.7,2833.1,6675.2,497.6,""smooth"",""left"",""left"",""good_move"",12819.9,2813.6,2285.7,10006.3,527.9,""smooth"",""up"",""up"",""good_move"",14946.7,2126.5,1716.2,12820.2,410.3,""oops"",""left"",""up"",""good_move"",17731.7,2784.8,2361.4,14946.9,423.4,""smooth"",""left"",""left"",""good_move""]","",""
"4266","","<div style=""width:500px;"">
  <p>What determined the result of this run?</p>
  </div>","75","html-slider-response","35","466993","0.0-5.0-1.5","268","1","2025-07-30 08:44:49","1f75c3e559b7213887762d5229550c2b","152.106.99.150","Mozilla/5.0 (Windows NT 10.0; Win64; x64) AppleWebKit/537.36 (KHTML, like Gecko) Chrome/138.0.0.0 Safari/537.36","WebKit","Chrome","138.0.0.0","Windows","10.0","https://app.prolific.com/","en-US,en;q=0.9","666408427db5e38fe0ea1736","6877631c9844ddd5501205fc","6889daa5eab3438c1666d302","3","1","666408427db5e38fe0ea1736","3","1","2025-07-30T08:52:43.612Z","","","","","","","","","","","AttribQ","","50","","","","","","","","","","","","","","","","","","","","","","","","","","","","",""
"6896","","<div style=""width:500px;"">
  <p>How much control did you have over the ball?</p>
  </div>","76","html-slider-response","36","473890","0.0-5.0-2.5","268","1","2025-07-30 08:44:49","1f75c3e559b7213887762d5229550c2b","152.106.99.150","Mozilla/5.0 (Windows NT 10.0; Win64; x64) AppleWebKit/537.36 (KHTML, like Gecko) Chrome/138.0.0.0 Safari/537.36","WebKit","Chrome","138.0.0.0","Windows","10.0","https://app.prolific.com/","en-US,en;q=0.9","666408427db5e38fe0ea1736","6877631c9844ddd5501205fc","6889daa5eab3438c1666d302","3","1","666408427db5e38fe0ea1736","3","1","2025-07-30T08:52:50.509Z","","","","","","","","","","","ControlQ","","50","","","","","","","","","","","","","","","","","","","","","","","","","","","","",""
"4254","","<div style=""width:500px;"">
  <p>How would you describe your current emotional state?</p>
  </div>","64","html-slider-response","37","478145","0.0-5.0-3.5","268","1","2025-07-30 08:44:49","1f75c3e559b7213887762d5229550c2b","152.106.99.150","Mozilla/5.0 (Windows NT 10.0; Win64; x64) AppleWebKit/537.36 (KHTML, like Gecko) Chrome/138.0.0.0 Safari/537.36","WebKit","Chrome","138.0.0.0","Windows","10.0","https://app.prolific.com/","en-US,en;q=0.9","666408427db5e38fe0ea1736","6877631c9844ddd5501205fc","6889daa5eab3438c1666d302","3","1","666408427db5e38fe0ea1736","3","1","2025-07-30T08:52:54.764Z","","","","","","","","","","","StressQ","","50","","","","","","","","","","","","","","","","","","","","","","","","","","","","",""
"3127","","<div style=""width:500px;"">
  <p>What best describes how you currently feel?</p>
  </div>","84","html-slider-response","38","481273","0.0-5.0-4.5","268","1","2025-07-30 08:44:49","1f75c3e559b7213887762d5229550c2b","152.106.99.150","Mozilla/5.0 (Windows NT 10.0; Win64; x64) AppleWebKit/537.36 (KHTML, like Gecko) Chrome/138.0.0.0 Safari/537.36","WebKit","Chrome","138.0.0.0","Windows","10.0","https://app.prolific.com/","en-US,en;q=0.9","666408427db5e38fe0ea1736","6877631c9844ddd5501205fc","6889daa5eab3438c1666d302","3","1","666408427db5e38fe0ea1736","3","1","2025-07-30T08:52:57.892Z","","","","","","","","","","","MotivationQ","","50","","","","","","","","","","","","","","","","","","","","","","","","","","","","",""
"","","","","ctl-task-cpt","39","520924","0.0-5.0-0.6","268","1","2025-07-30 08:44:49","1f75c3e559b7213887762d5229550c2b","152.106.99.150","Mozilla/5.0 (Windows NT 10.0; Win64; x64) AppleWebKit/537.36 (KHTML, like Gecko) Chrome/138.0.0.0 Safari/537.36","WebKit","Chrome","138.0.0.0","Windows","10.0","https://app.prolific.com/","en-US,en;q=0.9","666408427db5e38fe0ea1736","6877631c9844ddd5501205fc","6889daa5eab3438c1666d302","3","1","666408427db5e38fe0ea1736","3","1","2025-07-30T08:53:37.543Z","","","","","","","","","","","","","","win-only","2","g1:SE,g2:NW","0.4","7","0","491299","2065.3","7070.4","36622.1","1","4","4","6","2","-4","-4","0","2","0","1231.8","3000","-2090","[""left"",""up""]","{""num_key_presses"":7,""num_perfect"":2,""num_errors"":0,""num_randdir"":5,""num_randdir_good_moves"":2,""num_whilered"":0,""num_whileblue"":0,""num_blue"":2,""num_good_moves"":4}","[418.57142857142856,410.47767857142856,0.2,418.57142857142856,410.47767857142856,101.4,418.57142857142856,410.47767857142856,201.6,418.57142857142856,410.47767857142856,306.4,418.57142857142856,410.47767857142856,406.6,418.57142857142856,410.47767857142856,511.9,377.57142857142856,397.47767857142856,612.4,117.57142857142857,194.47767857142856,718,99.57142857142857,152.47767857142856,822.2,94.57142857142857,135.47767857142856,926.9,95.57142857142857,127.47767857142857,1028,98.57142857142857,120.47767857142857,1130.3,98.57142857142857,119.47767857142857,1232.7,98.57142857142857,119.47767857142857,1350.2,98.57142857142857,119.47767857142857,1450.7,98.57142857142857,119.47767857142857,1565.9,118.57142857142857,136.47767857142856,1681.4,147.57142857142856,161.47767857142856,1786,155.57142857142856,169.47767857142856,1886.6,172.57142857142856,181.47767857142856,1990.9,198.57142857142856,194.47767857142856,2097.7,216.57142857142856,200.47767857142856,2202,216.57142857142856,200.47767857142856,2308.5,216.57142857142856,200.47767857142856,2411.4,216.57142857142856,200.47767857142856,2527.4,216.57142857142856,200.47767857142856,2629.2,216.57142857142856,200.47767857142856,2730.9,215.57142857142856,195.47767857142856,2833,214.57142857142856,193.47767857142856,2937.3,214.57142857142856,193.47767857142856,3042.9,215.57142857142856,193.47767857142856,3146.1,215.57142857142856,193.47767857142856,3252.3,215.57142857142856,193.47767857142856,3352.5,215.57142857142856,193.47767857142856,3454.1,215.57142857142856,193.47767857142856,3558.3,215.57142857142856,193.47767857142856,3660.8,215.57142857142856,193.47767857142856,3767,215.57142857142856,193.47767857142856,3870.9,215.57142857142856,193.47767857142856,3971,215.57142857142856,193.47767857142856,4074,215.57142857142856,193.47767857142856,4176.1,215.57142857142856,193.47767857142856,4289.9,215.57142857142856,193.47767857142856,4390.9,215.57142857142856,193.47767857142856,4496,215.57142857142856,193.47767857142856,4601,215.57142857142856,193.47767857142856,4705.9,215.57142857142856,193.47767857142856,4809.1,215.57142857142856,193.47767857142856,4913.4]","[5199.9,5199.9,2767,2006.4,426.5,""oops"",""left"",""right"",""bad_move"",11484.2,6283.9,2583.1,8342.5,558.6,""oops"",""up"",""down"",""bad_move"",14576.9,3091.9,2562.2,11485,529.7,""smooth"",""left"",""left"",""good_move"",17424.9,2847.1,2343.5,14577.8,503.6,""oops"",""up"",""up"",""good_move"",20709.9,3284.7,2216.7,17425.2,1068.1,""smooth"",""left"",""left"",""good_move"",23809,3098.7,2593.1,20710.3,505.6,""oops"",""up"",""down"",""bad_move"",27076.4,3266.7,2596.4,23809.7,670.3,""oops"",""left"",""up"",""good_move""]","",""
"2543","","<div style=""width:500px;"">
  <p>What determined the result of this run?</p>
  </div>","82","html-slider-response","40","523469","0.0-5.0-1.6","268","1","2025-07-30 08:44:49","1f75c3e559b7213887762d5229550c2b","152.106.99.150","Mozilla/5.0 (Windows NT 10.0; Win64; x64) AppleWebKit/537.36 (KHTML, like Gecko) Chrome/138.0.0.0 Safari/537.36","WebKit","Chrome","138.0.0.0","Windows","10.0","https://app.prolific.com/","en-US,en;q=0.9","666408427db5e38fe0ea1736","6877631c9844ddd5501205fc","6889daa5eab3438c1666d302","3","1","666408427db5e38fe0ea1736","3","1","2025-07-30T08:53:40.089Z","","","","","","","","","","","AttribQ","","50","","","","","","","","","","","","","","","","","","","","","","","","","","","","",""
"2691","","<div style=""width:500px;"">
  <p>How much control did you have over the ball?</p>
  </div>","86","html-slider-response","41","526165","0.0-5.0-2.6","268","1","2025-07-30 08:44:49","1f75c3e559b7213887762d5229550c2b","152.106.99.150","Mozilla/5.0 (Windows NT 10.0; Win64; x64) AppleWebKit/537.36 (KHTML, like Gecko) Chrome/138.0.0.0 Safari/537.36","WebKit","Chrome","138.0.0.0","Windows","10.0","https://app.prolific.com/","en-US,en;q=0.9","666408427db5e38fe0ea1736","6877631c9844ddd5501205fc","6889daa5eab3438c1666d302","3","1","666408427db5e38fe0ea1736","3","1","2025-07-30T08:53:42.785Z","","","","","","","","","","","ControlQ","","50","","","","","","","","","","","","","","","","","","","","","","","","","","","","",""
"4233","","<div style=""width:500px;"">
  <p>How would you describe your current emotional state?</p>
  </div>","12","html-slider-response","42","530402","0.0-5.0-3.6","268","1","2025-07-30 08:44:49","1f75c3e559b7213887762d5229550c2b","152.106.99.150","Mozilla/5.0 (Windows NT 10.0; Win64; x64) AppleWebKit/537.36 (KHTML, like Gecko) Chrome/138.0.0.0 Safari/537.36","WebKit","Chrome","138.0.0.0","Windows","10.0","https://app.prolific.com/","en-US,en;q=0.9","666408427db5e38fe0ea1736","6877631c9844ddd5501205fc","6889daa5eab3438c1666d302","3","1","666408427db5e38fe0ea1736","3","1","2025-07-30T08:53:47.021Z","","","","","","","","","","","StressQ","","50","","","","","","","","","","","","","","","","","","","","","","","","","","","","",""
"2595","","<div style=""width:500px;"">
  <p>What best describes how you currently feel?</p>
  </div>","78","html-slider-response","43","533001","0.0-5.0-4.6","268","1","2025-07-30 08:44:49","1f75c3e559b7213887762d5229550c2b","152.106.99.150","Mozilla/5.0 (Windows NT 10.0; Win64; x64) AppleWebKit/537.36 (KHTML, like Gecko) Chrome/138.0.0.0 Safari/537.36","WebKit","Chrome","138.0.0.0","Windows","10.0","https://app.prolific.com/","en-US,en;q=0.9","666408427db5e38fe0ea1736","6877631c9844ddd5501205fc","6889daa5eab3438c1666d302","3","1","666408427db5e38fe0ea1736","3","1","2025-07-30T08:53:49.620Z","","","","","","","","","","","MotivationQ","","50","","","","","","","","","","","","","","","","","","","","","","","","","","","","",""
"","","","","ctl-task-cpt","44","584271","0.0-5.0-0.7","268","1","2025-07-30 08:44:49","1f75c3e559b7213887762d5229550c2b","152.106.99.150","Mozilla/5.0 (Windows NT 10.0; Win64; x64) AppleWebKit/537.36 (KHTML, like Gecko) Chrome/138.0.0.0 Safari/537.36","WebKit","Chrome","138.0.0.0","Windows","10.0","https://app.prolific.com/","en-US,en;q=0.9","666408427db5e38fe0ea1736","6877631c9844ddd5501205fc","6889daa5eab3438c1666d302","3","1","666408427db5e38fe0ea1736","3","1","2025-07-30T08:54:40.890Z","","","","","","","","","","","","","","win-only","1","g1:NE,g2:SW","0.3","8","0","543027.2","2199.2","7201.9","48246.5","1","4","8","6","2","-8","-9","0","0","0","2506.6","3000","-2135","[""down"",""left""]","{""num_key_presses"":8,""num_perfect"":3,""num_errors"":1,""num_randdir"":4,""num_randdir_good_moves"":3,""num_whilered"":0,""num_whileblue"":0,""num_blue"":4,""num_good_moves"":6}","[420.57142857142856,415.47767857142856,0.2,420.57142857142856,415.47767857142856,102.3,420.57142857142856,415.47767857142856,218,420.57142857142856,415.47767857142856,319.1,420.57142857142856,415.47767857142856,422.3,413.57142857142856,425.47767857142856,526.2,367.57142857142856,480.47767857142856,627.7,305.57142857142856,555.4776785714286,728,267.57142857142856,605.4776785714286,832.5,252.57142857142856,625.4776785714286,933.2,249.57142857142856,627.4776785714286,1033.7,249.57142857142856,627.4776785714286,1133.8,242.57142857142856,612.4776785714286,1237.5,232.57142857142856,586.4776785714286,1342.1,231.57142857142856,565.4776785714286,1443.6,244.57142857142856,536.4776785714286,1545.2,269.57142857142856,498.47767857142856,1648.6,262.57142857142856,497.47767857142856,1754.5,-7.428571428571431,721.4776785714286,1858.2,-81.42857142857143,826.4776785714286,1960.6,-80.42857142857143,845.4776785714286,2061.4,-20.42857142857143,838.4776785714286,2162.5,24.57142857142857,812.4776785714286,2266.2,30.57142857142857,801.4776785714286,2372.2,30.57142857142857,799.4776785714286,2476,30.57142857142857,799.4776785714286,2576.5,30.57142857142857,799.4776785714286,2678.4,29.57142857142857,799.4776785714286,2782.3,28.57142857142857,799.4776785714286,2889.6,33.57142857142857,786.4776785714286,2990,96.57142857142857,683.4776785714286,3091.4,183.57142857142856,598.4776785714286,3197.1,235.57142857142856,551.4776785714286,3305.9,238.57142857142856,547.4776785714286,3406.1,238.57142857142856,547.4776785714286,3508.1,232.57142857142856,550.4776785714286,3609.5,229.57142857142856,553.4776785714286,3712.5,220.57142857142856,558.4776785714286,3816.8,203.57142857142856,570.4776785714286,3924.1,191.57142857142856,579.4776785714286,4026.3,162.57142857142856,601.4776785714286,4129.1,115.57142857142857,681.4776785714286,4244.2,103.57142857142857,714.4776785714286,4347.2,102.57142857142857,717.4776785714286,4451.8,94.57142857142857,725.4776785714286,4556.7,85.57142857142857,733.4776785714286,4669.6,85.57142857142857,734.4776785714286,4772.5,85.57142857142857,734.4776785714286,4884.4,85.57142857142857,734.4776785714286,4985]","[5135.3,5135.3,2749.7,2002.9,382.7,""smooth"",""down"",""down"",""good_move"",8209.7,3074,2633.4,5135.7,440.6,""oops"",""down"",""up"",""bad_move"",11384.4,3174.3,2691.5,8210.2,482.7,""oops"",""down"",""down"",""good_move"",13580.3,2195.6,2625.6,11384.7,-430,""error"",""-"",""-"",""no_move"",21869.5,8289,2816.9,18339.6,713,""smooth"",""left"",""left"",""good_move"",28308.4,6437.6,2795.1,25016.8,496.5,""oops"",""left"",""down"",""good_move"",31777.3,3468.4,2192.9,28308.9,1275.5,""smooth"",""left"",""left"",""good_move"",38780.5,7002.7,2570.4,35788.8,421.3,""oops"",""down"",""down"",""good_move""]","",""
"13857","","<div style=""width:500px;"">
  <p>What determined the result of this run?</p>
  </div>","72","html-slider-response","45","598129","0.0-5.0-1.7","268","1","2025-07-30 08:44:49","1f75c3e559b7213887762d5229550c2b","152.106.99.150","Mozilla/5.0 (Windows NT 10.0; Win64; x64) AppleWebKit/537.36 (KHTML, like Gecko) Chrome/138.0.0.0 Safari/537.36","WebKit","Chrome","138.0.0.0","Windows","10.0","https://app.prolific.com/","en-US,en;q=0.9","666408427db5e38fe0ea1736","6877631c9844ddd5501205fc","6889daa5eab3438c1666d302","3","1","666408427db5e38fe0ea1736","3","1","2025-07-30T08:54:54.748Z","","","","","","","","","","","AttribQ","","50","","","","","","","","","","","","","","","","","","","","","","","","","","","","",""
"4179","","<div style=""width:500px;"">
  <p>How much control did you have over the ball?</p>
  </div>","39","html-slider-response","46","602310","0.0-5.0-2.7","268","1","2025-07-30 08:44:49","1f75c3e559b7213887762d5229550c2b","152.106.99.150","Mozilla/5.0 (Windows NT 10.0; Win64; x64) AppleWebKit/537.36 (KHTML, like Gecko) Chrome/138.0.0.0 Safari/537.36","WebKit","Chrome","138.0.0.0","Windows","10.0","https://app.prolific.com/","en-US,en;q=0.9","666408427db5e38fe0ea1736","6877631c9844ddd5501205fc","6889daa5eab3438c1666d302","3","1","666408427db5e38fe0ea1736","3","1","2025-07-30T08:54:58.930Z","","","","","","","","","","","ControlQ","","50","","","","","","","","","","","","","","","","","","","","","","","","","","","","",""
"6031","","<div style=""width:500px;"">
  <p>How would you describe your current emotional state?</p>
  </div>","59","html-slider-response","47","608346","0.0-5.0-3.7","268","1","2025-07-30 08:44:49","1f75c3e559b7213887762d5229550c2b","152.106.99.150","Mozilla/5.0 (Windows NT 10.0; Win64; x64) AppleWebKit/537.36 (KHTML, like Gecko) Chrome/138.0.0.0 Safari/537.36","WebKit","Chrome","138.0.0.0","Windows","10.0","https://app.prolific.com/","en-US,en;q=0.9","666408427db5e38fe0ea1736","6877631c9844ddd5501205fc","6889daa5eab3438c1666d302","3","1","666408427db5e38fe0ea1736","3","1","2025-07-30T08:55:04.966Z","","","","","","","","","","","StressQ","","50","","","","","","","","","","","","","","","","","","","","","","","","","","","","",""
"7261","","<div style=""width:500px;"">
  <p>What best describes how you currently feel?</p>
  </div>","64","html-slider-response","48","615612","0.0-5.0-4.7","268","1","2025-07-30 08:44:49","1f75c3e559b7213887762d5229550c2b","152.106.99.150","Mozilla/5.0 (Windows NT 10.0; Win64; x64) AppleWebKit/537.36 (KHTML, like Gecko) Chrome/138.0.0.0 Safari/537.36","WebKit","Chrome","138.0.0.0","Windows","10.0","https://app.prolific.com/","en-US,en;q=0.9","666408427db5e38fe0ea1736","6877631c9844ddd5501205fc","6889daa5eab3438c1666d302","3","1","666408427db5e38fe0ea1736","3","1","2025-07-30T08:55:12.231Z","","","","","","","","","","","MotivationQ","","50","","","","","","","","","","","","","","","","","","","","","","","","","","","","",""
"","","","","ctl-task-cpt","49","646604","0.0-5.0-0.8","268","1","2025-07-30 08:44:49","1f75c3e559b7213887762d5229550c2b","152.106.99.150","Mozilla/5.0 (Windows NT 10.0; Win64; x64) AppleWebKit/537.36 (KHTML, like Gecko) Chrome/138.0.0.0 Safari/537.36","WebKit","Chrome","138.0.0.0","Windows","10.0","https://app.prolific.com/","en-US,en;q=0.9","666408427db5e38fe0ea1736","6877631c9844ddd5501205fc","6889daa5eab3438c1666d302","3","1","666408427db5e38fe0ea1736","3","1","2025-07-30T08:55:43.223Z","","","","","","","","","","","","","","win-only","3","g1:SW,g2:NE","0.2","9","0","625637.9","1532.6","6537","27966.1","1","4","8","6","2","-8","-8","0","0","0","1877.1","3000","-2320","[""up"",""right""]","{""num_key_presses"":5,""num_perfect"":0,""num_errors"":0,""num_randdir"":5,""num_randdir_good_moves"":2,""num_whilered"":0,""num_whileblue"":0,""num_blue"":1,""num_good_moves"":2}","[413.57142857142856,416.47767857142856,0.5,413.57142857142856,419.47767857142856,109.3,413.57142857142856,419.47767857142856,209.7,413.57142857142856,419.47767857142856,310.8,413.57142857142856,419.47767857142856,419.1,413.57142857142856,419.47767857142856,531.3,413.57142857142856,419.47767857142856,632.6,412.57142857142856,419.47767857142856,736.2,409.57142857142856,421.47767857142856,837.8,407.57142857142856,431.47767857142856,942,456.57142857142856,383.47767857142856,1046.4,499.57142857142856,298.47767857142856,1147.8,545.5714285714286,244.47767857142856,1251.5,582.5714285714286,195.47767857142856,1356.7,764.5714285714286,21.47767857142857,1460,783.5714285714286,1.4776785714285694,1563.7,784.5714285714286,13.47767857142857,1670.2,778.5714285714286,44.47767857142857,1776.1,777.5714285714286,46.47767857142857,1881.6,777.5714285714286,46.47767857142857,1985.2,776.5714285714286,49.47767857142857,2096.7,776.5714285714286,49.47767857142857,2198.6,774.5714285714286,52.47767857142857,2300.9,763.5714285714286,66.47767857142857,2410.5,737.5714285714286,93.47767857142857,2510.8,692.5714285714286,141.47767857142856,2613.6,669.5714285714286,186.47767857142856,2727,654.5714285714286,236.47767857142856,2828.2,646.5714285714286,313.47767857142856,2934.5,631.5714285714286,350.47767857142856,3040.9,625.5714285714286,357.47767857142856,3155.3,618.5714285714286,364.47767857142856,3259.3,610.5714285714286,377.47767857142856,3360.4,598.5714285714286,397.47767857142856,3469.7,565.5714285714286,421.47767857142856,3572.1,549.5714285714286,435.47767857142856,3673.3,531.5714285714286,451.47767857142856,3775.6,507.57142857142856,467.47767857142856,3879,487.57142857142856,480.47767857142856,3989.4,479.57142857142856,487.47767857142856,4094.3,476.57142857142856,489.47767857142856,4196.3,457.57142857142856,494.47767857142856,4310.9,444.57142857142856,500.47767857142856,4412.6,441.57142857142856,500.47767857142856,4527.1,437.57142857142856,491.47767857142856,4631.9,438.57142857142856,465.47767857142856,4742.1,441.57142857142856,455.47767857142856,4842.8,441.57142857142856,452.47767857142856,4944.5]","[1666.5,1666.5,1000,0,666.5,""oops"",""right"",""right"",""good_move"",5781.1,4114.2,2931.4,1667.1,1182.7,""oops"",""up"",""down"",""bad_move"",9092.1,3309.1,2736.2,5783.1,572.8,""oops"",""right"",""up"",""good_move"",15157,6064.6,2435.5,12271.1,450.4,""oops"",""right"",""down"",""bad_move"",18485.4,3326.7,2286.9,15158.7,1039.8,""oops"",""up"",""left"",""bad_move""]","",""
"4652","","<div style=""width:500px;"">
  <p>What determined the result of this run?</p>
  </div>","63","html-slider-response","50","651257","0.0-5.0-1.8","268","1","2025-07-30 08:44:49","1f75c3e559b7213887762d5229550c2b","152.106.99.150","Mozilla/5.0 (Windows NT 10.0; Win64; x64) AppleWebKit/537.36 (KHTML, like Gecko) Chrome/138.0.0.0 Safari/537.36","WebKit","Chrome","138.0.0.0","Windows","10.0","https://app.prolific.com/","en-US,en;q=0.9","666408427db5e38fe0ea1736","6877631c9844ddd5501205fc","6889daa5eab3438c1666d302","3","1","666408427db5e38fe0ea1736","3","1","2025-07-30T08:55:47.876Z","","","","","","","","","","","AttribQ","","50","","","","","","","","","","","","","","","","","","","","","","","","","","","","",""
"5327","","<div style=""width:500px;"">
  <p>How much control did you have over the ball?</p>
  </div>","16","html-slider-response","51","656586","0.0-5.0-2.8","268","1","2025-07-30 08:44:49","1f75c3e559b7213887762d5229550c2b","152.106.99.150","Mozilla/5.0 (Windows NT 10.0; Win64; x64) AppleWebKit/537.36 (KHTML, like Gecko) Chrome/138.0.0.0 Safari/537.36","WebKit","Chrome","138.0.0.0","Windows","10.0","https://app.prolific.com/","en-US,en;q=0.9","666408427db5e38fe0ea1736","6877631c9844ddd5501205fc","6889daa5eab3438c1666d302","3","1","666408427db5e38fe0ea1736","3","1","2025-07-30T08:55:53.206Z","","","","","","","","","","","ControlQ","","50","","","","","","","","","","","","","","","","","","","","","","","","","","","","",""
"5871","","<div style=""width:500px;"">
  <p>How would you describe your current emotional state?</p>
  </div>","61","html-slider-response","52","662460","0.0-5.0-3.8","268","1","2025-07-30 08:44:49","1f75c3e559b7213887762d5229550c2b","152.106.99.150","Mozilla/5.0 (Windows NT 10.0; Win64; x64) AppleWebKit/537.36 (KHTML, like Gecko) Chrome/138.0.0.0 Safari/537.36","WebKit","Chrome","138.0.0.0","Windows","10.0","https://app.prolific.com/","en-US,en;q=0.9","666408427db5e38fe0ea1736","6877631c9844ddd5501205fc","6889daa5eab3438c1666d302","3","1","666408427db5e38fe0ea1736","3","1","2025-07-30T08:55:59.079Z","","","","","","","","","","","StressQ","","50","","","","","","","","","","","","","","","","","","","","","","","","","","","","",""
"4181","","<div style=""width:500px;"">
  <p>What best describes how you currently feel?</p>
  </div>","25","html-slider-response","53","666643","0.0-5.0-4.8","268","1","2025-07-30 08:44:49","1f75c3e559b7213887762d5229550c2b","152.106.99.150","Mozilla/5.0 (Windows NT 10.0; Win64; x64) AppleWebKit/537.36 (KHTML, like Gecko) Chrome/138.0.0.0 Safari/537.36","WebKit","Chrome","138.0.0.0","Windows","10.0","https://app.prolific.com/","en-US,en;q=0.9","666408427db5e38fe0ea1736","6877631c9844ddd5501205fc","6889daa5eab3438c1666d302","3","1","666408427db5e38fe0ea1736","3","1","2025-07-30T08:56:03.262Z","","","","","","","","","","","MotivationQ","","50","","","","","","","","","","","","","","","","","","","","","","","","","","","","",""
"","","","","ctl-task-cpt","54","713611","0.0-5.0-0.9","268","1","2025-07-30 08:44:49","1f75c3e559b7213887762d5229550c2b","152.106.99.150","Mozilla/5.0 (Windows NT 10.0; Win64; x64) AppleWebKit/537.36 (KHTML, like Gecko) Chrome/138.0.0.0 Safari/537.36","WebKit","Chrome","138.0.0.0","Windows","10.0","https://app.prolific.com/","en-US,en;q=0.9","666408427db5e38fe0ea1736","6877631c9844ddd5501205fc","6889daa5eab3438c1666d302","3","1","666408427db5e38fe0ea1736","3","1","2025-07-30T08:56:50.231Z","","","","","","","","","","","","","","win-only","2","g1:SE,g2:NW","0.4","10","0","676668.9","1238.8","6242.1","43963.9","1","4","4","6","2","-4","-4","0","0","0","4320.7","3000","-2105","[""left"",""up""]","{""num_key_presses"":8,""num_perfect"":3,""num_errors"":0,""num_randdir"":5,""num_randdir_good_moves"":2,""num_whilered"":0,""num_whileblue"":0,""num_blue"":3,""num_good_moves"":4}","[420.57142857142856,422.47767857142856,0.2,420.57142857142856,422.47767857142856,102.1,420.57142857142856,422.47767857142856,204.5,414.57142857142856,432.47767857142856,306.8,412.57142857142856,433.47767857142856,413.1,412.57142857142856,433.47767857142856,514.7,412.57142857142856,433.47767857142856,628.5,412.57142857142856,433.47767857142856,732.2,412.57142857142856,433.47767857142856,840,412.57142857142856,433.47767857142856,940.9,412.57142857142856,433.47767857142856,1043.9,585.5714285714286,375.47767857142856,1144.8,711.5714285714286,323.47767857142856,1246.1,581.5714285714286,265.47767857142856,1360.4,436.57142857142856,234.47767857142856,1466,416.57142857142856,254.47767857142856,1573.3,629.5714285714286,357.47767857142856,1677.2,811.5714285714286,540.4776785714286,1787.6,808.5714285714286,714.4776785714286,1894.8,832.5714285714286,819.4776785714286,1998.4,836.5714285714286,810.4776785714286,2102.6,794.5714285714286,775.4776785714286,2207.8,565.5714285714286,613.4776785714286,2313.2,382.57142857142856,489.47767857142856,2416.7,320.57142857142856,428.47767857142856,2519.4,323.57142857142856,421.47767857142856,2619.6,250.57142857142856,337.47767857142856,2721.8,234.57142857142856,319.47767857142856,2825,236.57142857142856,308.47767857142856,2926.7,233.57142857142856,300.47767857142856,3027.3,228.57142857142856,292.47767857142856,3141.7,228.57142857142856,292.47767857142856,3244.7,228.57142857142856,292.47767857142856,3351.7,228.57142857142856,292.47767857142856,3452.2,228.57142857142856,292.47767857142856,3557,63.57142857142857,-46.52232142857143,3658.2,36.57142857142857,-89.52232142857143,3762.9,36.57142857142857,-89.52232142857143,3864.8,-59.42857142857143,-44.52232142857143,3972.7,27.57142857142857,47.47767857142857,4074.5,38.57142857142857,59.47767857142857,4186.2,39.57142857142857,59.47767857142857,4286.5,39.57142857142857,59.47767857142857,4389.6,40.57142857142857,59.47767857142857,4493,41.57142857142857,56.47767857142857,4594.2,43.57142857142857,51.47767857142857,4695.3,34.57142857142857,51.47767857142857,4798.5,34.57142857142857,51.47767857142857,4900.5]","[1844.4,1844.4,1000,0,844.4,""smooth"",""up"",""up"",""good_move"",4868.2,3022.4,2532.1,1845.8,490.3,""oops"",""up"",""up"",""good_move"",11862.5,6993.9,2790.5,8710.5,361.5,""smooth"",""up"",""up"",""good_move"",18598.2,6735,2381.4,15805.3,411.5,""oops"",""left"",""right"",""bad_move"",21524.9,2926.3,2269.7,18598.6,656.6,""smooth"",""right"",""right"",""bad_move"",27973.7,6447.8,2689.1,24797.8,486.8,""oops"",""left"",""down"",""bad_move"",31475.6,3501.1,3000.5,27974.5,500.6,""oops"",""down"",""left"",""good_move"",34980.7,3504.1,3086.1,31476.7,418,""oops"",""down"",""right"",""bad_move""]","",""
"4684","","<div style=""width:500px;"">
  <p>What determined the result of this run?</p>
  </div>","63","html-slider-response","55","718298","0.0-5.0-1.9","268","1","2025-07-30 08:44:49","1f75c3e559b7213887762d5229550c2b","152.106.99.150","Mozilla/5.0 (Windows NT 10.0; Win64; x64) AppleWebKit/537.36 (KHTML, like Gecko) Chrome/138.0.0.0 Safari/537.36","WebKit","Chrome","138.0.0.0","Windows","10.0","https://app.prolific.com/","en-US,en;q=0.9","666408427db5e38fe0ea1736","6877631c9844ddd5501205fc","6889daa5eab3438c1666d302","3","1","666408427db5e38fe0ea1736","3","1","2025-07-30T08:56:54.917Z","","","","","","","","","","","AttribQ","","50","","","","","","","","","","","","","","","","","","","","","","","","","","","","",""
"4499","","<div style=""width:500px;"">
  <p>How much control did you have over the ball?</p>
  </div>","28","html-slider-response","56","722801","0.0-5.0-2.9","268","1","2025-07-30 08:44:49","1f75c3e559b7213887762d5229550c2b","152.106.99.150","Mozilla/5.0 (Windows NT 10.0; Win64; x64) AppleWebKit/537.36 (KHTML, like Gecko) Chrome/138.0.0.0 Safari/537.36","WebKit","Chrome","138.0.0.0","Windows","10.0","https://app.prolific.com/","en-US,en;q=0.9","666408427db5e38fe0ea1736","6877631c9844ddd5501205fc","6889daa5eab3438c1666d302","3","1","666408427db5e38fe0ea1736","3","1","2025-07-30T08:56:59.420Z","","","","","","","","","","","ControlQ","","50","","","","","","","","","","","","","","","","","","","","","","","","","","","","",""
"6445","","<div style=""width:500px;"">
  <p>How would you describe your current emotional state?</p>
  </div>","80","html-slider-response","57","729249","0.0-5.0-3.9","268","1","2025-07-30 08:44:49","1f75c3e559b7213887762d5229550c2b","152.106.99.150","Mozilla/5.0 (Windows NT 10.0; Win64; x64) AppleWebKit/537.36 (KHTML, like Gecko) Chrome/138.0.0.0 Safari/537.36","WebKit","Chrome","138.0.0.0","Windows","10.0","https://app.prolific.com/","en-US,en;q=0.9","666408427db5e38fe0ea1736","6877631c9844ddd5501205fc","6889daa5eab3438c1666d302","3","1","666408427db5e38fe0ea1736","3","1","2025-07-30T08:57:05.868Z","","","","","","","","","","","StressQ","","50","","","","","","","","","","","","","","","","","","","","","","","","","","","","",""
"4943","","<div style=""width:500px;"">
  <p>What best describes how you currently feel?</p>
  </div>","58","html-slider-response","58","734193","0.0-5.0-4.9","268","1","2025-07-30 08:44:49","1f75c3e559b7213887762d5229550c2b","152.106.99.150","Mozilla/5.0 (Windows NT 10.0; Win64; x64) AppleWebKit/537.36 (KHTML, like Gecko) Chrome/138.0.0.0 Safari/537.36","WebKit","Chrome","138.0.0.0","Windows","10.0","https://app.prolific.com/","en-US,en;q=0.9","666408427db5e38fe0ea1736","6877631c9844ddd5501205fc","6889daa5eab3438c1666d302","3","1","666408427db5e38fe0ea1736","3","1","2025-07-30T08:57:10.812Z","","","","","","","","","","","MotivationQ","","50","","","","","","","","","","","","","","","","","","","","","","","","","","","","",""
"","","","","ctl-task-cpt","59","793017","0.0-5.0-0.10","268","1","2025-07-30 08:44:49","1f75c3e559b7213887762d5229550c2b","152.106.99.150","Mozilla/5.0 (Windows NT 10.0; Win64; x64) AppleWebKit/537.36 (KHTML, like Gecko) Chrome/138.0.0.0 Safari/537.36","WebKit","Chrome","138.0.0.0","Windows","10.0","https://app.prolific.com/","en-US,en;q=0.9","666408427db5e38fe0ea1736","6877631c9844ddd5501205fc","6889daa5eab3438c1666d302","3","1","666408427db5e38fe0ea1736","3","1","2025-07-30T08:58:09.636Z","","","","","","","","","","","","","","win-only","2","g1:SE,g2:NW","0.5","11","0","744218.5","1143.7","6154.3","55799.2","1","4","8","6","2","-8","-8","0","0","0","1571.1","3000","-1995","[""left"",""up""]","{""num_key_presses"":8,""num_perfect"":3,""num_errors"":0,""num_randdir"":5,""num_randdir_good_moves"":2,""num_whilered"":0,""num_whileblue"":0,""num_blue"":7,""num_good_moves"":5}","[420.57142857142856,419.47767857142856,0.3,420.57142857142856,419.47767857142856,108.3,420.57142857142856,419.47767857142856,211.2,426.57142857142856,409.47767857142856,313.1,426.57142857142856,333.47767857142856,415.8,420.57142857142856,284.47767857142856,521.2,333.57142857142856,273.47767857142856,624.8,-491.42857142857144,82.47767857142857,726.6,-458.42857142857144,79.47767857142857,826.8,-344.42857142857144,119.47767857142857,928.3,-166.42857142857144,154.47767857142856,1031.9,-93.42857142857143,113.47767857142857,1134.1,7.571428571428569,87.47767857142857,1241.2,74.57142857142857,87.47767857142857,1349.2,75.57142857142857,89.47767857142857,1455.8,74.57142857142857,90.47767857142857,1558.3,74.57142857142857,93.47767857142857,1676.8,74.57142857142857,93.47767857142857,1778.5,74.57142857142857,93.47767857142857,1890.7,73.57142857142857,102.47767857142857,2000.4,80.57142857142857,131.47767857142856,2107.4,87.57142857142857,205.47767857142856,2211.6,91.57142857142857,262.47767857142856,2316.2,69.57142857142857,307.47767857142856,2435.1,64.57142857142857,308.47767857142856,2541.1,35.57142857142857,290.47767857142856,2642.7,31.57142857142857,271.47767857142856,2757.9,31.57142857142857,271.47767857142856,2861,31.57142857142857,271.47767857142856,2973.6,31.57142857142857,271.47767857142856,3079.8,31.57142857142857,271.47767857142856,3182.4,31.57142857142857,271.47767857142856,3287.1,31.57142857142857,271.47767857142856,3395.7,31.57142857142857,271.47767857142856,3503.8,31.57142857142857,271.47767857142856,3609.4,31.57142857142857,271.47767857142856,3711.1,31.57142857142857,271.47767857142856,3811.8,31.57142857142857,271.47767857142856,3912.2,31.57142857142857,271.47767857142856,4012.6,31.57142857142857,271.47767857142856,4129.5,31.57142857142857,271.47767857142856,4237.6,31.57142857142857,271.47767857142856,4346.1,31.57142857142857,271.47767857142856,4450.4,31.57142857142857,271.47767857142856,4552.6,31.57142857142857,271.47767857142856,4661.7,31.57142857142857,271.47767857142856,4766,31.57142857142857,271.47767857142856,4867,31.57142857142857,271.47767857142856,4968.2]","[1669.7,1669.7,1000,0,669.7,""oops"",""up"",""up"",""good_move"",4173.1,2503,1987.9,1670.1,515.1,""smooth"",""left"",""left"",""good_move"",10878.4,6704.3,2840.2,7664.5,373.7,""smooth"",""left"",""left"",""good_move"",17677.5,6798.8,2369.8,14860.4,447.3,""oops"",""left"",""right"",""bad_move"",24575,6896.9,2712.6,21442.3,420.1,""oops"",""up"",""right"",""bad_move"",27180.8,2604.9,1716.8,24575.9,888.1,""oops"",""down"",""down"",""bad_move"",44366.3,17185,2107.6,41761.7,497,""oops"",""up"",""up"",""good_move"",47061.8,2694.9,2131.3,44366.9,563.6,""smooth"",""up"",""up"",""good_move""]","",""
"9426","","<div style=""width:500px;"">
  <p>What determined the result of this run?</p>
  </div>","66","html-slider-response","60","802445","0.0-5.0-1.10","268","1","2025-07-30 08:44:49","1f75c3e559b7213887762d5229550c2b","152.106.99.150","Mozilla/5.0 (Windows NT 10.0; Win64; x64) AppleWebKit/537.36 (KHTML, like Gecko) Chrome/138.0.0.0 Safari/537.36","WebKit","Chrome","138.0.0.0","Windows","10.0","https://app.prolific.com/","en-US,en;q=0.9","666408427db5e38fe0ea1736","6877631c9844ddd5501205fc","6889daa5eab3438c1666d302","3","1","666408427db5e38fe0ea1736","3","1","2025-07-30T08:58:19.064Z","","","","","","","","","","","AttribQ","","50","","","","","","","","","","","","","","","","","","","","","","","","","","","","",""
"4132","","<div style=""width:500px;"">
  <p>How much control did you have over the ball?</p>
  </div>","7","html-slider-response","61","806581","0.0-5.0-2.10","268","1","2025-07-30 08:44:49","1f75c3e559b7213887762d5229550c2b","152.106.99.150","Mozilla/5.0 (Windows NT 10.0; Win64; x64) AppleWebKit/537.36 (KHTML, like Gecko) Chrome/138.0.0.0 Safari/537.36","WebKit","Chrome","138.0.0.0","Windows","10.0","https://app.prolific.com/","en-US,en;q=0.9","666408427db5e38fe0ea1736","6877631c9844ddd5501205fc","6889daa5eab3438c1666d302","3","1","666408427db5e38fe0ea1736","3","1","2025-07-30T08:58:23.200Z","","","","","","","","","","","ControlQ","","50","","","","","","","","","","","","","","","","","","","","","","","","","","","","",""
"7211","","<div style=""width:500px;"">
  <p>How would you describe your current emotional state?</p>
  </div>","89","html-slider-response","62","813794","0.0-5.0-3.10","268","1","2025-07-30 08:44:49","1f75c3e559b7213887762d5229550c2b","152.106.99.150","Mozilla/5.0 (Windows NT 10.0; Win64; x64) AppleWebKit/537.36 (KHTML, like Gecko) Chrome/138.0.0.0 Safari/537.36","WebKit","Chrome","138.0.0.0","Windows","10.0","https://app.prolific.com/","en-US,en;q=0.9","666408427db5e38fe0ea1736","6877631c9844ddd5501205fc","6889daa5eab3438c1666d302","3","1","666408427db5e38fe0ea1736","3","1","2025-07-30T08:58:30.413Z","","","","","","","","","","","StressQ","","50","","","","","","","","","","","","","","","","","","","","","","","","","","","","",""
"2226","","<div style=""width:500px;"">
  <p>What best describes how you currently feel?</p>
  </div>","26","html-slider-response","63","816022","0.0-5.0-4.10","268","1","2025-07-30 08:44:49","1f75c3e559b7213887762d5229550c2b","152.106.99.150","Mozilla/5.0 (Windows NT 10.0; Win64; x64) AppleWebKit/537.36 (KHTML, like Gecko) Chrome/138.0.0.0 Safari/537.36","WebKit","Chrome","138.0.0.0","Windows","10.0","https://app.prolific.com/","en-US,en;q=0.9","666408427db5e38fe0ea1736","6877631c9844ddd5501205fc","6889daa5eab3438c1666d302","3","1","666408427db5e38fe0ea1736","3","1","2025-07-30T08:58:32.642Z","","","","","","","","","","","MotivationQ","","50","","","","","","","","","","","","","","","","","","","","","","","","","","","","",""
"","","","","ctl-task-cpt","64","860548","0.0-5.0-0.11","268","1","2025-07-30 08:44:49","1f75c3e559b7213887762d5229550c2b","152.106.99.150","Mozilla/5.0 (Windows NT 10.0; Win64; x64) AppleWebKit/537.36 (KHTML, like Gecko) Chrome/138.0.0.0 Safari/537.36","WebKit","Chrome","138.0.0.0","Windows","10.0","https://app.prolific.com/","en-US,en;q=0.9","666408427db5e38fe0ea1736","6877631c9844ddd5501205fc","6889daa5eab3438c1666d302","3","1","666408427db5e38fe0ea1736","3","1","2025-07-30T08:59:17.167Z","","","","","","","","","","","","","","win-only","1","g1:NE,g2:SW","0.6","12","0","826050.7","1250.8","6268.5","41501.4","1","4","4","6","2","-4","-5","0","0","0","2637.8","3000","-1970","[""down"",""left""]","{""num_key_presses"":9,""num_perfect"":6,""num_errors"":1,""num_randdir"":2,""num_randdir_good_moves"":1,""num_whilered"":0,""num_whileblue"":1,""num_blue"":3,""num_good_moves"":6}","[416.57142857142856,418.47767857142856,0.3,417.57142857142856,418.47767857142856,107.6,417.57142857142856,418.47767857142856,210.3,417.57142857142856,418.47767857142856,321.2,416.57142857142856,418.47767857142856,425.1,414.57142857142856,418.47767857142856,530,387.57142857142856,407.47767857142856,639,390.57142857142856,399.47767857142856,740.6,363.57142857142856,471.47767857142856,850,343.57142857142856,528.4776785714286,952.9,329.57142857142856,532.4776785714286,1057.5,414.57142857142856,417.47767857142856,1158.3,445.57142857142856,388.47767857142856,1260.5,463.57142857142856,366.47767857142856,1364.2,464.57142857142856,364.47767857142856,1468.5,581.5714285714286,196.47767857142856,1580.1,612.5714285714286,143.47767857142856,1689.3,634.5714285714286,117.47767857142857,1791.4,649.5714285714286,104.47767857142857,1896.7,639.5714285714286,162.47767857142856,2008.3,331.57142857142856,537.4776785714286,2113.6,132.57142857142856,733.4776785714286,2214.7,72.57142857142857,767.4776785714286,2326,72.57142857142857,767.4776785714286,2431.8,75.57142857142857,767.4776785714286,2544.6,76.57142857142857,767.4776785714286,2656.1,76.57142857142857,767.4776785714286,2757.1,78.57142857142857,764.4776785714286,2864.2,78.57142857142857,763.4776785714286,2965.5,60.57142857142857,753.4776785714286,3065.6,-8.42857142857143,701.4776785714286,3180.4,-19.42857142857143,591.4776785714286,3290,-28.42857142857143,552.4776785714286,3400.9,-31.42857142857143,544.4776785714286,3506.8,-36.42857142857143,540.4776785714286,3607.9,-37.42857142857143,539.4776785714286,3714.3,-37.42857142857143,539.4776785714286,3825.9,-37.42857142857143,539.4776785714286,3932.9,-37.42857142857143,539.4776785714286,4033.7,-37.42857142857143,539.4776785714286,4143.2,-37.42857142857143,539.4776785714286,4251.8,-37.42857142857143,539.4776785714286,4366.1,-37.42857142857143,539.4776785714286,4468.7,-37.42857142857143,539.4776785714286,4576.8,-37.42857142857143,539.4776785714286,4685.8,-37.42857142857143,539.4776785714286,4787.1,-37.42857142857143,539.4776785714286,4887.7,-37.42857142857143,539.4776785714286,4988]","[1521.6,1521.6,1000,0,521.6,""smooth"",""down"",""down"",""good_move"",4445.1,2923.2,2391.6,1522,531.6,""smooth"",""down"",""down"",""good_move"",7061.8,2616.4,2191.4,4445.4,425,""smooth"",""down"",""down"",""good_move"",13729.6,6667.1,2355,10896.6,478,""oops"",""left"",""left"",""good_move"",15891.7,2161.6,1706.1,13730.1,455.5,""oops"",""left"",""right"",""bad_move"",23012.2,7119.3,2688.7,19357.2,966.3,""smooth"",""left"",""left"",""good_move"",26180.5,3167.4,2702.3,23013.1,465.1,""smooth"",""down"",""right"",""bad_move"",29110.7,2928.3,2482.6,26182.4,445.7,""while_blue"",""up"",""right"",""bad_move"",32756.4,3645.3,3056.2,29111.1,589.1,""smooth"",""left"",""left"",""good_move""]","",""
"4007","","<div style=""width:500px;"">
  <p>What determined the result of this run?</p>
  </div>","16","html-slider-response","65","864557","0.0-5.0-1.11","268","1","2025-07-30 08:44:49","1f75c3e559b7213887762d5229550c2b","152.106.99.150","Mozilla/5.0 (Windows NT 10.0; Win64; x64) AppleWebKit/537.36 (KHTML, like Gecko) Chrome/138.0.0.0 Safari/537.36","WebKit","Chrome","138.0.0.0","Windows","10.0","https://app.prolific.com/","en-US,en;q=0.9","666408427db5e38fe0ea1736","6877631c9844ddd5501205fc","6889daa5eab3438c1666d302","3","1","666408427db5e38fe0ea1736","3","1","2025-07-30T08:59:21.176Z","","","","","","","","","","","AttribQ","","50","","","","","","","","","","","","","","","","","","","","","","","","","","","","",""
"5091","","<div style=""width:500px;"">
  <p>How much control did you have over the ball?</p>
  </div>","24","html-slider-response","66","869650","0.0-5.0-2.11","268","1","2025-07-30 08:44:49","1f75c3e559b7213887762d5229550c2b","152.106.99.150","Mozilla/5.0 (Windows NT 10.0; Win64; x64) AppleWebKit/537.36 (KHTML, like Gecko) Chrome/138.0.0.0 Safari/537.36","WebKit","Chrome","138.0.0.0","Windows","10.0","https://app.prolific.com/","en-US,en;q=0.9","666408427db5e38fe0ea1736","6877631c9844ddd5501205fc","6889daa5eab3438c1666d302","3","1","666408427db5e38fe0ea1736","3","1","2025-07-30T08:59:26.269Z","","","","","","","","","","","ControlQ","","50","","","","","","","","","","","","","","","","","","","","","","","","","","","","",""
"6870","","<div style=""width:500px;"">
  <p>How would you describe your current emotional state?</p>
  </div>","96","html-slider-response","67","876521","0.0-5.0-3.11","268","1","2025-07-30 08:44:49","1f75c3e559b7213887762d5229550c2b","152.106.99.150","Mozilla/5.0 (Windows NT 10.0; Win64; x64) AppleWebKit/537.36 (KHTML, like Gecko) Chrome/138.0.0.0 Safari/537.36","WebKit","Chrome","138.0.0.0","Windows","10.0","https://app.prolific.com/","en-US,en;q=0.9","666408427db5e38fe0ea1736","6877631c9844ddd5501205fc","6889daa5eab3438c1666d302","3","1","666408427db5e38fe0ea1736","3","1","2025-07-30T08:59:33.140Z","","","","","","","","","","","StressQ","","50","","","","","","","","","","","","","","","","","","","","","","","","","","","","",""
"3103","","<div style=""width:500px;"">
  <p>What best describes how you currently feel?</p>
  </div>","89","html-slider-response","68","879624","0.0-5.0-4.11","268","1","2025-07-30 08:44:49","1f75c3e559b7213887762d5229550c2b","152.106.99.150","Mozilla/5.0 (Windows NT 10.0; Win64; x64) AppleWebKit/537.36 (KHTML, like Gecko) Chrome/138.0.0.0 Safari/537.36","WebKit","Chrome","138.0.0.0","Windows","10.0","https://app.prolific.com/","en-US,en;q=0.9","666408427db5e38fe0ea1736","6877631c9844ddd5501205fc","6889daa5eab3438c1666d302","3","1","666408427db5e38fe0ea1736","3","1","2025-07-30T08:59:36.244Z","","","","","","","","","","","MotivationQ","","50","","","","","","","","","","","","","","","","","","","","","","","","","","","","",""
"","","","","ctl-task-cpt","69","915538","0.0-5.0-0.12","268","1","2025-07-30 08:44:49","1f75c3e559b7213887762d5229550c2b","152.106.99.150","Mozilla/5.0 (Windows NT 10.0; Win64; x64) AppleWebKit/537.36 (KHTML, like Gecko) Chrome/138.0.0.0 Safari/537.36","WebKit","Chrome","138.0.0.0","Windows","10.0","https://app.prolific.com/","en-US,en;q=0.9","666408427db5e38fe0ea1736","6877631c9844ddd5501205fc","6889daa5eab3438c1666d302","3","1","666408427db5e38fe0ea1736","3","1","2025-07-30T09:00:12.157Z","","","","","","","","","","","","","","win-only","1","g1:NE,g2:SW","0.7","13","0","889652.2","1296.4","6309.9","32885.5","1","4","4","6","2","4","4","4","0","0.030303030303030304","1431.8","3000","230","[""down"",""left""]","{""num_key_presses"":8,""num_perfect"":6,""num_errors"":0,""num_randdir"":2,""num_randdir_good_moves"":1,""num_whilered"":0,""num_whileblue"":0,""num_blue"":1,""num_good_moves"":7}","[419.57142857142856,415.47767857142856,0.9,419.57142857142856,415.47767857142856,111.1,420.57142857142856,415.47767857142856,228.7,420.57142857142856,415.47767857142856,329.7,420.57142857142856,415.47767857142856,441.5,420.57142857142856,415.47767857142856,548.2,415.57142857142856,430.47767857142856,657.2,390.57142857142856,514.4776785714286,764.9,261.57142857142856,644.4776785714286,873.2,145.57142857142856,701.4776785714286,974.2,97.57142857142857,726.4776785714286,1079.3,94.57142857142857,736.4776785714286,1182.1,94.57142857142857,738.4776785714286,1282.6,94.57142857142857,738.4776785714286,1386.8,94.57142857142857,738.4776785714286,1489.2,94.57142857142857,738.4776785714286,1595.3,94.57142857142857,735.4776785714286,1698,86.57142857142857,697.4776785714286,1805.7,60.57142857142857,545.4776785714286,1924,52.57142857142857,465.47767857142856,2039.9,47.57142857142857,354.47767857142856,2144.6,45.57142857142857,255.47767857142856,2248.6,43.57142857142857,247.47767857142856,2349.9,44.57142857142857,247.47767857142856,2451.5,44.57142857142857,247.47767857142856,2556.1,44.57142857142857,247.47767857142856,2659.9,44.57142857142857,247.47767857142856,2765.1,44.57142857142857,247.47767857142856,2868,44.57142857142857,247.47767857142856,2969.4,44.57142857142857,247.47767857142856,3073.4,44.57142857142857,247.47767857142856,3174.7,44.57142857142857,247.47767857142856,3274.9,44.57142857142857,247.47767857142856,3377.6,44.57142857142857,247.47767857142856,3479.7,44.57142857142857,247.47767857142856,3607.5,44.57142857142857,247.47767857142856,3712.1,44.57142857142857,247.47767857142856,3832.2,44.57142857142857,247.47767857142856,3933.8,44.57142857142857,247.47767857142856,4035.4,44.57142857142857,247.47767857142856,4139.4,44.57142857142857,247.47767857142856,4250,44.57142857142857,247.47767857142856,4352.6,44.57142857142857,247.47767857142856,4459.1,44.57142857142857,247.47767857142856,4561.4,44.57142857142857,247.47767857142856,4667.4,44.57142857142857,247.47767857142856,4769,44.57142857142857,247.47767857142856,4882.6,44.57142857142857,247.47767857142856,4983.8]","[1720.7,1720.7,1000,0,720.7,""oops"",""down"",""down"",""good_move"",4295.1,2573.9,1889.9,1721.2,684,""smooth"",""down"",""down"",""good_move"",7037.4,2741.8,2174.7,4295.6,567.1,""smooth"",""down"",""down"",""good_move"",14122.3,7084.2,2616.1,10796.9,709.3,""smooth"",""left"",""left"",""good_move"",16902.5,2779.5,1906.9,14123,872.6,""oops"",""left"",""right"",""bad_move"",20155.2,3251.4,2819.1,16903.8,432.3,""smooth"",""left"",""left"",""good_move"",23454.1,3298.4,2927.7,20155.7,370.7,""smooth"",""left"",""left"",""good_move"",26408.3,2954,2602.5,23454.3,351.5,""smooth"",""left"",""left"",""good_move""]","",""
"9542","","<div style=""width:500px;"">
  <p>What determined the result of this run?</p>
  </div>","93","html-slider-response","70","925081","0.0-5.0-1.12","268","1","2025-07-30 08:44:49","1f75c3e559b7213887762d5229550c2b","152.106.99.150","Mozilla/5.0 (Windows NT 10.0; Win64; x64) AppleWebKit/537.36 (KHTML, like Gecko) Chrome/138.0.0.0 Safari/537.36","WebKit","Chrome","138.0.0.0","Windows","10.0","https://app.prolific.com/","en-US,en;q=0.9","666408427db5e38fe0ea1736","6877631c9844ddd5501205fc","6889daa5eab3438c1666d302","3","1","666408427db5e38fe0ea1736","3","1","2025-07-30T09:00:21.700Z","","","","","","","","","","","AttribQ","","50","","","","","","","","","","","","","","","","","","","","","","","","","","","","",""
"2705","","<div style=""width:500px;"">
  <p>How much control did you have over the ball?</p>
  </div>","40","html-slider-response","71","927789","0.0-5.0-2.12","268","1","2025-07-30 08:44:49","1f75c3e559b7213887762d5229550c2b","152.106.99.150","Mozilla/5.0 (Windows NT 10.0; Win64; x64) AppleWebKit/537.36 (KHTML, like Gecko) Chrome/138.0.0.0 Safari/537.36","WebKit","Chrome","138.0.0.0","Windows","10.0","https://app.prolific.com/","en-US,en;q=0.9","666408427db5e38fe0ea1736","6877631c9844ddd5501205fc","6889daa5eab3438c1666d302","3","1","666408427db5e38fe0ea1736","3","1","2025-07-30T09:00:24.409Z","","","","","","","","","","","ControlQ","","50","","","","","","","","","","","","","","","","","","","","","","","","","","","","",""
"3951","","<div style=""width:500px;"">
  <p>How would you describe your current emotional state?</p>
  </div>","17","html-slider-response","72","931743","0.0-5.0-3.12","268","1","2025-07-30 08:44:49","1f75c3e559b7213887762d5229550c2b","152.106.99.150","Mozilla/5.0 (Windows NT 10.0; Win64; x64) AppleWebKit/537.36 (KHTML, like Gecko) Chrome/138.0.0.0 Safari/537.36","WebKit","Chrome","138.0.0.0","Windows","10.0","https://app.prolific.com/","en-US,en;q=0.9","666408427db5e38fe0ea1736","6877631c9844ddd5501205fc","6889daa5eab3438c1666d302","3","1","666408427db5e38fe0ea1736","3","1","2025-07-30T09:00:28.362Z","","","","","","","","","","","StressQ","","50","","","","","","","","","","","","","","","","","","","","","","","","","","","","",""
"8435","","<div style=""width:500px;"">
  <p>What best describes how you currently feel?</p>
  </div>","81","html-slider-response","73","940180","0.0-5.0-4.12","268","1","2025-07-30 08:44:49","1f75c3e559b7213887762d5229550c2b","152.106.99.150","Mozilla/5.0 (Windows NT 10.0; Win64; x64) AppleWebKit/537.36 (KHTML, like Gecko) Chrome/138.0.0.0 Safari/537.36","WebKit","Chrome","138.0.0.0","Windows","10.0","https://app.prolific.com/","en-US,en;q=0.9","666408427db5e38fe0ea1736","6877631c9844ddd5501205fc","6889daa5eab3438c1666d302","3","1","666408427db5e38fe0ea1736","3","1","2025-07-30T09:00:36.799Z","","","","","","","","","","","MotivationQ","","50","","","","","","","","","","","","","","","","","","","","","","","","","","","","",""
"","","","","ctl-task-cpt","74","982024","0.0-5.0-0.13","268","1","2025-07-30 08:44:49","1f75c3e559b7213887762d5229550c2b","152.106.99.150","Mozilla/5.0 (Windows NT 10.0; Win64; x64) AppleWebKit/537.36 (KHTML, like Gecko) Chrome/138.0.0.0 Safari/537.36","WebKit","Chrome","138.0.0.0","Windows","10.0","https://app.prolific.com/","en-US,en;q=0.9","666408427db5e38fe0ea1736","6877631c9844ddd5501205fc","6889daa5eab3438c1666d302","3","1","666408427db5e38fe0ea1736","3","1","2025-07-30T09:01:18.643Z","","","","","","","","","","","","","","win-only","0","g1:NW,g2:SE","0.8","14","0","950206.8","4122.3","9135.8","38816.7","1","4","8","6","2","8","7","11","4","0.08333333333333333","1367.6","3000","1335","[""down"",""right""]","{""num_key_presses"":8,""num_perfect"":6,""num_errors"":1,""num_randdir"":1,""num_randdir_good_moves"":0,""num_whilered"":0,""num_whileblue"":1,""num_blue"":3,""num_good_moves"":7}","[414.57142857142856,405.47767857142856,0.3,414.57142857142856,405.47767857142856,103.2,414.57142857142856,405.47767857142856,203.6,443.57142857142856,436.47767857142856,305.6,663.5714285714286,591.4776785714286,412.3,688.5714285714286,646.4776785714286,514.5,680.5714285714286,651.4776785714286,617.4,581.5714285714286,764.4776785714286,728.1,644.5714285714286,913.4776785714286,830.3,649.5714285714286,924.4776785714286,931.5,697.5714285714286,846.4776785714286,1048.3,715.5714285714286,817.4776785714286,1151.1,721.5714285714286,809.4776785714286,1253.5,734.5714285714286,794.4776785714286,1360.6,734.5714285714286,794.4776785714286,1473.5,735.5714285714286,793.4776785714286,1582.9,740.5714285714286,791.4776785714286,1692,746.5714285714286,789.4776785714286,1801.9,750.5714285714286,787.4776785714286,1908.9,751.5714285714286,787.4776785714286,2017,751.5714285714286,787.4776785714286,2125.4,751.5714285714286,787.4776785714286,2230.7,751.5714285714286,787.4776785714286,2331.4,751.5714285714286,787.4776785714286,2444.3,751.5714285714286,787.4776785714286,2546,751.5714285714286,787.4776785714286,2660.4,751.5714285714286,787.4776785714286,2768.2,751.5714285714286,787.4776785714286,2871.2,751.5714285714286,787.4776785714286,2973.1,751.5714285714286,787.4776785714286,3076.9,751.5714285714286,787.4776785714286,3180.1,751.5714285714286,787.4776785714286,3281.6,751.5714285714286,787.4776785714286,3391.2,751.5714285714286,787.4776785714286,3494.3,751.5714285714286,787.4776785714286,3595.8,751.5714285714286,787.4776785714286,3702.9,751.5714285714286,787.4776785714286,3805.5,751.5714285714286,787.4776785714286,3914.9,751.5714285714286,787.4776785714286,4018.9,751.5714285714286,787.4776785714286,4126.5,751.5714285714286,787.4776785714286,4229.9,751.5714285714286,787.4776785714286,4331.6,751.5714285714286,787.4776785714286,4447.7,751.5714285714286,787.4776785714286,4551.3,751.5714285714286,787.4776785714286,4654.9,751.5714285714286,787.4776785714286,4762.4,751.5714285714286,787.4776785714286,4864.1,751.5714285714286,787.4776785714286,4965.1]","[1523.6,1523.6,1000,0,523.6,""smooth"",""down"",""down"",""good_move"",8255.2,6730.9,2024.3,5781.2,449.7,""smooth"",""right"",""right"",""good_move"",12394,4138.3,3700.7,8255.7,437.6,""oops"",""down"",""up"",""bad_move"",15314.1,2919.5,2489.6,12394.6,429.9,""smooth"",""down"",""down"",""good_move"",17747.9,2433.5,1977.5,15314.4,456,""smooth"",""down"",""down"",""good_move"",20435.7,2687.5,2340.2,17748.2,347.3,""while_blue"",""right"",""right"",""good_move"",26518.1,6081.5,2048.5,23996.8,472.8,""smooth"",""down"",""down"",""good_move"",29506.9,2988.4,2630.7,26518.5,357.7,""smooth"",""right"",""right"",""good_move""]","",""
"2867","","<div style=""width:500px;"">
  <p>What determined the result of this run?</p>
  </div>","79","html-slider-response","75","984892","0.0-5.0-1.13","268","1","2025-07-30 08:44:49","1f75c3e559b7213887762d5229550c2b","152.106.99.150","Mozilla/5.0 (Windows NT 10.0; Win64; x64) AppleWebKit/537.36 (KHTML, like Gecko) Chrome/138.0.0.0 Safari/537.36","WebKit","Chrome","138.0.0.0","Windows","10.0","https://app.prolific.com/","en-US,en;q=0.9","666408427db5e38fe0ea1736","6877631c9844ddd5501205fc","6889daa5eab3438c1666d302","3","1","666408427db5e38fe0ea1736","3","1","2025-07-30T09:01:21.511Z","","","","","","","","","","","AttribQ","","50","","","","","","","","","","","","","","","","","","","","","","","","","","","","",""
"2638","","<div style=""width:500px;"">
  <p>How much control did you have over the ball?</p>
