"rt","response_timestamp","stimulus","response","trial_type","trial_index","time_elapsed","internal_node_id","run_id","condition","recorded_at","source_code_version","ip","user_agent","device","browser","browser_version","platform","platform_version","referer","accept_language","PROLIFIC_PID","STUDY_ID","SESSION_ID","WEEK","BATCH","prolific_id","week","batch","realtime","success","responses","item_order","radio_event_ids","radio_event_times","key_event_times","mouse_event_times","straightlining","zigzagging","honeypot","eventType","view_history","slider_start","which_type","canvas_config","goals_layout","control_level","trial_number","tutorial_trial_number","trial_start_time","phase1_start_time","phase2_start_time","phase3_start_time","goal_1_value","goal_1_distance","goal_2_value","goal_2_distance","goal_selected","outcome","outcome_total","participant_final_score","participant_initial_score","participant_final_score_prop","goal_choice_rt","allocated_time","allocated_time_remaining","goal_direction","counts","mouse_movements","key_presses","question_order","question_id"
"13047","1753252291508","<p style='font-size:40px;line-height:1.25'><strong>Welcome to the experiment!</strong></p><p style='font-size:1.1em;line-height:1.25'>Thank you for participanting in our experiment again! You will be asked to play the Dysfunctional Ball Game again. We will briefly recap the rules before we start.</p><p style='font-size:1.1em;line-height:1.25'>Press <strong>Next</strong> to continue.</p>","0","custom-html-button-response","0","13048","0.0-0.0","145","1","2025-07-23 06:31:16","1f75c3e559b7213887762d5229550c2b","122.164.236.240","Mozilla/5.0 (Windows NT 10.0; Win64; x64) AppleWebKit/537.36 (KHTML, like Gecko) Chrome/137.0.0.0 Safari/537.36","WebKit","Chrome","137.0.0.0","Windows","10.0","https://app.prolific.com/","en-US,en;q=0.9","664b3888f484550fe6d377bc","683db9eb0562dbf637994deb","6880819119029f14f3303e10","2","1","664b3888f484550fe6d377bc","2","1","2025-07-23T06:31:31.509Z","","","","","","","","","","","","","","","","","","","","","","","","","","","","","","","","","","","","","","","","","",""
"6087","","","","fullscreen","1","20144","0.0-1.0","145","1","2025-07-23 06:31:16","1f75c3e559b7213887762d5229550c2b","122.164.236.240","Mozilla/5.0 (Windows NT 10.0; Win64; x64) AppleWebKit/537.36 (KHTML, like Gecko) Chrome/137.0.0.0 Safari/537.36","WebKit","Chrome","137.0.0.0","Windows","10.0","https://app.prolific.com/","en-US,en;q=0.9","664b3888f484550fe6d377bc","683db9eb0562dbf637994deb","6880819119029f14f3303e10","2","1","664b3888f484550fe6d377bc","2","1","","true","","","","","","","","","","","","","","","","","","","","","","","","","","","","","","","","","","","","","","","","",""
"3494","1753252302100","<p style='font-size:1.1em;line-height:1.25'>In the following, we will ask you a few questions relating to your feelings in the last 24 hours.<br></p><p style='font-size:1.1em;line-height:1.25'>Press the <strong>Next</strong> button to continue.</p>","0","custom-html-button-response","2","23639","0.0-2.0-0.0","145","1","2025-07-23 06:31:16","1f75c3e559b7213887762d5229550c2b","122.164.236.240","Mozilla/5.0 (Windows NT 10.0; Win64; x64) AppleWebKit/537.36 (KHTML, like Gecko) Chrome/137.0.0.0 Safari/537.36","WebKit","Chrome","137.0.0.0","Windows","10.0","https://app.prolific.com/","en-US,en;q=0.9","664b3888f484550fe6d377bc","683db9eb0562dbf637994deb","6880819119029f14f3303e10","2","1","664b3888f484550fe6d377bc","2","1","2025-07-23T06:31:42.100Z","","","","","","","","","","","","","","","","","","","","","","","","","","","","","","","","","","","","","","","","","",""
"71111.90000009537","","","","survey-template","3","94755","0.0-2.0-1.0","145","1","2025-07-23 06:31:16","1f75c3e559b7213887762d5229550c2b","122.164.236.240","Mozilla/5.0 (Windows NT 10.0; Win64; x64) AppleWebKit/537.36 (KHTML, like Gecko) Chrome/137.0.0.0 Safari/537.36","WebKit","Chrome","137.0.0.0","Windows","10.0","https://app.prolific.com/","en-US,en;q=0.9","664b3888f484550fe6d377bc","683db9eb0562dbf637994deb","6880819119029f14f3303e10","2","1","664b3888f484550fe6d377bc","2","1","2025-07-23T06:32:53.216Z","","{""Q01"":""3"",""Q02"":""1"",""Q03"":""0"",""Q04"":""2"",""Q05"":""3"",""Q06"":""2"",""Q07"":""3"",""Q08"":""2"",""Q09"":""3"",""Q10"":""1"",""Q11"":""3"",""Q12"":""0"",""Q13"":""5"",""Q14"":""1"",""Q15"":""1"",""Q16"":""1"",""Q17"":""3"",""Q18"":""1"",""Q19"":""0"",""Q20"":""1"",""Q21"":""1"",""Q22"":""1""}","[0,1,2,3,4,5,6,7,8,9,10,11,12,13,14,15,16,17,18,19,20,21]","[""Q01"",""Q02"",""Q03"",""Q04"",""Q05"",""Q06"",""Q07"",""Q08"",""Q09"",""Q10"",""Q11"",""Q12"",""Q13"",""Q14"",""Q15"",""Q16"",""Q17"",""Q18"",""Q19"",""Q20"",""Q21"",""Q22""]","[8742.300000190735,9998.200000047684,12285.900000095367,13558,15174.100000143051,18086.200000047684,20525.900000095367,24118,30102,31934.300000190735,33974.200000047684,38798.40000009537,39902.10000014305,43910.10000014305,46309.800000190735,48142.40000009537,50134.10000014305,51942.10000014305,58365.800000190735,66221.90000009537,67349.70000004768,69821.30000019073]","[]","[0.10000014305114746,7119.800000190735,8742.300000190735,9998.200000047684,11590.100000143051,12285.900000095367,13558,15174.100000143051,18086.200000047684,20525.900000095367,24118,30102,31934.300000190735,33974.200000047684,38190.200000047684,38798.40000009537,39902.10000014305,43910.10000014305,46309.800000190735,48142.40000009537,50134.10000014305,51942.10000014305,57133.90000009537,58365.800000190735,64341.60000014305,65213.700000047684,66221.90000009537,67349.70000004768,69821.30000019073,71109.80000019073]","0.4090909090909091","0.42857142857142855","0","drsp","","","","","","","","","","","","","","","","","","","","","","","","","","","","","","",""
"14909.599999904633","","","","survey-template","4","109666","0.0-2.0-2.0","145","1","2025-07-23 06:31:16","1f75c3e559b7213887762d5229550c2b","122.164.236.240","Mozilla/5.0 (Windows NT 10.0; Win64; x64) AppleWebKit/537.36 (KHTML, like Gecko) Chrome/137.0.0.0 Safari/537.36","WebKit","Chrome","137.0.0.0","Windows","10.0","https://app.prolific.com/","en-US,en;q=0.9","664b3888f484550fe6d377bc","683db9eb0562dbf637994deb","6880819119029f14f3303e10","2","1","664b3888f484550fe6d377bc","2","1","2025-07-23T06:33:08.127Z","","{""Q01"":""2"",""Q02"":""4"",""Q03"":""2""}","[0,1,2]","[""Q01"",""Q02"",""Q03"",""Q03""]","[4787,9563.900000095367,13299.900000095367,14324.700000047684]","[]","[4787,9563.900000095367,13299.900000095367,14324.700000047684,14908.700000047684]","0.6666666666666666","1","0","stress","","","","","","","","","","","","","","","","","","","","","","","","","","","","","","",""
"39348","","","","instructions","5","149015","0.0-3.0-0.0","145","1","2025-07-23 06:31:16","1f75c3e559b7213887762d5229550c2b","122.164.236.240","Mozilla/5.0 (Windows NT 10.0; Win64; x64) AppleWebKit/537.36 (KHTML, like Gecko) Chrome/137.0.0.0 Safari/537.36","WebKit","Chrome","137.0.0.0","Windows","10.0","https://app.prolific.com/","en-US,en;q=0.9","664b3888f484550fe6d377bc","683db9eb0562dbf637994deb","6880819119029f14f3303e10","2","1","664b3888f484550fe6d377bc","2","1","","","","","","","","","","","","","[{""page_index"":0,""viewing_time"":39347}]","","","","","","","","","","","","","","","","","","","","","","","","","","","","","",""
"2799","","<p>Before you start with this game please answer the following three questions yourself. </p>
  <p>Through this game, we measure several aspects of your cognitive performance, such as reaction times, multi-tasking capabilities </p>
  <p>and the ability to assess the situation you are in.</p>
  <p></p>
  <p><b>How good do you usually are in such tasks?</b></p>","80","html-slider-response","6","151816","0.0-4.0-0.0","145","1","2025-07-23 06:31:16","1f75c3e559b7213887762d5229550c2b","122.164.236.240","Mozilla/5.0 (Windows NT 10.0; Win64; x64) AppleWebKit/537.36 (KHTML, like Gecko) Chrome/137.0.0.0 Safari/537.36","WebKit","Chrome","137.0.0.0","Windows","10.0","https://app.prolific.com/","en-US,en;q=0.9","664b3888f484550fe6d377bc","683db9eb0562dbf637994deb","6880819119029f14f3303e10","2","1","664b3888f484550fe6d377bc","2","1","2025-07-23T06:33:50.277Z","","","","","","","","","","","PreSkillQ","","50","","","","","","","","","","","","","","","","","","","","","","","","","","","","",""
"2070","","<div style=""width:500px;"">
  <p>How well do you think you will perform in this task compared to other participants?</p>
  </div>","71","html-slider-response","7","153887","0.0-4.0-1.0","145","1","2025-07-23 06:31:16","1f75c3e559b7213887762d5229550c2b","122.164.236.240","Mozilla/5.0 (Windows NT 10.0; Win64; x64) AppleWebKit/537.36 (KHTML, like Gecko) Chrome/137.0.0.0 Safari/537.36","WebKit","Chrome","137.0.0.0","Windows","10.0","https://app.prolific.com/","en-US,en;q=0.9","664b3888f484550fe6d377bc","683db9eb0562dbf637994deb","6880819119029f14f3303e10","2","1","664b3888f484550fe6d377bc","2","1","2025-07-23T06:33:52.348Z","","","","","","","","","","","PrePerfQ","","50","","","","","","","","","","","","","","","","","","","","","","","","","","","","",""
"2639","","<div style=""width:500px;"">
  <p>What best describes how you currently feel?</p>
  </div>","61","html-slider-response","8","156527","0.0-4.0-2.0","145","1","2025-07-23 06:31:16","1f75c3e559b7213887762d5229550c2b","122.164.236.240","Mozilla/5.0 (Windows NT 10.0; Win64; x64) AppleWebKit/537.36 (KHTML, like Gecko) Chrome/137.0.0.0 Safari/537.36","WebKit","Chrome","137.0.0.0","Windows","10.0","https://app.prolific.com/","en-US,en;q=0.9","664b3888f484550fe6d377bc","683db9eb0562dbf637994deb","6880819119029f14f3303e10","2","1","664b3888f484550fe6d377bc","2","1","2025-07-23T06:33:54.988Z","","","","","","","","","","","PreMotivationQ","","50","","","","","","","","","","","","","","","","","","","","","","","","","","","","",""
"","","","","ctl-task-cpt","9","188366","0.0-5.0-0.0","145","1","2025-07-23 06:31:16","1f75c3e559b7213887762d5229550c2b","122.164.236.240","Mozilla/5.0 (Windows NT 10.0; Win64; x64) AppleWebKit/537.36 (KHTML, like Gecko) Chrome/137.0.0.0 Safari/537.36","WebKit","Chrome","137.0.0.0","Windows","10.0","https://app.prolific.com/","en-US,en;q=0.9","664b3888f484550fe6d377bc","683db9eb0562dbf637994deb","6880819119029f14f3303e10","2","1","664b3888f484550fe6d377bc","2","1","2025-07-23T06:34:26.828Z","","","","","","","","","","","","","","win-only","2","g1:SE,g2:NW","1","1","0","160879","4222.3","9227.3","28832.4","1","4","8","6","2","8","7","7","0","0.05303030303030303","751.6","3000","605","[""left"",""up""]","{""num_key_presses"":7,""num_perfect"":6,""num_errors"":1,""num_randdir"":0,""num_randdir_good_moves"":0,""num_whilered"":0,""num_whileblue"":0,""num_blue"":1,""num_good_moves"":6}","[414.0714133126395,411.57142761775424,0.3,414.0714133126395,411.57142761775424,103.1,414.0714133126395,411.57142761775424,203.9,414.0714133126395,411.57142761775424,304.3,211.5714133126395,185.32142761775424,408.6,117.8214133126395,136.57142761775424,514,101.5714133126395,115.32142761775425,614,76.5714133126395,80.32142761775425,718.3,76.5714133126395,80.32142761775425,819.9,76.5714133126395,80.32142761775425,925.4,61.57141331263951,101.57142761775425,1029.4,59.07141331263951,102.82142761775425,1133.3,59.07141331263951,102.82142761775425,1239.9,59.07141331263951,102.82142761775425,1343.7,59.07141331263951,102.82142761775425,1445.3,59.07141331263951,102.82142761775425,1548.3,59.07141331263951,102.82142761775425,1648.4,59.07141331263951,102.82142761775425,1748.6,59.07141331263951,102.82142761775425,1849.1,59.07141331263951,102.82142761775425,1949.2,59.07141331263951,102.82142761775425,2053.2,59.07141331263951,102.82142761775425,2153.4,59.07141331263951,102.82142761775425,2258.3,59.07141331263951,102.82142761775425,2358.4,59.07141331263951,102.82142761775425,2458.7,59.07141331263951,102.82142761775425,2559.2,59.07141331263951,102.82142761775425,2663.6,59.07141331263951,102.82142761775425,2768.8,59.07141331263951,102.82142761775425,2868.9,59.07141331263951,102.82142761775425,2973.9,59.07141331263951,102.82142761775425,3075.8,59.07141331263951,102.82142761775425,3178.7,59.07141331263951,102.82142761775425,3279,59.07141331263951,102.82142761775425,3384.6,59.07141331263951,102.82142761775425,3489.2,59.07141331263951,102.82142761775425,3593.7,59.07141331263951,102.82142761775425,3698.9,59.07141331263951,102.82142761775425,3804.1,59.07141331263951,102.82142761775425,3908.4,59.07141331263951,102.82142761775425,4008.7,59.07141331263951,102.82142761775425,4108.8,59.07141331263951,102.82142761775425,4213.4,59.07141331263951,102.82142761775425,4313.6,59.07141331263951,102.82142761775425,4418,59.07141331263951,102.82142761775425,4518.8,59.07141331263951,102.82142761775425,4623.7,59.07141331263951,102.82142761775425,4728.7,59.07141331263951,102.82142761775425,4829.6,59.07141331263951,102.82142761775425,4929.9]","[4807.1,4807.2,2405.3,2003.3,398.6,""smooth"",""left"",""left"",""good_move"",7679.8,2872.3,2417,4807.5,455.3,""smooth"",""left"",""left"",""good_move"",10992.4,3312.3,2935.3,7680.2,376.9,""smooth"",""left"",""left"",""good_move"",12957.9,1965.3,1555.3,10992.6,410,""smooth"",""up"",""up"",""good_move"",13101.3,143.1,2207.5,12958.3,-2064.4,""error"",""-"",""-"",""no_move"",16320.9,3219.4,1799.7,14104.1,417.1,""smooth"",""up"",""up"",""good_move"",19516.7,3195.3,2827.8,16321.4,367.5,""smooth"",""up"",""up"",""good_move""]","",""
"2095","","<div style=""width:500px;"">
  <p>What determined the result of this run?</p>
  </div>","84","html-slider-response","10","190463","0.0-5.0-1.0","145","1","2025-07-23 06:31:16","1f75c3e559b7213887762d5229550c2b","122.164.236.240","Mozilla/5.0 (Windows NT 10.0; Win64; x64) AppleWebKit/537.36 (KHTML, like Gecko) Chrome/137.0.0.0 Safari/537.36","WebKit","Chrome","137.0.0.0","Windows","10.0","https://app.prolific.com/","en-US,en;q=0.9","664b3888f484550fe6d377bc","683db9eb0562dbf637994deb","6880819119029f14f3303e10","2","1","664b3888f484550fe6d377bc","2","1","2025-07-23T06:34:28.924Z","","","","","","","","","","","AttribQ","","50","","","","","","","","","","","","","","","","","","","","","","","","","","","","",""
"3624","","<div style=""width:500px;"">
  <p>How much control did you have over the ball?</p>
  </div>","88","html-slider-response","11","194088","0.0-5.0-2.0","145","1","2025-07-23 06:31:16","1f75c3e559b7213887762d5229550c2b","122.164.236.240","Mozilla/5.0 (Windows NT 10.0; Win64; x64) AppleWebKit/537.36 (KHTML, like Gecko) Chrome/137.0.0.0 Safari/537.36","WebKit","Chrome","137.0.0.0","Windows","10.0","https://app.prolific.com/","en-US,en;q=0.9","664b3888f484550fe6d377bc","683db9eb0562dbf637994deb","6880819119029f14f3303e10","2","1","664b3888f484550fe6d377bc","2","1","2025-07-23T06:34:32.549Z","","","","","","","","","","","ControlQ","","50","","","","","","","","","","","","","","","","","","","","","","","","","","","","",""
"2414","","<div style=""width:500px;"">
  <p>How would you describe your current emotional state?</p>
  </div>","29","html-slider-response","12","196503","0.0-5.0-3.0","145","1","2025-07-23 06:31:16","1f75c3e559b7213887762d5229550c2b","122.164.236.240","Mozilla/5.0 (Windows NT 10.0; Win64; x64) AppleWebKit/537.36 (KHTML, like Gecko) Chrome/137.0.0.0 Safari/537.36","WebKit","Chrome","137.0.0.0","Windows","10.0","https://app.prolific.com/","en-US,en;q=0.9","664b3888f484550fe6d377bc","683db9eb0562dbf637994deb","6880819119029f14f3303e10","2","1","664b3888f484550fe6d377bc","2","1","2025-07-23T06:34:34.964Z","","","","","","","","","","","StressQ","","50","","","","","","","","","","","","","","","","","","","","","","","","","","","","",""
"1950","","<div style=""width:500px;"">
  <p>What best describes how you currently feel?</p>
  </div>","67","html-slider-response","13","198454","0.0-5.0-4.0","145","1","2025-07-23 06:31:16","1f75c3e559b7213887762d5229550c2b","122.164.236.240","Mozilla/5.0 (Windows NT 10.0; Win64; x64) AppleWebKit/537.36 (KHTML, like Gecko) Chrome/137.0.0.0 Safari/537.36","WebKit","Chrome","137.0.0.0","Windows","10.0","https://app.prolific.com/","en-US,en;q=0.9","664b3888f484550fe6d377bc","683db9eb0562dbf637994deb","6880819119029f14f3303e10","2","1","664b3888f484550fe6d377bc","2","1","2025-07-23T06:34:36.915Z","","","","","","","","","","","MotivationQ","","50","","","","","","","","","","","","","","","","","","","","","","","","","","","","",""
"","","","","ctl-task-cpt","14","229443","0.0-5.0-0.1","145","1","2025-07-23 06:31:16","1f75c3e559b7213887762d5229550c2b","122.164.236.240","Mozilla/5.0 (Windows NT 10.0; Win64; x64) AppleWebKit/537.36 (KHTML, like Gecko) Chrome/137.0.0.0 Safari/537.36","WebKit","Chrome","137.0.0.0","Windows","10.0","https://app.prolific.com/","en-US,en;q=0.9","664b3888f484550fe6d377bc","683db9eb0562dbf637994deb","6880819119029f14f3303e10","2","1","664b3888f484550fe6d377bc","2","1","2025-07-23T06:35:07.904Z","","","","","","","","","","","","","","win-only","2","g1:SE,g2:NW","0.9","2","0","202804.4","880.9","5881.6","27982.8","1","4","4","6","2","4","3","10","7","0.07575757575757576","679.2","3000","185","[""left"",""up""]","{""num_key_presses"":8,""num_perfect"":6,""num_errors"":1,""num_randdir"":1,""num_randdir_good_moves"":0,""num_whilered"":0,""num_whileblue"":1,""num_blue"":2,""num_good_moves"":7}","[420.3214133126395,419.07142761775424,0.2,420.3214133126395,419.07142761775424,100,401.5714133126395,406.57142761775424,200.2,241.5714133126395,291.57142761775424,305.1,145.3214133126395,200.32142761775424,405.6,136.5714133126395,187.82142761775424,505.8,105.3214133126395,77.82142761775425,611,102.8214133126395,76.57142761775425,715.8,102.8214133126395,76.57142761775425,819.9,97.8214133126395,80.32142761775425,925.9,95.3214133126395,82.82142761775425,1026.2,95.3214133126395,82.82142761775425,1126.3,95.3214133126395,82.82142761775425,1231.7,95.3214133126395,82.82142761775425,1335.6,95.3214133126395,82.82142761775425,1440.3,95.3214133126395,82.82142761775425,1541.7,95.3214133126395,82.82142761775425,1644.6,95.3214133126395,82.82142761775425,1744.8,95.3214133126395,82.82142761775425,1844.9,95.3214133126395,82.82142761775425,1949.7,95.3214133126395,82.82142761775425,2049.7,95.3214133126395,82.82142761775425,2151.7,95.3214133126395,82.82142761775425,2255.3,95.3214133126395,82.82142761775425,2360.9,95.3214133126395,82.82142761775425,2465.6,95.3214133126395,82.82142761775425,2566.5,95.3214133126395,82.82142761775425,2670.1,95.3214133126395,82.82142761775425,2771.4,95.3214133126395,82.82142761775425,2874.9,95.3214133126395,82.82142761775425,2975.3,95.3214133126395,82.82142761775425,3075.8,95.3214133126395,82.82142761775425,3180.1,95.3214133126395,82.82142761775425,3286.8,95.3214133126395,82.82142761775425,3390.8,95.3214133126395,82.82142761775425,3494.8,95.3214133126395,82.82142761775425,3595.3,95.3214133126395,82.82142761775425,3695.7,95.3214133126395,82.82142761775425,3800.1,95.3214133126395,82.82142761775425,3900.3,95.3214133126395,82.82142761775425,4000.8,95.3214133126395,82.82142761775425,4101.4,95.3214133126395,82.82142761775425,4206.6,95.3214133126395,82.82142761775425,4309.8,95.3214133126395,82.82142761775425,4415.3,95.3214133126395,82.82142761775425,4515.4,95.3214133126395,82.82142761775425,4615.5,95.3214133126395,82.82142761775425,4720.2,95.3214133126395,82.82142761775425,4821,95.3214133126395,82.82142761775425,4925]","[1440.1,1440.1,1000,0,440.1,""smooth"",""left"",""left"",""good_move"",4031.2,2590.9,2003.2,1440.3,587.7,""smooth"",""left"",""left"",""good_move"",10301.8,6270.5,2387.2,7578.8,335.8,""smooth"",""left"",""left"",""good_move"",12596.5,2294.6,1912.6,10301.9,382,""smooth"",""up"",""up"",""good_move"",15360.6,2763.9,2395.7,12596.7,368.2,""oops"",""up"",""down"",""bad_move"",17623,2262.1,1858.2,15360.9,403.9,""smooth"",""up"",""up"",""good_move"",19912.1,2288.5,1960.3,17623.6,328.2,""smooth"",""up"",""up"",""good_move"",22008.1,2095.8,1757.8,19912.3,338,""while_blue"",""up"",""up"",""good_move""]","",""
"3875","","<div style=""width:500px;"">
  <p>What determined the result of this run?</p>
  </div>","62","html-slider-response","15","233319","0.0-5.0-1.1","145","1","2025-07-23 06:31:16","1f75c3e559b7213887762d5229550c2b","122.164.236.240","Mozilla/5.0 (Windows NT 10.0; Win64; x64) AppleWebKit/537.36 (KHTML, like Gecko) Chrome/137.0.0.0 Safari/537.36","WebKit","Chrome","137.0.0.0","Windows","10.0","https://app.prolific.com/","en-US,en;q=0.9","664b3888f484550fe6d377bc","683db9eb0562dbf637994deb","6880819119029f14f3303e10","2","1","664b3888f484550fe6d377bc","2","1","2025-07-23T06:35:11.780Z","","","","","","","","","","","AttribQ","","50","","","","","","","","","","","","","","","","","","","","","","","","","","","","",""
"1607","","<div style=""width:500px;"">
  <p>How much control did you have over the ball?</p>
  </div>","62","html-slider-response","16","234928","0.0-5.0-2.1","145","1","2025-07-23 06:31:16","1f75c3e559b7213887762d5229550c2b","122.164.236.240","Mozilla/5.0 (Windows NT 10.0; Win64; x64) AppleWebKit/537.36 (KHTML, like Gecko) Chrome/137.0.0.0 Safari/537.36","WebKit","Chrome","137.0.0.0","Windows","10.0","https://app.prolific.com/","en-US,en;q=0.9","664b3888f484550fe6d377bc","683db9eb0562dbf637994deb","6880819119029f14f3303e10","2","1","664b3888f484550fe6d377bc","2","1","2025-07-23T06:35:13.389Z","","","","","","","","","","","ControlQ","","50","","","","","","","","","","","","","","","","","","","","","","","","","","","","",""
"2838","","<div style=""width:500px;"">
  <p>How would you describe your current emotional state?</p>
  </div>","36","html-slider-response","17","237767","0.0-5.0-3.1","145","1","2025-07-23 06:31:16","1f75c3e559b7213887762d5229550c2b","122.164.236.240","Mozilla/5.0 (Windows NT 10.0; Win64; x64) AppleWebKit/537.36 (KHTML, like Gecko) Chrome/137.0.0.0 Safari/537.36","WebKit","Chrome","137.0.0.0","Windows","10.0","https://app.prolific.com/","en-US,en;q=0.9","664b3888f484550fe6d377bc","683db9eb0562dbf637994deb","6880819119029f14f3303e10","2","1","664b3888f484550fe6d377bc","2","1","2025-07-23T06:35:16.228Z","","","","","","","","","","","StressQ","","50","","","","","","","","","","","","","","","","","","","","","","","","","","","","",""
"2487","","<div style=""width:500px;"">
  <p>What best describes how you currently feel?</p>
  </div>","65","html-slider-response","18","240255","0.0-5.0-4.1","145","1","2025-07-23 06:31:16","1f75c3e559b7213887762d5229550c2b","122.164.236.240","Mozilla/5.0 (Windows NT 10.0; Win64; x64) AppleWebKit/537.36 (KHTML, like Gecko) Chrome/137.0.0.0 Safari/537.36","WebKit","Chrome","137.0.0.0","Windows","10.0","https://app.prolific.com/","en-US,en;q=0.9","664b3888f484550fe6d377bc","683db9eb0562dbf637994deb","6880819119029f14f3303e10","2","1","664b3888f484550fe6d377bc","2","1","2025-07-23T06:35:18.716Z","","","","","","","","","","","MotivationQ","","50","","","","","","","","","","","","","","","","","","","","","","","","","","","","",""
"","","","","ctl-task-cpt","19","268494","0.0-5.0-0.2","145","1","2025-07-23 06:31:16","1f75c3e559b7213887762d5229550c2b","122.164.236.240","Mozilla/5.0 (Windows NT 10.0; Win64; x64) AppleWebKit/537.36 (KHTML, like Gecko) Chrome/137.0.0.0 Safari/537.36","WebKit","Chrome","137.0.0.0","Windows","10.0","https://app.prolific.com/","en-US,en;q=0.9","664b3888f484550fe6d377bc","683db9eb0562dbf637994deb","6880819119029f14f3303e10","2","1","664b3888f484550fe6d377bc","2","1","2025-07-23T06:35:46.955Z","","","","","","","","","","","","","","win-only","1","g1:NE,g2:SW","0.8","3","0","244606.2","766.4","5770.8","25220.2","1","4","8","6","2","8","7","17","10","0.12878787878787878","871.4","3000","1005","[""down"",""left""]","{""num_key_presses"":6,""num_perfect"":4,""num_errors"":1,""num_randdir"":1,""num_randdir_good_moves"":1,""num_whilered"":0,""num_whileblue"":1,""num_blue"":2,""num_good_moves"":6}","[415.3214133126395,406.57142761775424,0.2,415.3214133126395,406.57142761775424,103.9,415.3214133126395,406.57142761775424,209.3,426.5714133126395,371.57142761775424,309.3,381.5714133126395,386.57142761775424,411.2,162.8214133126395,616.5714276177542,514.7,146.5714133126395,664.0714276177542,616.3,135.3214133126395,717.8214276177542,718.8,112.8214133126395,735.3214276177542,819.8,112.8214133126395,735.3214276177542,924.4,112.8214133126395,735.3214276177542,1025.8,112.8214133126395,735.3214276177542,1129.2,112.8214133126395,735.3214276177542,1233.9,112.8214133126395,735.3214276177542,1339.3,112.8214133126395,735.3214276177542,1445.6,112.8214133126395,735.3214276177542,1550.2,112.8214133126395,735.3214276177542,1654,112.8214133126395,735.3214276177542,1759.1,112.8214133126395,735.3214276177542,1864.7,112.8214133126395,735.3214276177542,1969.1,112.8214133126395,735.3214276177542,2074.6,112.8214133126395,735.3214276177542,2174.7,112.8214133126395,735.3214276177542,2279.3,112.8214133126395,735.3214276177542,2380.7,112.8214133126395,735.3214276177542,2483.8,112.8214133126395,735.3214276177542,2584.6,112.8214133126395,735.3214276177542,2689,112.8214133126395,735.3214276177542,2789.7,112.8214133126395,735.3214276177542,2894.8,112.8214133126395,735.3214276177542,2999,112.8214133126395,735.3214276177542,3099.2,112.8214133126395,735.3214276177542,3203.8,112.8214133126395,735.3214276177542,3304.8,112.8214133126395,735.3214276177542,3405.7,112.8214133126395,735.3214276177542,3509,112.8214133126395,735.3214276177542,3609,112.8214133126395,735.3214276177542,3709.2,112.8214133126395,735.3214276177542,3814.2,112.8214133126395,735.3214276177542,3914.2,112.8214133126395,735.3214276177542,4014.3,112.8214133126395,735.3214276177542,4118.9,112.8214133126395,735.3214276177542,4219.3,112.8214133126395,735.3214276177542,4324.3,112.8214133126395,735.3214276177542,4429.1,112.8214133126395,735.3214276177542,4529.1,112.8214133126395,735.3214276177542,4629.7,112.8214133126395,735.3214276177542,4734.2,112.8214133126395,735.3214276177542,4838.9,112.8214133126395,735.3214276177542,4939.5]","[1397.3,1397.3,1000,0,397.3,""smooth"",""left"",""left"",""good_move"",4263.9,2866.4,2468.3,1397.5,398.1,""smooth"",""left"",""left"",""good_move"",10814.7,6550.6,2596.8,7810.3,407.6,""smooth"",""down"",""down"",""good_move"",13445.3,2630.3,2198.5,10815,431.8,""smooth"",""down"",""down"",""good_move"",16243.9,2798.4,2408.3,13445.5,390.1,""oops"",""left"",""left"",""good_move"",19340.8,3096.8,2830.9,16244,265.9,""while_blue"",""down"",""down"",""good_move""]","",""
"3440","","<div style=""width:500px;"">
  <p>What determined the result of this run?</p>
  </div>","95","html-slider-response","20","271935","0.0-5.0-1.2","145","1","2025-07-23 06:31:16","1f75c3e559b7213887762d5229550c2b","122.164.236.240","Mozilla/5.0 (Windows NT 10.0; Win64; x64) AppleWebKit/537.36 (KHTML, like Gecko) Chrome/137.0.0.0 Safari/537.36","WebKit","Chrome","137.0.0.0","Windows","10.0","https://app.prolific.com/","en-US,en;q=0.9","664b3888f484550fe6d377bc","683db9eb0562dbf637994deb","6880819119029f14f3303e10","2","1","664b3888f484550fe6d377bc","2","1","2025-07-23T06:35:50.396Z","","","","","","","","","","","AttribQ","","50","","","","","","","","","","","","","","","","","","","","","","","","","","","","",""
"1544","","<div style=""width:500px;"">
  <p>How much control did you have over the ball?</p>
  </div>","91","html-slider-response","21","273479","0.0-5.0-2.2","145","1","2025-07-23 06:31:16","1f75c3e559b7213887762d5229550c2b","122.164.236.240","Mozilla/5.0 (Windows NT 10.0; Win64; x64) AppleWebKit/537.36 (KHTML, like Gecko) Chrome/137.0.0.0 Safari/537.36","WebKit","Chrome","137.0.0.0","Windows","10.0","https://app.prolific.com/","en-US,en;q=0.9","664b3888f484550fe6d377bc","683db9eb0562dbf637994deb","6880819119029f14f3303e10","2","1","664b3888f484550fe6d377bc","2","1","2025-07-23T06:35:51.940Z","","","","","","","","","","","ControlQ","","50","","","","","","","","","","","","","","","","","","","","","","","","","","","","",""
"2142","","<div style=""width:500px;"">
  <p>How would you describe your current emotional state?</p>
  </div>","31","html-slider-response","22","275623","0.0-5.0-3.2","145","1","2025-07-23 06:31:16","1f75c3e559b7213887762d5229550c2b","122.164.236.240","Mozilla/5.0 (Windows NT 10.0; Win64; x64) AppleWebKit/537.36 (KHTML, like Gecko) Chrome/137.0.0.0 Safari/537.36","WebKit","Chrome","137.0.0.0","Windows","10.0","https://app.prolific.com/","en-US,en;q=0.9","664b3888f484550fe6d377bc","683db9eb0562dbf637994deb","6880819119029f14f3303e10","2","1","664b3888f484550fe6d377bc","2","1","2025-07-23T06:35:54.084Z","","","","","","","","","","","StressQ","","50","","","","","","","","","","","","","","","","","","","","","","","","","","","","",""
"2526","","<div style=""width:500px;"">
  <p>What best describes how you currently feel?</p>
  </div>","67","html-slider-response","23","278150","0.0-5.0-4.2","145","1","2025-07-23 06:31:16","1f75c3e559b7213887762d5229550c2b","122.164.236.240","Mozilla/5.0 (Windows NT 10.0; Win64; x64) AppleWebKit/537.36 (KHTML, like Gecko) Chrome/137.0.0.0 Safari/537.36","WebKit","Chrome","137.0.0.0","Windows","10.0","https://app.prolific.com/","en-US,en;q=0.9","664b3888f484550fe6d377bc","683db9eb0562dbf637994deb","6880819119029f14f3303e10","2","1","664b3888f484550fe6d377bc","2","1","2025-07-23T06:35:56.611Z","","","","","","","","","","","MotivationQ","","50","","","","","","","","","","","","","","","","","","","","","","","","","","","","",""
"","","","","ctl-task-cpt","24","312743","0.0-5.0-0.3","145","1","2025-07-23 06:31:16","1f75c3e559b7213887762d5229550c2b","122.164.236.240","Mozilla/5.0 (Windows NT 10.0; Win64; x64) AppleWebKit/537.36 (KHTML, like Gecko) Chrome/137.0.0.0 Safari/537.36","WebKit","Chrome","137.0.0.0","Windows","10.0","https://app.prolific.com/","en-US,en;q=0.9","664b3888f484550fe6d377bc","683db9eb0562dbf637994deb","6880819119029f14f3303e10","2","1","664b3888f484550fe6d377bc","2","1","2025-07-23T06:36:31.204Z","","","","","","","","","","","","","","win-only","2","g1:SE,g2:NW","0.7","4","0","282501.1","999","6000.6","31575.5","1","4","4","6","2","4","4","21","17","0.1590909090909091","528.6","3000","590","[""left"",""up""]","{""num_key_presses"":6,""num_perfect"":5,""num_errors"":0,""num_randdir"":1,""num_randdir_good_moves"":1,""num_whilered"":0,""num_whileblue"":0,""num_blue"":3,""num_good_moves"":6}","[407.8214133126395,422.82142761775424,0.3,407.8214133126395,422.82142761775424,103.5,395.3214133126395,414.07142761775424,206.4,174.0714133126395,219.07142761775424,311.9,82.8214133126395,97.82142761775425,416.8,82.8214133126395,97.82142761775425,517.1,82.8214133126395,97.82142761775425,621.5,82.8214133126395,97.82142761775425,722.1,70.3214133126395,107.82142761775425,826.9,70.3214133126395,107.82142761775425,927,70.3214133126395,107.82142761775425,1031.8,70.3214133126395,107.82142761775425,1137.1,70.3214133126395,107.82142761775425,1241.2,70.3214133126395,107.82142761775425,1341.5,70.3214133126395,107.82142761775425,1446.9,70.3214133126395,107.82142761775425,1547.1,70.3214133126395,107.82142761775425,1653,70.3214133126395,107.82142761775425,1757.3,70.3214133126395,107.82142761775425,1861.9,70.3214133126395,107.82142761775425,1962.1,70.3214133126395,107.82142761775425,2067.3,70.3214133126395,107.82142761775425,2167.3,70.3214133126395,107.82142761775425,2271.6,70.3214133126395,107.82142761775425,2372.1,70.3214133126395,107.82142761775425,2477,70.3214133126395,107.82142761775425,2577.1,70.3214133126395,107.82142761775425,2681.4,70.3214133126395,107.82142761775425,2781.5,70.3214133126395,107.82142761775425,2881.7,70.3214133126395,107.82142761775425,2986.7,70.3214133126395,107.82142761775425,3091.2,70.3214133126395,107.82142761775425,3196.2,70.3214133126395,107.82142761775425,3296.2,70.3214133126395,107.82142761775425,3398,70.3214133126395,107.82142761775425,3501.3,70.3214133126395,107.82142761775425,3601.3,70.3214133126395,107.82142761775425,3701.5,70.3214133126395,107.82142761775425,3806.8,70.3214133126395,107.82142761775425,3911.9,70.3214133126395,107.82142761775425,4012,70.3214133126395,107.82142761775425,4113,70.3214133126395,107.82142761775425,4216.2,70.3214133126395,107.82142761775425,4317.2,70.3214133126395,107.82142761775425,4421.5,70.3214133126395,107.82142761775425,4522.2,70.3214133126395,107.82142761775425,4627.2,70.3214133126395,107.82142761775425,4733.1,70.3214133126395,107.82142761775425,4837,70.3214133126395,107.82142761775425,4941.5]","[4871.9,4871.9,2401.3,2010,460.6,""smooth"",""left"",""left"",""good_move"",7241.7,2369.5,1960.1,4872.2,409.4,""smooth"",""left"",""left"",""good_move"",10000.6,2758.8,2375.4,7241.8,383.4,""smooth"",""left"",""left"",""good_move"",13092,3091.1,2733.8,10000.9,357.3,""smooth"",""up"",""up"",""good_move"",19762.2,6670.1,2769.2,16585.9,407.1,""oops"",""up"",""up"",""good_move"",25489,5726.6,2261.3,22805.4,422.3,""smooth"",""up"",""up"",""good_move""]","",""
"3654","","<div style=""width:500px;"">
  <p>What determined the result of this run?</p>
  </div>","96","html-slider-response","25","316398","0.0-5.0-1.3","145","1","2025-07-23 06:31:16","1f75c3e559b7213887762d5229550c2b","122.164.236.240","Mozilla/5.0 (Windows NT 10.0; Win64; x64) AppleWebKit/537.36 (KHTML, like Gecko) Chrome/137.0.0.0 Safari/537.36","WebKit","Chrome","137.0.0.0","Windows","10.0","https://app.prolific.com/","en-US,en;q=0.9","664b3888f484550fe6d377bc","683db9eb0562dbf637994deb","6880819119029f14f3303e10","2","1","664b3888f484550fe6d377bc","2","1","2025-07-23T06:36:34.860Z","","","","","","","","","","","AttribQ","","50","","","","","","","","","","","","","","","","","","","","","","","","","","","","",""
"3767","","<div style=""width:500px;"">
  <p>How much control did you have over the ball?</p>
  </div>","96","html-slider-response","26","320166","0.0-5.0-2.3","145","1","2025-07-23 06:31:16","1f75c3e559b7213887762d5229550c2b","122.164.236.240","Mozilla/5.0 (Windows NT 10.0; Win64; x64) AppleWebKit/537.36 (KHTML, like Gecko) Chrome/137.0.0.0 Safari/537.36","WebKit","Chrome","137.0.0.0","Windows","10.0","https://app.prolific.com/","en-US,en;q=0.9","664b3888f484550fe6d377bc","683db9eb0562dbf637994deb","6880819119029f14f3303e10","2","1","664b3888f484550fe6d377bc","2","1","2025-07-23T06:36:38.627Z","","","","","","","","","","","ControlQ","","50","","","","","","","","","","","","","","","","","","","","","","","","","","","","",""
"2583","","<div style=""width:500px;"">
  <p>How would you describe your current emotional state?</p>
  </div>","16","html-slider-response","27","322750","0.0-5.0-3.3","145","1","2025-07-23 06:31:16","1f75c3e559b7213887762d5229550c2b","122.164.236.240","Mozilla/5.0 (Windows NT 10.0; Win64; x64) AppleWebKit/537.36 (KHTML, like Gecko) Chrome/137.0.0.0 Safari/537.36","WebKit","Chrome","137.0.0.0","Windows","10.0","https://app.prolific.com/","en-US,en;q=0.9","664b3888f484550fe6d377bc","683db9eb0562dbf637994deb","6880819119029f14f3303e10","2","1","664b3888f484550fe6d377bc","2","1","2025-07-23T06:36:41.212Z","","","","","","","","","","","StressQ","","50","","","","","","","","","","","","","","","","","","","","","","","","","","","","",""
"2198","","<div style=""width:500px;"">
  <p>What best describes how you currently feel?</p>
  </div>","82","html-slider-response","28","324950","0.0-5.0-4.3","145","1","2025-07-23 06:31:16","1f75c3e559b7213887762d5229550c2b","122.164.236.240","Mozilla/5.0 (Windows NT 10.0; Win64; x64) AppleWebKit/537.36 (KHTML, like Gecko) Chrome/137.0.0.0 Safari/537.36","WebKit","Chrome","137.0.0.0","Windows","10.0","https://app.prolific.com/","en-US,en;q=0.9","664b3888f484550fe6d377bc","683db9eb0562dbf637994deb","6880819119029f14f3303e10","2","1","664b3888f484550fe6d377bc","2","1","2025-07-23T06:36:43.411Z","","","","","","","","","","","MotivationQ","","50","","","","","","","","","","","","","","","","","","","","","","","","","","","","",""
"","","","","ctl-task-cpt","29","375389","0.0-5.0-0.4","145","1","2025-07-23 06:31:16","1f75c3e559b7213887762d5229550c2b","122.164.236.240","Mozilla/5.0 (Windows NT 10.0; Win64; x64) AppleWebKit/537.36 (KHTML, like Gecko) Chrome/137.0.0.0 Safari/537.36","WebKit","Chrome","137.0.0.0","Windows","10.0","https://app.prolific.com/","en-US,en;q=0.9","664b3888f484550fe6d377bc","683db9eb0562dbf637994deb","6880819119029f14f3303e10","2","1","664b3888f484550fe6d377bc","2","1","2025-07-23T06:37:33.850Z","","","","","","","","","","","","","","win-only","2","g1:SE,g2:NW","0.6","5","0","329300.7","855.7","5856.2","47420.6","1","4","8","6","2","8","5","26","21","0.19696969696969696","815.5","3000","10","[""left"",""up""]","{""num_key_presses"":11,""num_perfect"":6,""num_errors"":3,""num_randdir"":2,""num_randdir_good_moves"":1,""num_whilered"":0,""num_whileblue"":0,""num_blue"":4,""num_good_moves"":7}","[424.0714133126395,417.82142761775424,0.3,424.0714133126395,417.82142761775424,104,424.0714133126395,417.82142761775424,205.3,314.0714133126395,270.32142761775424,305.3,144.0714133126395,77.82142761775425,406.5,144.0714133126395,77.82142761775425,510,132.8214133126395,77.82142761775425,610,126.5714133126395,77.82142761775425,711.6,121.5714133126395,77.82142761775425,820,121.5714133126395,77.82142761775425,920.3,121.5714133126395,77.82142761775425,1024.6,121.5714133126395,77.82142761775425,1125.1,121.5714133126395,77.82142761775425,1230.4,121.5714133126395,77.82142761775425,1336,121.5714133126395,77.82142761775425,1436.3,121.5714133126395,77.82142761775425,1539.9,121.5714133126395,77.82142761775425,1641.5,121.5714133126395,77.82142761775425,1745.1,121.5714133126395,77.82142761775425,1845.3,121.5714133126395,77.82142761775425,1945.6,121.5714133126395,77.82142761775425,2051.2,121.5714133126395,77.82142761775425,2155.1,121.5714133126395,77.82142761775425,2255.7,121.5714133126395,77.82142761775425,2360.4,121.5714133126395,77.82142761775425,2464.6,121.5714133126395,77.82142761775425,2564.6,121.5714133126395,77.82142761775425,2664.9,121.5714133126395,77.82142761775425,2769.9,121.5714133126395,77.82142761775425,2870,121.5714133126395,77.82142761775425,2970.4,121.5714133126395,77.82142761775425,3075.2,121.5714133126395,77.82142761775425,3180,121.5714133126395,77.82142761775425,3285.2,121.5714133126395,77.82142761775425,3385.3,121.5714133126395,77.82142761775425,3489.7,121.5714133126395,77.82142761775425,3589.7,121.5714133126395,77.82142761775425,3690,121.5714133126395,77.82142761775425,3790.4,121.5714133126395,77.82142761775425,3890.9,121.5714133126395,77.82142761775425,3995.4,121.5714133126395,77.82142761775425,4101.1,121.5714133126395,77.82142761775425,4205,121.5714133126395,77.82142761775425,4305.9,121.5714133126395,77.82142761775425,4410.4,121.5714133126395,77.82142761775425,4516.3,121.5714133126395,77.82142761775425,4620.5,121.5714133126395,77.82142761775425,4725.4,121.5714133126395,77.82142761775425,4830.5,121.5714133126395,77.82142761775425,4935.4]","[1408.5,1408.5,1000,0,408.5,""smooth"",""left"",""left"",""good_move"",3623.8,2215,1838.3,1408.8,376.7,""oops"",""left"",""down"",""bad_move"",6875.3,3251.2,2802.2,3624.1,449,""oops"",""left"",""up"",""good_move"",13472.1,6596.5,2269.4,10844.8,357.9,""smooth"",""left"",""left"",""good_move"",19706.4,6234,1979.9,17314.3,412.2,""smooth"",""left"",""left"",""good_move"",26456.8,6750.3,2617.3,23429.3,410.2,""smooth"",""up"",""up"",""good_move"",33443.3,6986.3,2414,30659.2,370.1,""smooth"",""up"",""up"",""good_move"",34265.6,822.1,2450.5,33443.5,-1628.4,""error"",""-"",""-"",""no_move"",35619.2,1353.1,2941.4,35269.4,-2591.6,""error"",""-"",""-"",""no_move"",36983.9,1364.6,3182.1,36624.1,-2822.3,""error"",""-"",""-"",""no_move"",41460.7,4476.6,3228.6,37985,247.1,""smooth"",""up"",""up"",""good_move""]","",""
"2321","","<div style=""width:500px;"">
  <p>What determined the result of this run?</p>
  </div>","72","html-slider-response","30","377710","0.0-5.0-1.4","145","1","2025-07-23 06:31:16","1f75c3e559b7213887762d5229550c2b","122.164.236.240","Mozilla/5.0 (Windows NT 10.0; Win64; x64) AppleWebKit/537.36 (KHTML, like Gecko) Chrome/137.0.0.0 Safari/537.36","WebKit","Chrome","137.0.0.0","Windows","10.0","https://app.prolific.com/","en-US,en;q=0.9","664b3888f484550fe6d377bc","683db9eb0562dbf637994deb","6880819119029f14f3303e10","2","1","664b3888f484550fe6d377bc","2","1","2025-07-23T06:37:36.171Z","","","","","","","","","","","AttribQ","","50","","","","","","","","","","","","","","","","","","","","","","","","","","","","",""
"1663","","<div style=""width:500px;"">
  <p>How much control did you have over the ball?</p>
  </div>","70","html-slider-response","31","379374","0.0-5.0-2.4","145","1","2025-07-23 06:31:16","1f75c3e559b7213887762d5229550c2b","122.164.236.240","Mozilla/5.0 (Windows NT 10.0; Win64; x64) AppleWebKit/537.36 (KHTML, like Gecko) Chrome/137.0.0.0 Safari/537.36","WebKit","Chrome","137.0.0.0","Windows","10.0","https://app.prolific.com/","en-US,en;q=0.9","664b3888f484550fe6d377bc","683db9eb0562dbf637994deb","6880819119029f14f3303e10","2","1","664b3888f484550fe6d377bc","2","1","2025-07-23T06:37:37.835Z","","","","","","","","","","","ControlQ","","50","","","","","","","","","","","","","","","","","","","","","","","","","","","","",""
"2999","","<div style=""width:500px;"">
  <p>How would you describe your current emotional state?</p>
  </div>","39","html-slider-response","32","382374","0.0-5.0-3.4","145","1","2025-07-23 06:31:16","1f75c3e559b7213887762d5229550c2b","122.164.236.240","Mozilla/5.0 (Windows NT 10.0; Win64; x64) AppleWebKit/537.36 (KHTML, like Gecko) Chrome/137.0.0.0 Safari/537.36","WebKit","Chrome","137.0.0.0","Windows","10.0","https://app.prolific.com/","en-US,en;q=0.9","664b3888f484550fe6d377bc","683db9eb0562dbf637994deb","6880819119029f14f3303e10","2","1","664b3888f484550fe6d377bc","2","1","2025-07-23T06:37:40.835Z","","","","","","","","","","","StressQ","","50","","","","","","","","","","","","","","","","","","","","","","","","","","","","",""
"2815","","<div style=""width:500px;"">
  <p>What best describes how you currently feel?</p>
  </div>","66","html-slider-response","33","385190","0.0-5.0-4.4","145","1","2025-07-23 06:31:16","1f75c3e559b7213887762d5229550c2b","122.164.236.240","Mozilla/5.0 (Windows NT 10.0; Win64; x64) AppleWebKit/537.36 (KHTML, like Gecko) Chrome/137.0.0.0 Safari/537.36","WebKit","Chrome","137.0.0.0","Windows","10.0","https://app.prolific.com/","en-US,en;q=0.9","664b3888f484550fe6d377bc","683db9eb0562dbf637994deb","6880819119029f14f3303e10","2","1","664b3888f484550fe6d377bc","2","1","2025-07-23T06:37:43.651Z","","","","","","","","","","","MotivationQ","","50","","","","","","","","","","","","","","","","","","","","","","","","","","","","",""
"","","","","ctl-task-cpt","34","403609","0.0-5.0-0.5","145","1","2025-07-23 06:31:16","1f75c3e559b7213887762d5229550c2b","122.164.236.240","Mozilla/5.0 (Windows NT 10.0; Win64; x64) AppleWebKit/537.36 (KHTML, like Gecko) Chrome/137.0.0.0 Safari/537.36","WebKit","Chrome","137.0.0.0","Windows","10.0","https://app.prolific.com/","en-US,en;q=0.9","664b3888f484550fe6d377bc","683db9eb0562dbf637994deb","6880819119029f14f3303e10","2","1","664b3888f484550fe6d377bc","2","1","2025-07-23T06:38:02.071Z","","","","","","","","","","","","","","win-only","2","g1:SE,g2:NW","0.5","6","0","389541","750.6","5751.5","15400.9","1","4","4","6","1","1","1","27","26","0.20454545454545456","1000.2","3000","1435","[""down"",""right""]","{""num_key_presses"":4,""num_perfect"":2,""num_errors"":0,""num_randdir"":2,""num_randdir_good_moves"":2,""num_whilered"":0,""num_whileblue"":0,""num_blue"":0,""num_good_moves"":4}","[417.8214133126395,424.07142761775424,0.2,417.8214133126395,424.07142761775424,100.7,417.8214133126395,424.07142761775424,205.2,421.5714133126395,436.57142761775424,305.4,555.3214133126395,612.8214276177542,405.8,635.3214133126395,710.3214276177542,512,686.5714133126395,739.0714276177542,615.2,695.3214133126395,747.8214276177542,715.5,701.5714133126395,751.5714276177542,820.4,701.5714133126395,751.5714276177542,925.9,726.5714133126395,752.8214276177542,1025.9,726.5714133126395,752.8214276177542,1126.3,726.5714133126395,752.8214276177542,1230.3,726.5714133126395,752.8214276177542,1331.4,726.5714133126395,752.8214276177542,1435.7,726.5714133126395,752.8214276177542,1540.8,726.5714133126395,752.8214276177542,1645.1,726.5714133126395,752.8214276177542,1746,726.5714133126395,752.8214276177542,1850.7,726.5714133126395,752.8214276177542,1955.6,726.5714133126395,752.8214276177542,2055.6,726.5714133126395,752.8214276177542,2160.9,726.5714133126395,752.8214276177542,2265.4,726.5714133126395,752.8214276177542,2365.7,726.5714133126395,752.8214276177542,2466.7,726.5714133126395,752.8214276177542,2570,726.5714133126395,752.8214276177542,2670,726.5714133126395,752.8214276177542,2770.5,726.5714133126395,752.8214276177542,2870.5,726.5714133126395,752.8214276177542,2975.7,726.5714133126395,752.8214276177542,3076,726.5714133126395,752.8214276177542,3180,726.5714133126395,752.8214276177542,3280.1,726.5714133126395,752.8214276177542,3380.1,726.5714133126395,752.8214276177542,3480.3,726.5714133126395,752.8214276177542,3585,726.5714133126395,752.8214276177542,3690.4,726.5714133126395,752.8214276177542,3795.9,726.5714133126395,752.8214276177542,3900,726.5714133126395,752.8214276177542,4000.8,726.5714133126395,752.8214276177542,4101.6,726.5714133126395,752.8214276177542,4204.9,726.5714133126395,752.8214276177542,4305.3,726.5714133126395,752.8214276177542,4405.3,726.5714133126395,752.8214276177542,4505.5,726.5714133126395,752.8214276177542,4610.1,726.5714133126395,752.8214276177542,4711.3,726.5714133126395,752.8214276177542,4815.5,726.5714133126395,752.8214276177542,4919.7]","[1430.7,1430.6,1000,0.1,430.6,""smooth"",""right"",""right"",""good_move"",4860.3,3429.3,3047.6,1431,381.7,""smooth"",""right"",""right"",""good_move"",7466.4,2605.9,2269.9,4860.5,336,""oops"",""down"",""down"",""good_move"",9553.5,2086.9,1652.9,7466.6,434,""oops"",""down"",""down"",""good_move""]","",""
"2396","","<div style=""width:500px;"">
  <p>What determined the result of this run?</p>
  </div>","93","html-slider-response","35","406006","0.0-5.0-1.5","145","1","2025-07-23 06:31:16","1f75c3e559b7213887762d5229550c2b","122.164.236.240","Mozilla/5.0 (Windows NT 10.0; Win64; x64) AppleWebKit/537.36 (KHTML, like Gecko) Chrome/137.0.0.0 Safari/537.36","WebKit","Chrome","137.0.0.0","Windows","10.0","https://app.prolific.com/","en-US,en;q=0.9","664b3888f484550fe6d377bc","683db9eb0562dbf637994deb","6880819119029f14f3303e10","2","1","664b3888f484550fe6d377bc","2","1","2025-07-23T06:38:04.467Z","","","","","","","","","","","AttribQ","","50","","","","","","","","","","","","","","","","","","","","","","","","","","","","",""
"1751","","<div style=""width:500px;"">
  <p>How much control did you have over the ball?</p>
  </div>","83","html-slider-response","36","407758","0.0-5.0-2.5","145","1","2025-07-23 06:31:16","1f75c3e559b7213887762d5229550c2b","122.164.236.240","Mozilla/5.0 (Windows NT 10.0; Win64; x64) AppleWebKit/537.36 (KHTML, like Gecko) Chrome/137.0.0.0 Safari/537.36","WebKit","Chrome","137.0.0.0","Windows","10.0","https://app.prolific.com/","en-US,en;q=0.9","664b3888f484550fe6d377bc","683db9eb0562dbf637994deb","6880819119029f14f3303e10","2","1","664b3888f484550fe6d377bc","2","1","2025-07-23T06:38:06.219Z","","","","","","","","","","","ControlQ","","50","","","","","","","","","","","","","","","","","","","","","","","","","","","","",""
"2176","","<div style=""width:500px;"">
  <p>How would you describe your current emotional state?</p>
  </div>","20","html-slider-response","37","409934","0.0-5.0-3.5","145","1","2025-07-23 06:31:16","1f75c3e559b7213887762d5229550c2b","122.164.236.240","Mozilla/5.0 (Windows NT 10.0; Win64; x64) AppleWebKit/537.36 (KHTML, like Gecko) Chrome/137.0.0.0 Safari/537.36","WebKit","Chrome","137.0.0.0","Windows","10.0","https://app.prolific.com/","en-US,en;q=0.9","664b3888f484550fe6d377bc","683db9eb0562dbf637994deb","6880819119029f14f3303e10","2","1","664b3888f484550fe6d377bc","2","1","2025-07-23T06:38:08.395Z","","","","","","","","","","","StressQ","","50","","","","","","","","","","","","","","","","","","","","","","","","","","","","",""
"2823","","<div style=""width:500px;"">
  <p>What best describes how you currently feel?</p>
  </div>","67","html-slider-response","38","412758","0.0-5.0-4.5","145","1","2025-07-23 06:31:16","1f75c3e559b7213887762d5229550c2b","122.164.236.240","Mozilla/5.0 (Windows NT 10.0; Win64; x64) AppleWebKit/537.36 (KHTML, like Gecko) Chrome/137.0.0.0 Safari/537.36","WebKit","Chrome","137.0.0.0","Windows","10.0","https://app.prolific.com/","en-US,en;q=0.9","664b3888f484550fe6d377bc","683db9eb0562dbf637994deb","6880819119029f14f3303e10","2","1","664b3888f484550fe6d377bc","2","1","2025-07-23T06:38:11.219Z","","","","","","","","","","","MotivationQ","","50","","","","","","","","","","","","","","","","","","","","","","","","","","","","",""
"","","","","ctl-task-cpt","39","451291","0.0-5.0-0.6","145","1","2025-07-23 06:31:16","1f75c3e559b7213887762d5229550c2b","122.164.236.240","Mozilla/5.0 (Windows NT 10.0; Win64; x64) AppleWebKit/537.36 (KHTML, like Gecko) Chrome/137.0.0.0 Safari/537.36","WebKit","Chrome","137.0.0.0","Windows","10.0","https://app.prolific.com/","en-US,en;q=0.9","664b3888f484550fe6d377bc","683db9eb0562dbf637994deb","6880819119029f14f3303e10","2","1","664b3888f484550fe6d377bc","2","1","2025-07-23T06:38:49.752Z","","","","","","","","","","","","","","win-only","3","g1:SW,g2:NE","0.4","7","0","417108.9","943.1","5947.3","35515.6","1","4","4","6","2","-4","-4","23","27","0.17424242424242425","928","3000","-2990","[""up"",""right""]","{""num_key_presses"":8,""num_perfect"":4,""num_errors"":0,""num_randdir"":4,""num_randdir_good_moves"":2,""num_whilered"":0,""num_whileblue"":0,""num_blue"":1,""num_good_moves"":6}","[417.8214133126395,419.07142761775424,0.1,417.8214133126395,419.07142761775424,102.7,409.0714133126395,414.07142761775424,204.2,345.3214133126395,290.32142761775424,307.4,316.5714133126395,391.57142761775424,407.7,771.5714133126395,391.57142761775424,508.2,871.5714133126395,82.82142761775425,612.1,846.5714133126395,24.071427617754253,712.9,792.8214133126395,21.571427617754253,817.4,744.0714133126395,49.07142761775425,917.4,744.0714133126395,49.07142761775425,1017.5,744.0714133126395,49.07142761775425,1122.8,744.0714133126395,49.07142761775425,1223.8,744.0714133126395,49.07142761775425,1327.1,744.0714133126395,49.07142761775425,1427.5,744.0714133126395,49.07142761775425,1532.5,744.0714133126395,49.07142761775425,1632.6,744.0714133126395,49.07142761775425,1733,744.0714133126395,49.07142761775425,1837.6,744.0714133126395,49.07142761775425,1938,744.0714133126395,49.07142761775425,2042.7,744.0714133126395,49.07142761775425,2143.7,744.0714133126395,49.07142761775425,2247.7,744.0714133126395,49.07142761775425,2353.8,744.0714133126395,49.07142761775425,2457.1,744.0714133126395,49.07142761775425,2558.1,744.0714133126395,49.07142761775425,2662.9,744.0714133126395,49.07142761775425,2763.8,744.0714133126395,49.07142761775425,2867.3,744.0714133126395,49.07142761775425,2968.6,744.0714133126395,49.07142761775425,3072.7,744.0714133126395,49.07142761775425,3172.7,744.0714133126395,49.07142761775425,3277.6,744.0714133126395,49.07142761775425,3382.1,744.0714133126395,49.07142761775425,3482.3,744.0714133126395,49.07142761775425,3583.8,744.0714133126395,49.07142761775425,3687.1,744.0714133126395,49.07142761775425,3789,744.0714133126395,49.07142761775425,3892.8,744.0714133126395,49.07142761775425,3992.8,744.0714133126395,49.07142761775425,4097.8,744.0714133126395,49.07142761775425,4203,744.0714133126395,49.07142761775425,4303.8,744.0714133126395,49.07142761775425,4407.2,744.0714133126395,49.07142761775425,4507.8,744.0714133126395,49.07142761775425,4607.8,744.0714133126395,49.07142761775425,4708.2,744.0714133126395,49.07142761775425,4812.2,744.0714133126395,49.07142761775425,4918.3]","[1426.2,1426.2,1000,0,426.2,""oops"",""right"",""up"",""good_move"",4920.5,3493.9,3125.6,1426.6,368.3,""oops"",""right"",""up"",""good_move"",8164.1,3243.2,2870.8,4920.9,372.4,""smooth"",""right"",""right"",""good_move"",13795.3,5630.7,2236.3,11263.5,295.5,""smooth"",""right"",""right"",""good_move"",16962.6,3167.2,2771.4,13795.4,395.8,""smooth"",""up"",""up"",""good_move"",19630,2667.2,2346.5,16962.8,320.7,""oops"",""right"",""left"",""bad_move"",23794.9,4164.4,3774,19630.5,390.4,""oops"",""left"",""left"",""bad_move"",26905.2,3110.1,2785.2,23795.1,324.9,""smooth"",""right"",""right"",""good_move""]","",""
"2473","","<div style=""width:500px;"">
  <p>What determined the result of this run?</p>
  </div>","36","html-slider-response","40","453766","0.0-5.0-1.6","145","1","2025-07-23 06:31:16","1f75c3e559b7213887762d5229550c2b","122.164.236.240","Mozilla/5.0 (Windows NT 10.0; Win64; x64) AppleWebKit/537.36 (KHTML, like Gecko) Chrome/137.0.0.0 Safari/537.36","WebKit","Chrome","137.0.0.0","Windows","10.0","https://app.prolific.com/","en-US,en;q=0.9","664b3888f484550fe6d377bc","683db9eb0562dbf637994deb","6880819119029f14f3303e10","2","1","664b3888f484550fe6d377bc","2","1","2025-07-23T06:38:52.227Z","","","","","","","","","","","AttribQ","","50","","","","","","","","","","","","","","","","","","","","","","","","","","","","",""
"3016","","<div style=""width:500px;"">
  <p>How much control did you have over the ball?</p>
  </div>","38","html-slider-response","41","456782","0.0-5.0-2.6","145","1","2025-07-23 06:31:16","1f75c3e559b7213887762d5229550c2b","122.164.236.240","Mozilla/5.0 (Windows NT 10.0; Win64; x64) AppleWebKit/537.36 (KHTML, like Gecko) Chrome/137.0.0.0 Safari/537.36","WebKit","Chrome","137.0.0.0","Windows","10.0","https://app.prolific.com/","en-US,en;q=0.9","664b3888f484550fe6d377bc","683db9eb0562dbf637994deb","6880819119029f14f3303e10","2","1","664b3888f484550fe6d377bc","2","1","2025-07-23T06:38:55.243Z","","","","","","","","","","","ControlQ","","50","","","","","","","","","","","","","","","","","","","","","","","","","","","","",""
"1512","","<div style=""width:500px;"">
  <p>How would you describe your current emotional state?</p>
  </div>","38","html-slider-response","42","458294","0.0-5.0-3.6","145","1","2025-07-23 06:31:16","1f75c3e559b7213887762d5229550c2b","122.164.236.240","Mozilla/5.0 (Windows NT 10.0; Win64; x64) AppleWebKit/537.36 (KHTML, like Gecko) Chrome/137.0.0.0 Safari/537.36","WebKit","Chrome","137.0.0.0","Windows","10.0","https://app.prolific.com/","en-US,en;q=0.9","664b3888f484550fe6d377bc","683db9eb0562dbf637994deb","6880819119029f14f3303e10","2","1","664b3888f484550fe6d377bc","2","1","2025-07-23T06:38:56.755Z","","","","","","","","","","","StressQ","","50","","","","","","","","","","","","","","","","","","","","","","","","","","","","",""
"1751","","<div style=""width:500px;"">
  <p>What best describes how you currently feel?</p>
  </div>","61","html-slider-response","43","460045","0.0-5.0-4.6","145","1","2025-07-23 06:31:16","1f75c3e559b7213887762d5229550c2b","122.164.236.240","Mozilla/5.0 (Windows NT 10.0; Win64; x64) AppleWebKit/537.36 (KHTML, like Gecko) Chrome/137.0.0.0 Safari/537.36","WebKit","Chrome","137.0.0.0","Windows","10.0","https://app.prolific.com/","en-US,en;q=0.9","664b3888f484550fe6d377bc","683db9eb0562dbf637994deb","6880819119029f14f3303e10","2","1","664b3888f484550fe6d377bc","2","1","2025-07-23T06:38:58.507Z","","","","","","","","","","","MotivationQ","","50","","","","","","","","","","","","","","","","","","","","","","","","","","","","",""
"","","","","ctl-task-cpt","44","501896","0.0-5.0-0.7","145","1","2025-07-23 06:31:16","1f75c3e559b7213887762d5229550c2b","122.164.236.240","Mozilla/5.0 (Windows NT 10.0; Win64; x64) AppleWebKit/537.36 (KHTML, like Gecko) Chrome/137.0.0.0 Safari/537.36","WebKit","Chrome","137.0.0.0","Windows","10.0","https://app.prolific.com/","en-US,en;q=0.9","664b3888f484550fe6d377bc","683db9eb0562dbf637994deb","6880819119029f14f3303e10","2","1","664b3888f484550fe6d377bc","2","1","2025-07-23T06:39:40.357Z","","","","","","","","","","","","","","win-only","0","g1:NW,g2:SE","0.3","8","0","464396.7","1127","6127.9","38831.2","1","4","8","6","2","-8","-8","15","23","0.11363636363636363","968.3","3000","-2995","[""down"",""right""]","{""num_key_presses"":9,""num_perfect"":2,""num_errors"":0,""num_randdir"":7,""num_randdir_good_moves"":3,""num_whilered"":0,""num_whileblue"":0,""num_blue"":2,""num_good_moves"":5}","[416.5714133126395,419.07142761775424,0.2,416.5714133126395,419.07142761775424,109.7,416.5714133126395,419.07142761775424,210.7,416.5714133126395,419.07142761775424,311,416.5714133126395,419.07142761775424,414.8,481.5714133126395,485.32142761775424,516.4,620.3214133126395,677.8214276177542,616.5,635.3214133126395,714.0714276177542,719.9,699.0714133126395,767.8214276177542,820.3,747.8214133126395,780.3214276177542,925.6,747.8214133126395,780.3214276177542,1025.7,747.8214133126395,780.3214276177542,1130.7,747.8214133126395,780.3214276177542,1231.2,747.8214133126395,780.3214276177542,1334.6,747.8214133126395,780.3214276177542,1440.6,747.8214133126395,780.3214276177542,1546.4,747.8214133126395,780.3214276177542,1649.2,747.8214133126395,780.3214276177542,1750.1,747.8214133126395,780.3214276177542,1850.3,747.8214133126395,780.3214276177542,1953.8,747.8214133126395,780.3214276177542,2054.5,747.8214133126395,780.3214276177542,2161.6,747.8214133126395,780.3214276177542,2263.7,747.8214133126395,780.3214276177542,2364.4,747.8214133126395,780.3214276177542,2465.4,747.8214133126395,780.3214276177542,2569.5,747.8214133126395,780.3214276177542,2670.2,747.8214133126395,780.3214276177542,2776.6,747.8214133126395,780.3214276177542,2877.2,747.8214133126395,780.3214276177542,2979.8,747.8214133126395,780.3214276177542,3084.1,747.8214133126395,780.3214276177542,3190.1,747.8214133126395,780.3214276177542,3291.1,747.8214133126395,780.3214276177542,3395.2,747.8214133126395,780.3214276177542,3500,747.8214133126395,780.3214276177542,3605.2,747.8214133126395,780.3214276177542,3705.2,747.8214133126395,780.3214276177542,3805.2,747.8214133126395,780.3214276177542,3905.3,747.8214133126395,780.3214276177542,4005.4,747.8214133126395,780.3214276177542,4105.7,747.8214133126395,780.3214276177542,4209.9,747.8214133126395,780.3214276177542,4311,747.8214133126395,780.3214276177542,4414,747.8214133126395,780.3214276177542,4514.3,747.8214133126395,780.3214276177542,4614.4,747.8214133126395,780.3214276177542,4720,747.8214133126395,780.3214276177542,4820.9,747.8214133126395,780.3214276177542,4925.3]","[1363.2,1363.2,1000,0,363.2,""oops"",""right"",""left"",""bad_move"",3637.3,2273.8,1890.3,1363.5,383.5,""oops"",""down"",""left"",""bad_move"",6277,2639.5,2304.8,3637.5,334.7,""oops"",""down"",""down"",""good_move"",9152.5,2875.3,2542.9,6277.2,332.4,""smooth"",""down"",""down"",""good_move"",12170.6,3018,2673.1,9152.6,344.9,""oops"",""right"",""up"",""bad_move"",15226.6,3055.7,2723.5,12170.9,332.2,""oops"",""down"",""down"",""good_move"",17930,2703.1,2358.1,15226.9,345,""oops"",""down"",""down"",""good_move"",19791.2,1860.9,1623.1,17930.3,237.8,""smooth"",""right"",""right"",""good_move"",26965.2,7173.8,2979.6,23643.3,342.3,""oops"",""right"",""left"",""bad_move""]","",""
"2125","","<div style=""width:500px;"">
  <p>What determined the result of this run?</p>
  </div>","20","html-slider-response","45","504022","0.0-5.0-1.7","145","1","2025-07-23 06:31:16","1f75c3e559b7213887762d5229550c2b","122.164.236.240","Mozilla/5.0 (Windows NT 10.0; Win64; x64) AppleWebKit/537.36 (KHTML, like Gecko) Chrome/137.0.0.0 Safari/537.36","WebKit","Chrome","137.0.0.0","Windows","10.0","https://app.prolific.com/","en-US,en;q=0.9","664b3888f484550fe6d377bc","683db9eb0562dbf637994deb","6880819119029f14f3303e10","2","1","664b3888f484550fe6d377bc","2","1","2025-07-23T06:39:42.483Z","","","","","","","","","","","AttribQ","","50","","","","","","","","","","","","","","","","","","","","","","","","","","","","",""
"1663","","<div style=""width:500px;"">
  <p>How much control did you have over the ball?</p>
  </div>","12","html-slider-response","46","505686","0.0-5.0-2.7","145","1","2025-07-23 06:31:16","1f75c3e559b7213887762d5229550c2b","122.164.236.240","Mozilla/5.0 (Windows NT 10.0; Win64; x64) AppleWebKit/537.36 (KHTML, like Gecko) Chrome/137.0.0.0 Safari/537.36","WebKit","Chrome","137.0.0.0","Windows","10.0","https://app.prolific.com/","en-US,en;q=0.9","664b3888f484550fe6d377bc","683db9eb0562dbf637994deb","6880819119029f14f3303e10","2","1","664b3888f484550fe6d377bc","2","1","2025-07-23T06:39:44.147Z","","","","","","","","","","","ControlQ","","50","","","","","","","","","","","","","","","","","","","","","","","","","","","","",""
"1518","","<div style=""width:500px;"">
  <p>How would you describe your current emotional state?</p>
  </div>","18","html-slider-response","47","507205","0.0-5.0-3.7","145","1","2025-07-23 06:31:16","1f75c3e559b7213887762d5229550c2b","122.164.236.240","Mozilla/5.0 (Windows NT 10.0; Win64; x64) AppleWebKit/537.36 (KHTML, like Gecko) Chrome/137.0.0.0 Safari/537.36","WebKit","Chrome","137.0.0.0","Windows","10.0","https://app.prolific.com/","en-US,en;q=0.9","664b3888f484550fe6d377bc","683db9eb0562dbf637994deb","6880819119029f14f3303e10","2","1","664b3888f484550fe6d377bc","2","1","2025-07-23T06:39:45.666Z","","","","","","","","","","","StressQ","","50","","","","","","","","","","","","","","","","","","","","","","","","","","","","",""
"2407","","<div style=""width:500px;"">
  <p>What best describes how you currently feel?</p>
  </div>","68","html-slider-response","48","509613","0.0-5.0-4.7","145","1","2025-07-23 06:31:16","1f75c3e559b7213887762d5229550c2b","122.164.236.240","Mozilla/5.0 (Windows NT 10.0; Win64; x64) AppleWebKit/537.36 (KHTML, like Gecko) Chrome/137.0.0.0 Safari/537.36","WebKit","Chrome","137.0.0.0","Windows","10.0","https://app.prolific.com/","en-US,en;q=0.9","664b3888f484550fe6d377bc","683db9eb0562dbf637994deb","6880819119029f14f3303e10","2","1","664b3888f484550fe6d377bc","2","1","2025-07-23T06:39:48.074Z","","","","","","","","","","","MotivationQ","","50","","","","","","","","","","","","","","","","","","","","","","","","","","","","",""
"","","","","ctl-task-cpt","49","547707","0.0-5.0-0.8","145","1","2025-07-23 06:31:16","1f75c3e559b7213887762d5229550c2b","122.164.236.240","Mozilla/5.0 (Windows NT 10.0; Win64; x64) AppleWebKit/537.36 (KHTML, like Gecko) Chrome/137.0.0.0 Safari/537.36","WebKit","Chrome","137.0.0.0","Windows","10.0","https://app.prolific.com/","en-US,en;q=0.9","664b3888f484550fe6d377bc","683db9eb0562dbf637994deb","6880819119029f14f3303e10","2","1","664b3888f484550fe6d377bc","2","1","2025-07-23T06:40:26.168Z","","","","","","","","","","","","","","win-only","0","g1:NW,g2:SE","0.2","9","0","513964.1","983.3","5984.6","35072.3","1","4","8","6","2","-8","-9","6","15","0.045454545454545456","967.9","3000","-2985","[""down"",""right""]","{""num_key_presses"":8,""num_perfect"":2,""num_errors"":1,""num_randdir"":5,""num_randdir_good_moves"":2,""num_whilered"":0,""num_whileblue"":1,""num_blue"":2,""num_good_moves"":4}","[412.8214133126395,420.32142761775424,0.1,412.8214133126395,420.32142761775424,106.2,412.8214133126395,420.32142761775424,211.1,244.0714133126395,297.82142761775424,314.5,191.5714133126395,251.57142761775424,418.1,386.5714133126395,430.32142761775424,518.1,617.8214133126395,711.5714276177542,618.6,700.3214133126395,766.5714276177542,718.8,701.5714133126395,766.5714276177542,824.4,724.0714133126395,770.3214276177542,924.4,724.0714133126395,770.3214276177542,1024.9,724.0714133126395,770.3214276177542,1128.7,724.0714133126395,770.3214276177542,1233.1,724.0714133126395,770.3214276177542,1338.4,724.0714133126395,770.3214276177542,1439.4,724.0714133126395,770.3214276177542,1543.3,724.0714133126395,770.3214276177542,1644.8,724.0714133126395,770.3214276177542,1748.2,724.0714133126395,770.3214276177542,1853.9,724.0714133126395,770.3214276177542,1962.2,724.0714133126395,770.3214276177542,2064.4,724.0714133126395,770.3214276177542,2168.8,724.0714133126395,770.3214276177542,2269.8,724.0714133126395,770.3214276177542,2374.9,724.0714133126395,770.3214276177542,2475.2,724.0714133126395,770.3214276177542,2579.4,724.0714133126395,770.3214276177542,2680.4,724.0714133126395,770.3214276177542,2783.5,724.0714133126395,770.3214276177542,2892.3,724.0714133126395,770.3214276177542,2995.7,724.0714133126395,770.3214276177542,3098.6,724.0714133126395,770.3214276177542,3198.6,724.0714133126395,770.3214276177542,3299.4,724.0714133126395,770.3214276177542,3406.1,724.0714133126395,770.3214276177542,3507.1,724.0714133126395,770.3214276177542,3613.2,724.0714133126395,770.3214276177542,3713.4,724.0714133126395,770.3214276177542,3814.2,724.0714133126395,770.3214276177542,3919.4,724.0714133126395,770.3214276177542,4023.6,724.0714133126395,770.3214276177542,4128.6,724.0714133126395,770.3214276177542,4235.1,724.0714133126395,770.3214276177542,4335.4,724.0714133126395,770.3214276177542,4435.7,724.0714133126395,770.3214276177542,4537.9,724.0714133126395,770.3214276177542,4641,724.0714133126395,770.3214276177542,4741.3,724.0714133126395,770.3214276177542,4842,724.0714133126395,770.3214276177542,4948.1]","[4338.4,4338.4,1922.2,2008.2,408,""oops"",""right"",""up"",""bad_move"",8000.8,3662.2,3300.3,4338.6,361.9,""oops"",""right"",""down"",""good_move"",10873.3,2872.2,2487.9,8001.1,384.3,""oops"",""down"",""up"",""bad_move"",13550.5,2677,2334.1,10873.5,342.9,""smooth"",""right"",""right"",""good_move"",16601.3,3050.5,2702.3,13550.8,348.2,""while_blue"",""down"",""left"",""bad_move"",19514.4,2912.5,2493.2,16601.9,419.3,""oops"",""right"",""up"",""bad_move"",22456.9,2942.3,2473.6,19514.6,468.7,""oops"",""left"",""right"",""good_move"",25966.3,3509.1,3102.8,22457.2,406.3,""smooth"",""down"",""down"",""good_move""]","",""
"2353","","<div style=""width:500px;"">
  <p>What determined the result of this run?</p>
  </div>","5","html-slider-response","50","550061","0.0-5.0-1.8","145","1","2025-07-23 06:31:16","1f75c3e559b7213887762d5229550c2b","122.164.236.240","Mozilla/5.0 (Windows NT 10.0; Win64; x64) AppleWebKit/537.36 (KHTML, like Gecko) Chrome/137.0.0.0 Safari/537.36","WebKit","Chrome","137.0.0.0","Windows","10.0","https://app.prolific.com/","en-US,en;q=0.9","664b3888f484550fe6d377bc","683db9eb0562dbf637994deb","6880819119029f14f3303e10","2","1","664b3888f484550fe6d377bc","2","1","2025-07-23T06:40:28.522Z","","","","","","","","","","","AttribQ","","50","","","","","","","","","","","","","","","","","","","","","","","","","","","","",""
"2031","","<div style=""width:500px;"">
  <p>How much control did you have over the ball?</p>
  </div>","2","html-slider-response","51","552093","0.0-5.0-2.8","145","1","2025-07-23 06:31:16","1f75c3e559b7213887762d5229550c2b","122.164.236.240","Mozilla/5.0 (Windows NT 10.0; Win64; x64) AppleWebKit/537.36 (KHTML, like Gecko) Chrome/137.0.0.0 Safari/537.36","WebKit","Chrome","137.0.0.0","Windows","10.0","https://app.prolific.com/","en-US,en;q=0.9","664b3888f484550fe6d377bc","683db9eb0562dbf637994deb","6880819119029f14f3303e10","2","1","664b3888f484550fe6d377bc","2","1","2025-07-23T06:40:30.554Z","","","","","","","","","","","ControlQ","","50","","","","","","","","","","","","","","","","","","","","","","","","","","","","",""
"4304","","<div style=""width:500px;"">
  <p>How would you describe your current emotional state?</p>
  </div>","38","html-slider-response","52","556398","0.0-5.0-3.8","145","1","2025-07-23 06:31:16","1f75c3e559b7213887762d5229550c2b","122.164.236.240","Mozilla/5.0 (Windows NT 10.0; Win64; x64) AppleWebKit/537.36 (KHTML, like Gecko) Chrome/137.0.0.0 Safari/537.36","WebKit","Chrome","137.0.0.0","Windows","10.0","https://app.prolific.com/","en-US,en;q=0.9","664b3888f484550fe6d377bc","683db9eb0562dbf637994deb","6880819119029f14f3303e10","2","1","664b3888f484550fe6d377bc","2","1","2025-07-23T06:40:34.859Z","","","","","","","","","","","StressQ","","50","","","","","","","","","","","","","","","","","","","","","","","","","","","","",""
"2158","","<div style=""width:500px;"">
  <p>What best describes how you currently feel?</p>
  </div>","72","html-slider-response","53","558557","0.0-5.0-4.8","145","1","2025-07-23 06:31:16","1f75c3e559b7213887762d5229550c2b","122.164.236.240","Mozilla/5.0 (Windows NT 10.0; Win64; x64) AppleWebKit/537.36 (KHTML, like Gecko) Chrome/137.0.0.0 Safari/537.36","WebKit","Chrome","137.0.0.0","Windows","10.0","https://app.prolific.com/","en-US,en;q=0.9","664b3888f484550fe6d377bc","683db9eb0562dbf637994deb","6880819119029f14f3303e10","2","1","664b3888f484550fe6d377bc","2","1","2025-07-23T06:40:37.019Z","","","","","","","","","","","MotivationQ","","50","","","","","","","","","","","","","","","","","","","","","","","","","","","","",""
"","","","","ctl-task-cpt","54","594475","0.0-5.0-0.9","145","1","2025-07-23 06:31:16","1f75c3e559b7213887762d5229550c2b","122.164.236.240","Mozilla/5.0 (Windows NT 10.0; Win64; x64) AppleWebKit/537.36 (KHTML, like Gecko) Chrome/137.0.0.0 Safari/537.36","WebKit","Chrome","137.0.0.0","Windows","10.0","https://app.prolific.com/","en-US,en;q=0.9","664b3888f484550fe6d377bc","683db9eb0562dbf637994deb","6880819119029f14f3303e10","2","1","664b3888f484550fe6d377bc","2","1","2025-07-23T06:41:12.936Z","","","","","","","","","","","","","","win-only","2","g1:SE,g2:NW","0.4","10","0","562908.4","790.9","5791.4","32896.2","1","4","4","6","2","-4","-4","2","6","0.015151515151515152","1047.9","3000","-2940","[""left"",""up""]","{""num_key_presses"":8,""num_perfect"":2,""num_errors"":0,""num_randdir"":6,""num_randdir_good_moves"":2,""num_whilered"":0,""num_whileblue"":0,""num_blue"":1,""num_good_moves"":4}","[415.3214133126395,427.82142761775424,0.2,415.3214133126395,427.82142761775424,100.9,415.3214133126395,427.82142761775424,201.1,506.5714133126395,504.07142761775424,301.2,562.8214133126395,586.5714276177542,407.2,577.8214133126395,621.5714276177542,512.5,339.0714133126395,357.82142761775424,613.4,251.5714133126395,269.07142761775424,716.2,179.0714133126395,194.07142761775424,816.2,120.3214133126395,119.07142761775425,916.5,117.8214133126395,117.82142761775425,1020.9,117.8214133126395,117.82142761775425,1127.2,117.8214133126395,117.82142761775425,1231.5,117.8214133126395,117.82142761775425,1334.8,117.8214133126395,117.82142761775425,1437,117.8214133126395,117.82142761775425,1542,117.8214133126395,117.82142761775425,1643.3,117.8214133126395,117.82142761775425,1743.6,117.8214133126395,117.82142761775425,1847.8,117.8214133126395,117.82142761775425,1949.4,117.8214133126395,117.82142761775425,2050.6,117.8214133126395,117.82142761775425,2154.3,117.8214133126395,117.82142761775425,2256.7,117.8214133126395,117.82142761775425,2362.5,117.8214133126395,117.82142761775425,2462.5,117.8214133126395,117.82142761775425,2566.6,117.8214133126395,117.82142761775425,2670.3,117.8214133126395,117.82142761775425,2776.2,117.8214133126395,117.82142761775425,2878,117.8214133126395,117.82142761775425,2980.3,117.8214133126395,117.82142761775425,3081.9,117.8214133126395,117.82142761775425,3185,117.8214133126395,117.82142761775425,3287.4,117.8214133126395,117.82142761775425,3393,117.8214133126395,117.82142761775425,3493.5,117.8214133126395,117.82142761775425,3594.1,117.8214133126395,117.82142761775425,3696.6,117.8214133126395,117.82142761775425,3800.6,117.8214133126395,117.82142761775425,3907.5,117.8214133126395,117.82142761775425,4007.9,117.8214133126395,117.82142761775425,4113.7,117.8214133126395,117.82142761775425,4216.2,117.8214133126395,117.82142761775425,4321.1,117.8214133126395,117.82142761775425,4427.8,117.8214133126395,117.82142761775425,4529.5,117.8214133126395,117.82142761775425,4631.8,117.8214133126395,117.82142761775425,4732.3,117.8214133126395,117.82142761775425,4837.4,117.8214133126395,117.82142761775425,4937.9]","[1402.2,1402.2,1000,0,402.2,""smooth"",""left"",""left"",""good_move"",4178.7,2776.2,2440.7,1402.5,335.5,""oops"",""left"",""left"",""good_move"",7446.3,3267.3,2865.6,4179,401.7,""oops"",""left"",""down"",""bad_move"",10167.7,2721.1,2358.8,7446.6,362.3,""oops"",""left"",""right"",""bad_move"",13142,2974,2603.4,10168,370.6,""oops"",""up"",""down"",""bad_move"",16175.4,3033.2,2692.4,13142.2,340.8,""oops"",""left"",""up"",""good_move"",18603.1,2427.3,2091.1,16175.8,336.2,""smooth"",""left"",""left"",""good_move"",24385.1,5781.7,1960.9,22015.6,408.6,""oops"",""left"",""down"",""bad_move""]","",""
"3449","","<div style=""width:500px;"">
  <p>What determined the result of this run?</p>
  </div>","0","html-slider-response","55","597925","0.0-5.0-1.9","145","1","2025-07-23 06:31:16","1f75c3e559b7213887762d5229550c2b","122.164.236.240","Mozilla/5.0 (Windows NT 10.0; Win64; x64) AppleWebKit/537.36 (KHTML, like Gecko) Chrome/137.0.0.0 Safari/537.36","WebKit","Chrome","137.0.0.0","Windows","10.0","https://app.prolific.com/","en-US,en;q=0.9","664b3888f484550fe6d377bc","683db9eb0562dbf637994deb","6880819119029f14f3303e10","2","1","664b3888f484550fe6d377bc","2","1","2025-07-23T06:41:16.386Z","","","","","","","","","","","AttribQ","","50","","","","","","","","","","","","","","","","","","","","","","","","","","","","",""
"2151","","<div style=""width:500px;"">
  <p>How much control did you have over the ball?</p>
  </div>","1","html-slider-response","56","600077","0.0-5.0-2.9","145","1","2025-07-23 06:31:16","1f75c3e559b7213887762d5229550c2b","122.164.236.240","Mozilla/5.0 (Windows NT 10.0; Win64; x64) AppleWebKit/537.36 (KHTML, like Gecko) Chrome/137.0.0.0 Safari/537.36","WebKit","Chrome","137.0.0.0","Windows","10.0","https://app.prolific.com/","en-US,en;q=0.9","664b3888f484550fe6d377bc","683db9eb0562dbf637994deb","6880819119029f14f3303e10","2","1","664b3888f484550fe6d377bc","2","1","2025-07-23T06:41:18.538Z","","","","","","","","","","","ControlQ","","50","","","","","","","","","","","","","","","","","","","","","","","","","","","","",""
"4023","","<div style=""width:500px;"">
  <p>How would you describe your current emotional state?</p>
  </div>","39","html-slider-response","57","604101","0.0-5.0-3.9","145","1","2025-07-23 06:31:16","1f75c3e559b7213887762d5229550c2b","122.164.236.240","Mozilla/5.0 (Windows NT 10.0; Win64; x64) AppleWebKit/537.36 (KHTML, like Gecko) Chrome/137.0.0.0 Safari/537.36","WebKit","Chrome","137.0.0.0","Windows","10.0","https://app.prolific.com/","en-US,en;q=0.9","664b3888f484550fe6d377bc","683db9eb0562dbf637994deb","6880819119029f14f3303e10","2","1","664b3888f484550fe6d377bc","2","1","2025-07-23T06:41:22.562Z","","","","","","","","","","","StressQ","","50","","","","","","","","","","","","","","","","","","","","","","","","","","","","",""
"2607","","<div style=""width:500px;"">
  <p>What best describes how you currently feel?</p>
  </div>","73","html-slider-response","58","606709","0.0-5.0-4.9","145","1","2025-07-23 06:31:16","1f75c3e559b7213887762d5229550c2b","122.164.236.240","Mozilla/5.0 (Windows NT 10.0; Win64; x64) AppleWebKit/537.36 (KHTML, like Gecko) Chrome/137.0.0.0 Safari/537.36","WebKit","Chrome","137.0.0.0","Windows","10.0","https://app.prolific.com/","en-US,en;q=0.9","664b3888f484550fe6d377bc","683db9eb0562dbf637994deb","6880819119029f14f3303e10","2","1","664b3888f484550fe6d377bc","2","1","2025-07-23T06:41:25.170Z","","","","","","","","","","","MotivationQ","","50","","","","","","","","","","","","","","","","","","","","","","","","","","","","",""
"","","","","ctl-task-cpt","59","644838","0.0-5.0-0.10","145","1","2025-07-23 06:31:16","1f75c3e559b7213887762d5229550c2b","122.164.236.240","Mozilla/5.0 (Windows NT 10.0; Win64; x64) AppleWebKit/537.36 (KHTML, like Gecko) Chrome/137.0.0.0 Safari/537.36","WebKit","Chrome","137.0.0.0","Windows","10.0","https://app.prolific.com/","en-US,en;q=0.9","664b3888f484550fe6d377bc","683db9eb0562dbf637994deb","6880819119029f14f3303e10","2","1","664b3888f484550fe6d377bc","2","1","2025-07-23T06:42:03.299Z","","","","","","","","","","","","","","win-only","3","g1:SW,g2:NE","0.5","11","0","611060.1","1743.2","6750.8","35108.7","1","4","8","6","2","8","8","10","2","0.07575757575757576","696","3000","1325","[""up"",""right""]","{""num_key_presses"":8,""num_perfect"":4,""num_errors"":0,""num_randdir"":4,""num_randdir_good_moves"":3,""num_whilered"":0,""num_whileblue"":0,""num_blue"":2,""num_good_moves"":7}","[425.3214133126395,425.32142761775424,0.2,425.3214133126395,425.32142761775424,100.2,425.3214133126395,425.32142761775424,201.5,432.8214133126395,417.82142761775424,307.1,681.5714133126395,170.32142761775424,414.7,684.0714133126395,154.07142761775424,514.7,701.5714133126395,102.82142761775425,619.8,701.5714133126395,102.82142761775425,728.7,701.5714133126395,102.82142761775425,829.9,701.5714133126395,102.82142761775425,934,701.5714133126395,102.82142761775425,1035,701.5714133126395,102.82142761775425,1140.6,701.5714133126395,102.82142761775425,1243.7,701.5714133126395,102.82142761775425,1345.2,701.5714133126395,102.82142761775425,1445.6,701.5714133126395,102.82142761775425,1548.6,701.5714133126395,102.82142761775425,1654.6,701.5714133126395,102.82142761775425,1762.2,701.5714133126395,102.82142761775425,1864.5,701.5714133126395,102.82142761775425,1967.9,701.5714133126395,102.82142761775425,2068.2,701.5714133126395,102.82142761775425,2170.5,701.5714133126395,102.82142761775425,2272.2,701.5714133126395,102.82142761775425,2372.2,701.5714133126395,102.82142761775425,2479,701.5714133126395,102.82142761775425,2584.5,701.5714133126395,102.82142761775425,2685.6,701.5714133126395,102.82142761775425,2787.3,701.5714133126395,102.82142761775425,2891.5,701.5714133126395,102.82142761775425,2994.2,701.5714133126395,102.82142761775425,3098.6,701.5714133126395,102.82142761775425,3201.1,701.5714133126395,102.82142761775425,3301.3,701.5714133126395,102.82142761775425,3409.6,701.5714133126395,102.82142761775425,3513.8,701.5714133126395,102.82142761775425,3614.7,701.5714133126395,102.82142761775425,3722.4,701.5714133126395,102.82142761775425,3829.4,701.5714133126395,102.82142761775425,3933.3,701.5714133126395,102.82142761775425,4034.6,701.5714133126395,102.82142761775425,4135.7,701.5714133126395,102.82142761775425,4240.9,701.5714133126395,102.82142761775425,4347,701.5714133126395,102.82142761775425,4450.3,701.5714133126395,102.82142761775425,4557.3,701.5714133126395,102.82142761775425,4662.4,701.5714133126395,102.82142761775425,4763.2,701.5714133126395,102.82142761775425,4870,701.5714133126395,102.82142761775425,4979.3]","[1447.8,1447.8,1000,0,447.8,""smooth"",""up"",""up"",""good_move"",4113.8,2665.6,2294.4,1448.2,371.2,""oops"",""up"",""up"",""good_move"",6839.9,2725.8,2372.7,4114.1,353.1,""smooth"",""right"",""right"",""good_move"",16377.2,9537,2821.4,13164.1,391.7,""oops"",""up"",""down"",""bad_move"",19483.3,3105.8,2530.9,16377.5,574.9,""smooth"",""right"",""right"",""good_move"",22255.3,2771.8,2351.6,19483.5,420.2,""oops"",""up"",""up"",""good_move"",24774.1,2518.5,1854.1,22255.6,664.4,""smooth"",""up"",""up"",""good_move"",28191.1,3416.9,3045.9,24774.2,371,""oops"",""right"",""right"",""good_move""]","",""
"2238","","<div style=""width:500px;"">
  <p>What determined the result of this run?</p>
  </div>","60","html-slider-response","60","647077","0.0-5.0-1.10","145","1","2025-07-23 06:31:16","1f75c3e559b7213887762d5229550c2b","122.164.236.240","Mozilla/5.0 (Windows NT 10.0; Win64; x64) AppleWebKit/537.36 (KHTML, like Gecko) Chrome/137.0.0.0 Safari/537.36","WebKit","Chrome","137.0.0.0","Windows","10.0","https://app.prolific.com/","en-US,en;q=0.9","664b3888f484550fe6d377bc","683db9eb0562dbf637994deb","6880819119029f14f3303e10","2","1","664b3888f484550fe6d377bc","2","1","2025-07-23T06:42:05.538Z","","","","","","","","","","","AttribQ","","50","","","","","","","","","","","","","","","","","","","","","","","","","","","","",""
"2367","","<div style=""width:500px;"">
  <p>How much control did you have over the ball?</p>
  </div>","58","html-slider-response","61","649445","0.0-5.0-2.10","145","1","2025-07-23 06:31:16","1f75c3e559b7213887762d5229550c2b","122.164.236.240","Mozilla/5.0 (Windows NT 10.0; Win64; x64) AppleWebKit/537.36 (KHTML, like Gecko) Chrome/137.0.0.0 Safari/537.36","WebKit","Chrome","137.0.0.0","Windows","10.0","https://app.prolific.com/","en-US,en;q=0.9","664b3888f484550fe6d377bc","683db9eb0562dbf637994deb","6880819119029f14f3303e10","2","1","664b3888f484550fe6d377bc","2","1","2025-07-23T06:42:07.906Z","","","","","","","","","","","ControlQ","","50","","","","","","","","","","","","","","","","","","","","","","","","","","","","",""
"2103","","<div style=""width:500px;"">
  <p>How would you describe your current emotional state?</p>
  </div>","41","html-slider-response","62","651549","0.0-5.0-3.10","145","1","2025-07-23 06:31:16","1f75c3e559b7213887762d5229550c2b","122.164.236.240","Mozilla/5.0 (Windows NT 10.0; Win64; x64) AppleWebKit/537.36 (KHTML, like Gecko) Chrome/137.0.0.0 Safari/537.36","WebKit","Chrome","137.0.0.0","Windows","10.0","https://app.prolific.com/","en-US,en;q=0.9","664b3888f484550fe6d377bc","683db9eb0562dbf637994deb","6880819119029f14f3303e10","2","1","664b3888f484550fe6d377bc","2","1","2025-07-23T06:42:10.010Z","","","","","","","","","","","StressQ","","50","","","","","","","","","","","","","","","","","","","","","","","","","","","","",""
"1615","","<div style=""width:500px;"">
  <p>What best describes how you currently feel?</p>
  </div>","63","html-slider-response","63","653165","0.0-5.0-4.10","145","1","2025-07-23 06:31:16","1f75c3e559b7213887762d5229550c2b","122.164.236.240","Mozilla/5.0 (Windows NT 10.0; Win64; x64) AppleWebKit/537.36 (KHTML, like Gecko) Chrome/137.0.0.0 Safari/537.36","WebKit","Chrome","137.0.0.0","Windows","10.0","https://app.prolific.com/","en-US,en;q=0.9","664b3888f484550fe6d377bc","683db9eb0562dbf637994deb","6880819119029f14f3303e10","2","1","664b3888f484550fe6d377bc","2","1","2025-07-23T06:42:11.626Z","","","","","","","","","","","MotivationQ","","50","","","","","","","","","","","","","","","","","","","","","","","","","","","","",""
"","","","","ctl-task-cpt","64","712261","0.0-5.0-0.11","145","1","2025-07-23 06:31:16","1f75c3e559b7213887762d5229550c2b","122.164.236.240","Mozilla/5.0 (Windows NT 10.0; Win64; x64) AppleWebKit/537.36 (KHTML, like Gecko) Chrome/137.0.0.0 Safari/537.36","WebKit","Chrome","137.0.0.0","Windows","10.0","https://app.prolific.com/","en-US,en;q=0.9","664b3888f484550fe6d377bc","683db9eb0562dbf637994deb","6880819119029f14f3303e10","2","1","664b3888f484550fe6d377bc","2","1","2025-07-23T06:43:10.722Z","","","","","","","","","","","","","","win-only","2","g1:SE,g2:NW","0.6","12","0","657516.6","838.6","5842.9","56071.5","1","4","4","6","2","4","4","14","10","0.10606060606060606","711.6","3000","840","[""left"",""up""]","{""num_key_presses"":12,""num_perfect"":8,""num_errors"":0,""num_randdir"":4,""num_randdir_good_moves"":2,""num_whilered"":0,""num_whileblue"":0,""num_blue"":5,""num_good_moves"":9}","[409.0714133126395,427.82142761775424,0.3,409.0714133126395,427.82142761775424,100.9,396.5714133126395,417.82142761775424,202.4,380.3214133126395,397.82142761775424,304,116.5714133126395,54.07142761775425,409.6,90.3214133126395,16.571427617754253,510.1,90.3214133126395,42.82142761775425,610.8,91.5714133126395,74.07142761775425,720.1,91.5714133126395,74.07142761775425,831.9,91.5714133126395,74.07142761775425,933.3,95.3214133126395,74.07142761775425,1035.5,95.3214133126395,74.07142761775425,1135.9,95.3214133126395,74.07142761775425,1240.7,95.3214133126395,74.07142761775425,1344.8,95.3214133126395,74.07142761775425,1451.6,95.3214133126395,74.07142761775425,1556.5,95.3214133126395,74.07142761775425,1661.1,95.3214133126395,74.07142761775425,1767.1,95.3214133126395,74.07142761775425,1873.5,95.3214133126395,74.07142761775425,1973.9,95.3214133126395,74.07142761775425,2081,95.3214133126395,74.07142761775425,2182.7,95.3214133126395,74.07142761775425,2287.6,95.3214133126395,74.07142761775425,2388,95.3214133126395,74.07142761775425,2488.5,95.3214133126395,74.07142761775425,2591.1,95.3214133126395,74.07142761775425,2696.8,95.3214133126395,74.07142761775425,2802.3,95.3214133126395,74.07142761775425,2904.3,95.3214133126395,74.07142761775425,3008.5,95.3214133126395,74.07142761775425,3116,95.3214133126395,74.07142761775425,3220.2,95.3214133126395,74.07142761775425,3320.9,95.3214133126395,74.07142761775425,3421.7,95.3214133126395,74.07142761775425,3532.8,95.3214133126395,74.07142761775425,3636.3,95.3214133126395,74.07142761775425,3741.7,95.3214133126395,74.07142761775425,3849.4,95.3214133126395,74.07142761775425,3949.8,95.3214133126395,74.07142761775425,4053,95.3214133126395,74.07142761775425,4156.5,95.3214133126395,74.07142761775425,4260.3,95.3214133126395,74.07142761775425,4366.8,95.3214133126395,74.07142761775425,4469.4,95.3214133126395,74.07142761775425,4569.5,95.3214133126395,74.07142761775425,4669.7,95.3214133126395,74.07142761775425,4770.7,95.3214133126395,74.07142761775425,4876.1,95.3214133126395,74.07142761775425,4982]","[1487.9,1487.9,1000,0,487.9,""smooth"",""left"",""left"",""good_move"",3659.6,2171.5,1781.7,1488.1,389.8,""oops"",""left"",""up"",""good_move"",5939,2279.2,1781.3,3659.8,497.9,""smooth"",""left"",""left"",""good_move"",9373,3433.9,3042.9,5939.1,391,""oops"",""left"",""up"",""good_move"",12254.4,2881.2,1998.4,9373.2,882.8,""smooth"",""left"",""left"",""good_move"",18394.2,6139.6,2033.4,15940.9,419.9,""smooth"",""left"",""down"",""bad_move"",21455.5,3061.2,2537.4,18394.3,523.8,""oops"",""up"",""down"",""bad_move"",24211,2755.2,2223,21455.8,532.2,""smooth"",""up"",""up"",""good_move"",27566.5,3355.3,2942,24211.2,413.3,""smooth"",""up"",""up"",""good_move"",30860.8,3294.3,2910.4,27566.6,383.9,""oops"",""up"",""down"",""bad_move"",40258,9396.8,2803.2,37067.4,387.4,""smooth"",""up"",""up"",""good_move"",49889.1,9630.8,2601.8,46913.1,374.2,""smooth"",""up"",""up"",""good_move""]","",""
"2423","","<div style=""width:500px;"">
  <p>What determined the result of this run?</p>
  </div>","34","html-slider-response","65","714685","0.0-5.0-1.11","145","1","2025-07-23 06:31:16","1f75c3e559b7213887762d5229550c2b","122.164.236.240","Mozilla/5.0 (Windows NT 10.0; Win64; x64) AppleWebKit/537.36 (KHTML, like Gecko) Chrome/137.0.0.0 Safari/537.36","WebKit","Chrome","137.0.0.0","Windows","10.0","https://app.prolific.com/","en-US,en;q=0.9","664b3888f484550fe6d377bc","683db9eb0562dbf637994deb","6880819119029f14f3303e10","2","1","664b3888f484550fe6d377bc","2","1","2025-07-23T06:43:13.146Z","","","","","","","","","","","AttribQ","","50","","","","","","","","","","","","","","","","","","","","","","","","","","","","",""
"2262","","<div style=""width:500px;"">
  <p>How much control did you have over the ball?</p>
  </div>","38","html-slider-response","66","716949","0.0-5.0-2.11","145","1","2025-07-23 06:31:16","1f75c3e559b7213887762d5229550c2b","122.164.236.240","Mozilla/5.0 (Windows NT 10.0; Win64; x64) AppleWebKit/537.36 (KHTML, like Gecko) Chrome/137.0.0.0 Safari/537.36","WebKit","Chrome","137.0.0.0","Windows","10.0","https://app.prolific.com/","en-US,en;q=0.9","664b3888f484550fe6d377bc","683db9eb0562dbf637994deb","6880819119029f14f3303e10","2","1","664b3888f484550fe6d377bc","2","1","2025-07-23T06:43:15.410Z","","","","","","","","","","","ControlQ","","50","","","","","","","","","","","","","","","","","","","","","","","","","","","","",""
"3862","","<div style=""width:500px;"">
  <p>How would you describe your current emotional state?</p>
  </div>","36","html-slider-response","67","720812","0.0-5.0-3.11","145","1","2025-07-23 06:31:16","1f75c3e559b7213887762d5229550c2b","122.164.236.240","Mozilla/5.0 (Windows NT 10.0; Win64; x64) AppleWebKit/537.36 (KHTML, like Gecko) Chrome/137.0.0.0 Safari/537.36","WebKit","Chrome","137.0.0.0","Windows","10.0","https://app.prolific.com/","en-US,en;q=0.9","664b3888f484550fe6d377bc","683db9eb0562dbf637994deb","6880819119029f14f3303e10","2","1","664b3888f484550fe6d377bc","2","1","2025-07-23T06:43:19.274Z","","","","","","","","","","","StressQ","","50","","","","","","","","","","","","","","","","","","","","","","","","","","","","",""
"3544","","<div style=""width:500px;"">
  <p>What best describes how you currently feel?</p>
  </div>","69","html-slider-response","68","724357","0.0-5.0-4.11","145","1","2025-07-23 06:31:16","1f75c3e559b7213887762d5229550c2b","122.164.236.240","Mozilla/5.0 (Windows NT 10.0; Win64; x64) AppleWebKit/537.36 (KHTML, like Gecko) Chrome/137.0.0.0 Safari/537.36","WebKit","Chrome","137.0.0.0","Windows","10.0","https://app.prolific.com/","en-US,en;q=0.9","664b3888f484550fe6d377bc","683db9eb0562dbf637994deb","6880819119029f14f3303e10","2","1","664b3888f484550fe6d377bc","2","1","2025-07-23T06:43:22.819Z","","","","","","","","","","","MotivationQ","","50","","","","","","","","","","","","","","","","","","","","","","","","","","","","",""
"","","","","ctl-task-cpt","69","770525","0.0-5.0-0.12","145","1","2025-07-23 06:31:16","1f75c3e559b7213887762d5229550c2b","122.164.236.240","Mozilla/5.0 (Windows NT 10.0; Win64; x64) AppleWebKit/537.36 (KHTML, like Gecko) Chrome/137.0.0.0 Safari/537.36","WebKit","Chrome","137.0.0.0","Windows","10.0","https://app.prolific.com/","en-US,en;q=0.9","664b3888f484550fe6d377bc","683db9eb0562dbf637994deb","6880819119029f14f3303e10","2","1","664b3888f484550fe6d377bc","2","1","2025-07-23T06:44:08.986Z","","","","","","","","","","","","","","win-only","3","g1:SW,g2:NE","0.7","13","0","728708.6","1510.6","6513.7","43145.8","1","4","4","6","2","4","4","18","14","0.13636363636363635","711.1","3000","780","[""up"",""right""]","{""num_key_presses"":10,""num_perfect"":7,""num_errors"":0,""num_randdir"":3,""num_randdir_good_moves"":1,""num_whilered"":0,""num_whileblue"":0,""num_blue"":3,""num_good_moves"":8}","[412.8214133126395,421.57142761775424,0.2,412.8214133126395,426.57142761775424,120.9,412.8214133126395,426.57142761775424,221.5,467.8214133126395,390.32142761775424,322.8,666.5714133126395,226.57142761775424,422.8,742.8214133126395,140.32142761775424,525.8,781.5714133126395,51.57142761775425,629.2,781.5714133126395,46.57142761775425,738.6,781.5714133126395,46.57142761775425,848.5,781.5714133126395,46.57142761775425,951.6,781.5714133126395,46.57142761775425,1055.7,781.5714133126395,46.57142761775425,1164.6,781.5714133126395,46.57142761775425,1265.1,781.5714133126395,46.57142761775425,1372.5,781.5714133126395,46.57142761775425,1478,781.5714133126395,46.57142761775425,1579.7,781.5714133126395,46.57142761775425,1688.5,781.5714133126395,46.57142761775425,1788.6,781.5714133126395,46.57142761775425,1891,781.5714133126395,46.57142761775425,1994.3,781.5714133126395,46.57142761775425,2102.5,781.5714133126395,46.57142761775425,2212.3,781.5714133126395,46.57142761775425,2316,781.5714133126395,46.57142761775425,2417.9,781.5714133126395,46.57142761775425,2519.2,781.5714133126395,46.57142761775425,2623.5,781.5714133126395,46.57142761775425,2728.8,781.5714133126395,46.57142761775425,2835.7,781.5714133126395,46.57142761775425,2936.7,781.5714133126395,46.57142761775425,3042.9,781.5714133126395,46.57142761775425,3142.9,781.5714133126395,46.57142761775425,3243.2,781.5714133126395,46.57142761775425,3343.9,781.5714133126395,46.57142761775425,3445.7,781.5714133126395,46.57142761775425,3549.1,781.5714133126395,46.57142761775425,3654.3,781.5714133126395,46.57142761775425,3757.1,781.5714133126395,46.57142761775425,3858.4,781.5714133126395,46.57142761775425,3962,781.5714133126395,46.57142761775425,4067.8,781.5714133126395,46.57142761775425,4170.7,781.5714133126395,46.57142761775425,4274.2,781.5714133126395,46.57142761775425,4379.4,781.5714133126395,46.57142761775425,4480.9,781.5714133126395,46.57142761775425,4587.1,781.5714133126395,46.57142761775425,4691.2,781.5714133126395,46.57142761775425,4800.9,781.5714133126395,46.57142761775425,4904.8]","[4627.8,4627.9,2160.4,2017.9,449.6,""smooth"",""up"",""up"",""good_move"",7511.4,2883.3,2470.8,4628.1,412.5,""smooth"",""up"",""up"",""good_move"",10016.8,2505.2,2119.5,7511.7,385.6,""smooth"",""right"",""right"",""good_move"",12559.4,2542.3,2169,10017.1,373.3,""smooth"",""up"",""up"",""good_move"",15445.8,2886.2,2534.9,12559.6,351.3,""oops"",""right"",""down"",""bad_move"",18469.3,3023.2,2665.4,15446.1,357.8,""oops"",""right"",""right"",""good_move"",28160,9690.5,2531.1,25191.3,437.6,""oops"",""up"",""down"",""bad_move"",31182.5,3022.3,2572.9,28160.2,449.4,""smooth"",""right"",""right"",""good_move"",33749.6,2566.7,2201.3,31182.9,365.4,""smooth"",""up"",""up"",""good_move"",36428.7,2678.8,2231.4,33749.9,447.4,""smooth"",""up"",""up"",""good_move""]","",""
"3566","","<div style=""width:500px;"">
  <p>What determined the result of this run?</p>
  </div>","40","html-slider-response","70","774093","0.0-5.0-1.12","145","1","2025-07-23 06:31:16","1f75c3e559b7213887762d5229550c2b","122.164.236.240","Mozilla/5.0 (Windows NT 10.0; Win64; x64) AppleWebKit/537.36 (KHTML, like Gecko) Chrome/137.0.0.0 Safari/537.36","WebKit","Chrome","137.0.0.0","Windows","10.0","https://app.prolific.com/","en-US,en;q=0.9","664b3888f484550fe6d377bc","683db9eb0562dbf637994deb","6880819119029f14f3303e10","2","1","664b3888f484550fe6d377bc","2","1","2025-07-23T06:44:12.554Z","","","","","","","","","","","AttribQ","","50","","","","","","","","","","","","","","","","","","","","","","","","","","","","",""
"2447","","<div style=""width:500px;"">
  <p>How much control did you have over the ball?</p>
  </div>","42","html-slider-response","71","776541","0.0-5.0-2.12","145","1","2025-07-23 06:31:16","1f75c3e559b7213887762d5229550c2b","122.164.236.240","Mozilla/5.0 (Windows NT 10.0; Win64; x64) AppleWebKit/537.36 (KHTML, like Gecko) Chrome/137.0.0.0 Safari/537.36","WebKit","Chrome","137.0.0.0","Windows","10.0","https://app.prolific.com/","en-US,en;q=0.9","664b3888f484550fe6d377bc","683db9eb0562dbf637994deb","6880819119029f14f3303e10","2","1","664b3888f484550fe6d377bc","2","1","2025-07-23T06:44:15.002Z","","","","","","","","","","","ControlQ","","50","","","","","","","","","","","","","","","","","","","","","","","","","","","","",""
"1981","","<div style=""width:500px;"">
  <p>How would you describe your current emotional state?</p>
  </div>","40","html-slider-response","72","778524","0.0-5.0-3.12","145","1","2025-07-23 06:31:16","1f75c3e559b7213887762d5229550c2b","122.164.236.240","Mozilla/5.0 (Windows NT 10.0; Win64; x64) AppleWebKit/537.36 (KHTML, like Gecko) Chrome/137.0.0.0 Safari/537.36","WebKit","Chrome","137.0.0.0","Windows","10.0","https://app.prolific.com/","en-US,en;q=0.9","664b3888f484550fe6d377bc","683db9eb0562dbf637994deb","6880819119029f14f3303e10","2","1","664b3888f484550fe6d377bc","2","1","2025-07-23T06:44:16.985Z","","","","","","","","","","","StressQ","","50","","","","","","","","","","","","","","","","","","","","","","","","","","","","",""
"2320","","<div style=""width:500px;"">
  <p>What best describes how you currently feel?</p>
  </div>","64","html-slider-response","73","780845","0.0-5.0-4.12","145","1","2025-07-23 06:31:16","1f75c3e559b7213887762d5229550c2b","122.164.236.240","Mozilla/5.0 (Windows NT 10.0; Win64; x64) AppleWebKit/537.36 (KHTML, like Gecko) Chrome/137.0.0.0 Safari/537.36","WebKit","Chrome","137.0.0.0","Windows","10.0","https://app.prolific.com/","en-US,en;q=0.9","664b3888f484550fe6d377bc","683db9eb0562dbf637994deb","6880819119029f14f3303e10","2","1","664b3888f484550fe6d377bc","2","1","2025-07-23T06:44:19.306Z","","","","","","","","","","","MotivationQ","","50","","","","","","","","","","","","","","","","","","","","","","","","","","","","",""
"","","","","ctl-task-cpt","74","821564","0.0-5.0-0.13","145","1","2025-07-23 06:31:16","1f75c3e559b7213887762d5229550c2b","122.164.236.240","Mozilla/5.0 (Windows NT 10.0; Win64; x64) AppleWebKit/537.36 (KHTML, like Gecko) Chrome/137.0.0.0 Safari/537.36","WebKit","Chrome","137.0.0.0","Windows","10.0","https://app.prolific.com/","en-US,en;q=0.9","664b3888f484550fe6d377bc","683db9eb0562dbf637994deb","6880819119029f14f3303e10","2","1","664b3888f484550fe6d377bc","2","1","2025-07-23T06:45:00.025Z","","","","","","","","","","","","","","win-only","0","g1:NW,g2:SE","0.8","14","0","785197","982.1","5983.5","37694.2","1","4","8","6","2","8","8","26","18","0.19696969696969696","951.9","3000","1555","[""down"",""right""]","{""num_key_presses"":10,""num_perfect"":8,""num_errors"":0,""num_randdir"":2,""num_randdir_good_moves"":0,""num_whilered"":0,""num_whileblue"":0,""num_blue"":0,""num_good_moves"":8}","[417.8214133126395,424.07142761775424,0.1,417.8214133126395,424.07142761775424,111.2,395.3214133126395,406.57142761775424,220.6,230.3214133126395,261.57142761775424,338.2,220.3214133126395,249.07142761775424,442.1,625.3214133126395,651.5714276177542,558.6,696.5714133126395,756.5714276177542,673.2,740.3214133126395,771.5714276177542,789.5,766.5714133126395,766.5714276177542,901.9,766.5714133126395,766.5714276177542,1015.9,766.5714133126395,766.5714276177542,1128.3,762.8214133126395,766.5714276177542,1235.6,762.8214133126395,766.5714276177542,1340.7,762.8214133126395,766.5714276177542,1447.9,762.8214133126395,766.5714276177542,1554.7,762.8214133126395,766.5714276177542,1658.2,762.8214133126395,766.5714276177542,1764.1,762.8214133126395,766.5714276177542,1871.4,762.8214133126395,766.5714276177542,1978.6,762.8214133126395,766.5714276177542,2089.1,762.8214133126395,766.5714276177542,2193.8,762.8214133126395,766.5714276177542,2297.6,762.8214133126395,766.5714276177542,2404.4,762.8214133126395,766.5714276177542,2505.9,762.8214133126395,766.5714276177542,2610,762.8214133126395,766.5714276177542,2719.8,762.8214133126395,766.5714276177542,2832.7,762.8214133126395,766.5714276177542,2938,762.8214133126395,766.5714276177542,3043.7,762.8214133126395,766.5714276177542,3155,762.8214133126395,766.5714276177542,3261,762.8214133126395,766.5714276177542,3367.1,762.8214133126395,766.5714276177542,3473.5,762.8214133126395,766.5714276177542,3590.9,762.8214133126395,766.5714276177542,3701.3,762.8214133126395,766.5714276177542,3808.2,762.8214133126395,766.5714276177542,3918,762.8214133126395,766.5714276177542,4021.9,762.8214133126395,766.5714276177542,4129,762.8214133126395,766.5714276177542,4239,762.8214133126395,766.5714276177542,4345.2,762.8214133126395,766.5714276177542,4454.7,762.8214133126395,766.5714276177542,4562.5,762.8214133126395,766.5714276177542,4672.8,762.8214133126395,766.5714276177542,4779.2,762.8214133126395,766.5714276177542,4889.7]","[1496.8,1496.8,1000,0,496.8,""smooth"",""right"",""right"",""good_move"",4590.1,3092.8,2643.6,1497.3,449.2,""smooth"",""right"",""right"",""good_move"",7958.5,3368.2,2859.7,4590.3,508.5,""smooth"",""right"",""right"",""good_move"",10922.6,2963.9,2546.7,7958.7,417.2,""oops"",""down"",""left"",""bad_move"",16188.3,5265.5,2243.9,10922.8,3021.6,""oops"",""down"",""up"",""bad_move"",20595.3,4406.6,3219.2,16188.7,1187.4,""smooth"",""right"",""right"",""good_move"",22871.8,2276.3,1940.1,20595.5,336.2,""smooth"",""down"",""down"",""good_move"",25876.7,3004.6,2665,22872.1,339.6,""smooth"",""down"",""down"",""good_move"",28852.4,2975.4,2639.9,25877,335.5,""smooth"",""down"",""down"",""good_move"",31566.7,2713.8,2366,28852.9,347.8,""smooth"",""down"",""down"",""good_move""]","",""
"3247","","<div style=""width:500px;"">
  <p>What determined the result of this run?</p>
  </div>","37","html-slider-response","75","824813","0.0-5.0-1.13","145","1","2025-07-23 06:31:16","1f75c3e559b7213887762d5229550c2b","122.164.236.240","Mozilla/5.0 (Windows NT 10.0; Win64; x64) AppleWebKit/537.36 (KHTML, like Gecko) Chrome/137.0.0.0 Safari/537.36","WebKit","Chrome","137.0.0.0","Windows","10.0","https://app.prolific.com/","en-US,en;q=0.9","664b3888f484550fe6d377bc","683db9eb0562dbf637994deb","6880819119029f14f3303e10","2","1","664b3888f484550fe6d377bc","2","1","2025-07-23T06:45:03.274Z","","","","","","","","","","","AttribQ","","50","","","","","","","","","","","","","","","","","","","","","","","","","","","","",""
"3510","","<div style=""width:500px;"">
  <p>How much control did you have over the ball?</p>
