"rt","response_timestamp","stimulus","response","trial_type","trial_index","time_elapsed","internal_node_id","run_id","condition","recorded_at","source_code_version","ip","user_agent","device","browser","browser_version","platform","platform_version","referer","accept_language","PROLIFIC_PID","STUDY_ID","SESSION_ID","WEEK","BATCH","prolific_id","week","batch","realtime","success","responses","item_order","radio_event_ids","radio_event_times","key_event_times","mouse_event_times","straightlining","zigzagging","honeypot","eventType","view_history","slider_start","which_type","canvas_config","goals_layout","control_level","trial_number","tutorial_trial_number","trial_start_time","phase1_start_time","phase2_start_time","phase3_start_time","goal_1_value","goal_1_distance","goal_2_value","goal_2_distance","goal_selected","outcome","outcome_total","participant_final_score","participant_initial_score","participant_final_score_prop","goal_choice_rt","allocated_time","allocated_time_remaining","goal_direction","counts","mouse_movements","key_presses","question_order","question_id"
"165345","1753267236393","<p style='font-size:40px;line-height:1.25'><strong>Welcome to the experiment!</strong></p><p style='font-size:1.1em;line-height:1.25'>Thank you for participanting in our experiment again! You will be asked to play the Dysfunctional Ball Game again. We will briefly recap the rules before we start.</p><p style='font-size:1.1em;line-height:1.25'>Press <strong>Next</strong> to continue.</p>","0","custom-html-button-response","0","165360","0.0-0.0","210","1","2025-07-23 10:37:34","1f75c3e559b7213887762d5229550c2b","197.185.164.175","Mozilla/5.0 (Windows NT 10.0; Win64; x64) AppleWebKit/537.36 (KHTML, like Gecko) Chrome/138.0.0.0 Safari/537.36","WebKit","Chrome","138.0.0.0","Windows","10.0","https://app.prolific.com/","en-US,en;q=0.9","67eaee55a9b4d89e82b8df37","683db9eb0562dbf637994deb","6880bb4e96689cb8098c2a7d","2","1","67eaee55a9b4d89e82b8df37","2","1","2025-07-23T10:40:36.405Z","","","","","","","","","","","","","","","","","","","","","","","","","","","","","","","","","","","","","","","","","",""
"24262","","","","fullscreen","1","191081","0.0-1.0","210","1","2025-07-23 10:37:34","1f75c3e559b7213887762d5229550c2b","197.185.164.175","Mozilla/5.0 (Windows NT 10.0; Win64; x64) AppleWebKit/537.36 (KHTML, like Gecko) Chrome/138.0.0.0 Safari/537.36","WebKit","Chrome","138.0.0.0","Windows","10.0","https://app.prolific.com/","en-US,en;q=0.9","67eaee55a9b4d89e82b8df37","683db9eb0562dbf637994deb","6880bb4e96689cb8098c2a7d","2","1","67eaee55a9b4d89e82b8df37","2","1","","true","","","","","","","","","","","","","","","","","","","","","","","","","","","","","","","","","","","","","","","","",""
"4217","1753267266457","<p style='font-size:1.1em;line-height:1.25'>In the following, we will ask you a few questions relating to your feelings in the last 24 hours.<br></p><p style='font-size:1.1em;line-height:1.25'>Press the <strong>Next</strong> button to continue.</p>","0","custom-html-button-response","2","195417","0.0-2.0-0.0","210","1","2025-07-23 10:37:34","1f75c3e559b7213887762d5229550c2b","197.185.164.175","Mozilla/5.0 (Windows NT 10.0; Win64; x64) AppleWebKit/537.36 (KHTML, like Gecko) Chrome/138.0.0.0 Safari/537.36","WebKit","Chrome","138.0.0.0","Windows","10.0","https://app.prolific.com/","en-US,en;q=0.9","67eaee55a9b4d89e82b8df37","683db9eb0562dbf637994deb","6880bb4e96689cb8098c2a7d","2","1","67eaee55a9b4d89e82b8df37","2","1","2025-07-23T10:41:06.460Z","","","","","","","","","","","","","","","","","","","","","","","","","","","","","","","","","","","","","","","","","",""
"112441.40000009537","","","","survey-template","3","307932","0.0-2.0-1.0","210","1","2025-07-23 10:37:34","1f75c3e559b7213887762d5229550c2b","197.185.164.175","Mozilla/5.0 (Windows NT 10.0; Win64; x64) AppleWebKit/537.36 (KHTML, like Gecko) Chrome/138.0.0.0 Safari/537.36","WebKit","Chrome","138.0.0.0","Windows","10.0","https://app.prolific.com/","en-US,en;q=0.9","67eaee55a9b4d89e82b8df37","683db9eb0562dbf637994deb","6880bb4e96689cb8098c2a7d","2","1","67eaee55a9b4d89e82b8df37","2","1","2025-07-23T10:42:58.976Z","","{""Q01"":""0"",""Q02"":""0"",""Q03"":""0"",""Q04"":""0"",""Q05"":""1"",""Q06"":""0"",""Q07"":""1"",""Q08"":""0"",""Q09"":""1"",""Q10"":""0"",""Q11"":""0"",""Q12"":""4"",""Q13"":""5"",""Q14"":""2"",""Q15"":""3"",""Q16"":""1"",""Q17"":""1"",""Q18"":""1"",""Q19"":""0"",""Q20"":""1"",""Q21"":""1"",""Q22"":""0""}","[0,1,2,3,4,5,6,7,8,9,10,11,12,13,14,15,16,17,18,19,20,21]","[""Q01"",""Q02"",""Q03"",""Q04"",""Q05"",""Q07"",""Q08"",""Q08"",""Q08"",""Q08"",""Q08"",""Q08"",""Q08"",""Q08"",""Q08"",""Q08"",""Q08"",""Q08"",""Q08"",""Q09"",""Q09"",""Q10"",""Q11"",""Q12"",""Q13"",""Q14"",""Q15"",""Q16"",""Q16"",""Q17"",""Q18"",""Q19"",""Q20"",""Q21"",""Q22"",""Q06""]","[4493.400000095367,5534.800000071526,6652.900000095367,7819.5,8976.900000095367,12557.400000095367,15248.200000047684,17566.900000095367,17714.300000071526,17749.700000047684,17777.400000095367,17811.5,17846.600000023842,17877.800000071526,17916.300000071526,17941.900000095367,17969.200000047684,18001.100000023842,18033.200000047684,25023.900000095367,26704.400000095367,27886.5,30009.300000071526,32953.300000071526,39631.10000002384,45977.700000047684,47234.200000047684,54552.300000071526,60106.200000047684,61946.800000071526,63285,64894.5,72856.80000007153,74306.30000007153,78045.5,104829.90000009537]","[17566.900000095367,17714.300000071526,17749.700000047684,17777.400000095367,17811.5,17846.600000023842,17877.800000071526,17916.300000071526,17941.900000095367,17969.200000047684,18001.100000023842,18033.200000047684]","[0.30000007152557373,4493.400000095367,5534.800000071526,6652.900000095367,7819.5,8976.900000095367,10683,12557.400000095367,15248.200000047684,19388,25023.900000095367,26704.400000095367,27886.5,30009.300000071526,32953.300000071526,39631.10000002384,45977.700000047684,47234.200000047684,48826.300000071526,54552.300000071526,57222.800000071526,59063.800000071526,60106.200000047684,61946.800000071526,63285,64894.5,66916.20000004768,71386.60000002384,72856.80000007153,74306.30000007153,78045.5,79147.5,85560.80000007153,104829.90000009537,108130.10000002384,112323]","0.45454545454545453","0.5238095238095238","0","drsp","","","","","","","","","","","","","","","","","","","","","","","","","","","","","","",""
"50307.89999997616","","","","survey-template","4","358297","0.0-2.0-2.0","210","1","2025-07-23 10:37:34","1f75c3e559b7213887762d5229550c2b","197.185.164.175","Mozilla/5.0 (Windows NT 10.0; Win64; x64) AppleWebKit/537.36 (KHTML, like Gecko) Chrome/138.0.0.0 Safari/537.36","WebKit","Chrome","138.0.0.0","Windows","10.0","https://app.prolific.com/","en-US,en;q=0.9","67eaee55a9b4d89e82b8df37","683db9eb0562dbf637994deb","6880bb4e96689cb8098c2a7d","2","1","67eaee55a9b4d89e82b8df37","2","1","2025-07-23T10:43:49.340Z","","{""Q01"":""0"",""Q02"":""1"",""Q03"":""1""}","[0,1,2]","[""Q02"",""Q01"",""Q02"",""Q02"",""Q02"",""Q03""]","[36806.89999997616,42190.10000002384,43371.89999997616,45567.39999997616,47075.39999997616,48817.700000047684]","[]","[30945.5,36806.89999997616,39668.39999997616,42190.10000002384,43371.89999997616,45567.39999997616,47075.39999997616,48817.700000047684,50303.799999952316]","0.3333333333333333","0","0","stress","","","","","","","","","","","","","","","","","","","","","","","","","","","","","","",""
"97397","","","","instructions","5","455697","0.0-3.0-0.0","210","1","2025-07-23 10:37:34","1f75c3e559b7213887762d5229550c2b","197.185.164.175","Mozilla/5.0 (Windows NT 10.0; Win64; x64) AppleWebKit/537.36 (KHTML, like Gecko) Chrome/138.0.0.0 Safari/537.36","WebKit","Chrome","138.0.0.0","Windows","10.0","https://app.prolific.com/","en-US,en;q=0.9","67eaee55a9b4d89e82b8df37","683db9eb0562dbf637994deb","6880bb4e96689cb8098c2a7d","2","1","67eaee55a9b4d89e82b8df37","2","1","","","","","","","","","","","","","[{""page_index"":0,""viewing_time"":97385}]","","","","","","","","","","","","","","","","","","","","","","","","","","","","","",""
"8348","","<p>Before you start with this game please answer the following three questions yourself. </p>
  <p>Through this game, we measure several aspects of your cognitive performance, such as reaction times, multi-tasking capabilities </p>
  <p>and the ability to assess the situation you are in.</p>
  <p></p>
  <p><b>How good do you usually are in such tasks?</b></p>","100","html-slider-response","6","464221","0.0-4.0-0.0","210","1","2025-07-23 10:37:34","1f75c3e559b7213887762d5229550c2b","197.185.164.175","Mozilla/5.0 (Windows NT 10.0; Win64; x64) AppleWebKit/537.36 (KHTML, like Gecko) Chrome/138.0.0.0 Safari/537.36","WebKit","Chrome","138.0.0.0","Windows","10.0","https://app.prolific.com/","en-US,en;q=0.9","67eaee55a9b4d89e82b8df37","683db9eb0562dbf637994deb","6880bb4e96689cb8098c2a7d","2","1","67eaee55a9b4d89e82b8df37","2","1","2025-07-23T10:45:35.264Z","","","","","","","","","","","PreSkillQ","","50","","","","","","","","","","","","","","","","","","","","","","","","","","","","",""
"4306","","<div style=""width:500px;"">
  <p>How well do you think you will perform in this task compared to other participants?</p>
  </div>","100","html-slider-response","7","468533","0.0-4.0-1.0","210","1","2025-07-23 10:37:34","1f75c3e559b7213887762d5229550c2b","197.185.164.175","Mozilla/5.0 (Windows NT 10.0; Win64; x64) AppleWebKit/537.36 (KHTML, like Gecko) Chrome/138.0.0.0 Safari/537.36","WebKit","Chrome","138.0.0.0","Windows","10.0","https://app.prolific.com/","en-US,en;q=0.9","67eaee55a9b4d89e82b8df37","683db9eb0562dbf637994deb","6880bb4e96689cb8098c2a7d","2","1","67eaee55a9b4d89e82b8df37","2","1","2025-07-23T10:45:39.577Z","","","","","","","","","","","PrePerfQ","","50","","","","","","","","","","","","","","","","","","","","","","","","","","","","",""
"25657","","<div style=""width:500px;"">
  <p>What best describes how you currently feel?</p>
  </div>","100","html-slider-response","8","494199","0.0-4.0-2.0","210","1","2025-07-23 10:37:34","1f75c3e559b7213887762d5229550c2b","197.185.164.175","Mozilla/5.0 (Windows NT 10.0; Win64; x64) AppleWebKit/537.36 (KHTML, like Gecko) Chrome/138.0.0.0 Safari/537.36","WebKit","Chrome","138.0.0.0","Windows","10.0","https://app.prolific.com/","en-US,en;q=0.9","67eaee55a9b4d89e82b8df37","683db9eb0562dbf637994deb","6880bb4e96689cb8098c2a7d","2","1","67eaee55a9b4d89e82b8df37","2","1","2025-07-23T10:46:05.243Z","","","","","","","","","","","PreMotivationQ","","50","","","","","","","","","","","","","","","","","","","","","","","","","","","","",""
"","","","","ctl-task-cpt","9","558412","0.0-5.0-0.0","210","1","2025-07-23 10:37:34","1f75c3e559b7213887762d5229550c2b","197.185.164.175","Mozilla/5.0 (Windows NT 10.0; Win64; x64) AppleWebKit/537.36 (KHTML, like Gecko) Chrome/138.0.0.0 Safari/537.36","WebKit","Chrome","138.0.0.0","Windows","10.0","https://app.prolific.com/","en-US,en;q=0.9","67eaee55a9b4d89e82b8df37","683db9eb0562dbf637994deb","6880bb4e96689cb8098c2a7d","2","1","67eaee55a9b4d89e82b8df37","2","1","2025-07-23T10:47:09.456Z","","","","","","","","","","","","","","win-only","0","g1:NW,g2:SE","1","1","0","504386.3","18330.6","23393.4","60584.8","1","4","4","6","2","-4","-6","0","0","0","5061.9","3000","-1160","[""down"",""right""]","{""num_key_presses"":8,""num_perfect"":6,""num_errors"":2,""num_randdir"":0,""num_randdir_good_moves"":0,""num_whilered"":0,""num_whileblue"":0,""num_blue"":3,""num_good_moves"":5}","[299.22232142857143,296.12857142857143,165.2,299.22232142857143,296.12857142857143,368.6,299.22232142857143,296.12857142857143,584.4,299.22232142857143,296.12857142857143,685.6,299.22232142857143,296.12857142857143,795.6,299.22232142857143,296.12857142857143,900.1,299.22232142857143,296.12857142857143,1002.4,299.22232142857143,296.12857142857143,1115.3,299.22232142857143,296.12857142857143,1226.2,299.22232142857143,296.12857142857143,1330.5,299.22232142857143,296.12857142857143,1433.4,299.22232142857143,296.12857142857143,1537.4,299.22232142857143,296.12857142857143,1643.2,299.22232142857143,296.12857142857143,1746,299.22232142857143,296.12857142857143,1847,299.22232142857143,296.12857142857143,1951,299.22232142857143,296.12857142857143,2053.1,299.22232142857143,296.12857142857143,2157.6,299.22232142857143,296.12857142857143,2268,299.22232142857143,296.12857142857143,2368.2,299.22232142857143,296.12857142857143,2471.8,299.22232142857143,296.12857142857143,2576.1,299.22232142857143,296.12857142857143,2676.2,299.22232142857143,296.12857142857143,2781.5,299.22232142857143,296.12857142857143,2884.3,299.22232142857143,296.12857142857143,2986.8,299.22232142857143,296.12857142857143,3087.4,299.22232142857143,296.12857142857143,3191.7,299.22232142857143,296.12857142857143,3293.2,299.22232142857143,296.12857142857143,3545.5,299.22232142857143,296.12857142857143,3650.5,299.22232142857143,296.12857142857143,3751.2,299.22232142857143,296.12857142857143,3851.6,299.22232142857143,296.12857142857143,3956.3,299.22232142857143,296.12857142857143,4057.3,299.22232142857143,296.12857142857143,4161.1,299.22232142857143,296.12857142857143,4261.8,299.22232142857143,296.12857142857143,4370.8,299.22232142857143,296.12857142857143,4471.5,299.22232142857143,296.12857142857143,4575.7,299.22232142857143,296.12857142857143,4675.8,299.22232142857143,296.12857142857143,4780.8,299.22232142857143,296.12857142857143,4881.4,299.22232142857143,296.12857142857143,4985.8]","[6252.9,6252.8,1000,0.1,5252.8,""smooth"",""up"",""up"",""bad_move"",6286,27.5,1897.9,6258.8,-1870.6,""error"",""-"",""-"",""no_move"",16095.5,9805.9,2023.9,13493.6,578,""smooth"",""right"",""right"",""good_move"",19726.8,3631.4,2372.5,16096.1,1259,""smooth"",""right"",""right"",""good_move"",26379.3,6604.5,2396.2,23443.9,539.2,""smooth"",""right"",""right"",""good_move"",26988.7,579.5,2813.7,26409.2,-2234.2,""error"",""-"",""-"",""no_move"",31217.3,4226.1,2607.2,27995,615.1,""smooth"",""down"",""down"",""good_move"",33899.3,2661.2,2140.7,31238.2,520.6,""smooth"",""down"",""down"",""good_move""]","",""
"7059","","<div style=""width:500px;"">
  <p>What determined the result of this run?</p>
  </div>","75","html-slider-response","10","565490","0.0-5.0-1.0","210","1","2025-07-23 10:37:34","1f75c3e559b7213887762d5229550c2b","197.185.164.175","Mozilla/5.0 (Windows NT 10.0; Win64; x64) AppleWebKit/537.36 (KHTML, like Gecko) Chrome/138.0.0.0 Safari/537.36","WebKit","Chrome","138.0.0.0","Windows","10.0","https://app.prolific.com/","en-US,en;q=0.9","67eaee55a9b4d89e82b8df37","683db9eb0562dbf637994deb","6880bb4e96689cb8098c2a7d","2","1","67eaee55a9b4d89e82b8df37","2","1","2025-07-23T10:47:16.534Z","","","","","","","","","","","AttribQ","","50","","","","","","","","","","","","","","","","","","","","","","","","","","","","",""
"2905","","<div style=""width:500px;"">
  <p>How much control did you have over the ball?</p>
  </div>","73","html-slider-response","11","568400","0.0-5.0-2.0","210","1","2025-07-23 10:37:34","1f75c3e559b7213887762d5229550c2b","197.185.164.175","Mozilla/5.0 (Windows NT 10.0; Win64; x64) AppleWebKit/537.36 (KHTML, like Gecko) Chrome/138.0.0.0 Safari/537.36","WebKit","Chrome","138.0.0.0","Windows","10.0","https://app.prolific.com/","en-US,en;q=0.9","67eaee55a9b4d89e82b8df37","683db9eb0562dbf637994deb","6880bb4e96689cb8098c2a7d","2","1","67eaee55a9b4d89e82b8df37","2","1","2025-07-23T10:47:19.444Z","","","","","","","","","","","ControlQ","","50","","","","","","","","","","","","","","","","","","","","","","","","","","","","",""
"4473","","<div style=""width:500px;"">
  <p>How would you describe your current emotional state?</p>
  </div>","9","html-slider-response","12","572882","0.0-5.0-3.0","210","1","2025-07-23 10:37:34","1f75c3e559b7213887762d5229550c2b","197.185.164.175","Mozilla/5.0 (Windows NT 10.0; Win64; x64) AppleWebKit/537.36 (KHTML, like Gecko) Chrome/138.0.0.0 Safari/537.36","WebKit","Chrome","138.0.0.0","Windows","10.0","https://app.prolific.com/","en-US,en;q=0.9","67eaee55a9b4d89e82b8df37","683db9eb0562dbf637994deb","6880bb4e96689cb8098c2a7d","2","1","67eaee55a9b4d89e82b8df37","2","1","2025-07-23T10:47:23.926Z","","","","","","","","","","","StressQ","","50","","","","","","","","","","","","","","","","","","","","","","","","","","","","",""
"7758","","<div style=""width:500px;"">
  <p>What best describes how you currently feel?</p>
  </div>","92","html-slider-response","13","580647","0.0-5.0-4.0","210","1","2025-07-23 10:37:34","1f75c3e559b7213887762d5229550c2b","197.185.164.175","Mozilla/5.0 (Windows NT 10.0; Win64; x64) AppleWebKit/537.36 (KHTML, like Gecko) Chrome/138.0.0.0 Safari/537.36","WebKit","Chrome","138.0.0.0","Windows","10.0","https://app.prolific.com/","en-US,en;q=0.9","67eaee55a9b4d89e82b8df37","683db9eb0562dbf637994deb","6880bb4e96689cb8098c2a7d","2","1","67eaee55a9b4d89e82b8df37","2","1","2025-07-23T10:47:31.692Z","","","","","","","","","","","MotivationQ","","50","","","","","","","","","","","","","","","","","","","","","","","","","","","","",""
"","","","","ctl-task-cpt","14","625645","0.0-5.0-0.1","210","1","2025-07-23 10:37:34","1f75c3e559b7213887762d5229550c2b","197.185.164.175","Mozilla/5.0 (Windows NT 10.0; Win64; x64) AppleWebKit/537.36 (KHTML, like Gecko) Chrome/138.0.0.0 Safari/537.36","WebKit","Chrome","138.0.0.0","Windows","10.0","https://app.prolific.com/","en-US,en;q=0.9","67eaee55a9b4d89e82b8df37","683db9eb0562dbf637994deb","6880bb4e96689cb8098c2a7d","2","1","67eaee55a9b4d89e82b8df37","2","1","2025-07-23T10:48:16.689Z","","","","","","","","","","","","","","win-only","3","g1:SW,g2:NE","0.9","2","0","590283.5","6617.3","11628.9","41934.5","1","4","8","6","2","-8","-8","0","0","0","1588.6","3000","-2210","[""up"",""right""]","{""num_key_presses"":5,""num_perfect"":5,""num_errors"":0,""num_randdir"":0,""num_randdir_good_moves"":0,""num_whilered"":0,""num_whileblue"":0,""num_blue"":4,""num_good_moves"":5}","[296.22232142857143,303.12857142857143,1.4,296.22232142857143,303.12857142857143,104.8,296.22232142857143,303.12857142857143,205.3,296.22232142857143,303.12857142857143,309.8,296.22232142857143,303.12857142857143,417.2,296.22232142857143,303.12857142857143,518.9,296.22232142857143,303.12857142857143,619.4,296.22232142857143,303.12857142857143,719.8,296.22232142857143,303.12857142857143,820.2,296.22232142857143,303.12857142857143,929.1,470.22232142857143,134.12857142857143,1038.5,541.2223214285714,75.12857142857143,1143.5,549.2223214285714,74.12857142857143,1247,559.2223214285714,74.12857142857143,1355,559.2223214285714,74.12857142857143,1455.1,559.2223214285714,74.12857142857143,1558.3,559.2223214285714,74.12857142857143,1696.5,559.2223214285714,74.12857142857143,1809.5,559.2223214285714,74.12857142857143,1913,559.2223214285714,74.12857142857143,2021.2,559.2223214285714,74.12857142857143,2122,505.22232142857143,262.12857142857143,2237,484.22232142857143,515.1285714285714,2383.9,490.22232142857143,531.1285714285714,2487.4,490.22232142857143,531.1285714285714,2589,490.22232142857143,531.1285714285714,2697.3,490.22232142857143,531.1285714285714,2807.1,448.22232142857143,530.1285714285714,2926.9,386.22232142857143,515.1285714285714,3027.4,370.22232142857143,502.12857142857143,3127.6,370.22232142857143,502.12857142857143,3244.2,370.22232142857143,502.12857142857143,3346.2,370.22232142857143,502.12857142857143,3452.6,370.22232142857143,502.12857142857143,3555.5,370.22232142857143,502.12857142857143,3666.1,370.22232142857143,502.12857142857143,3771.7,370.22232142857143,502.12857142857143,3877.3,370.22232142857143,502.12857142857143,3977.5,370.22232142857143,502.12857142857143,4090.4,370.22232142857143,502.12857142857143,4191.7,370.22232142857143,502.12857142857143,4308.8,370.22232142857143,502.12857142857143,4420.7,370.22232142857143,502.12857142857143,4526.7,370.22232142857143,502.12857142857143,4626.9,370.22232142857143,502.12857142857143,4727.7,370.22232142857143,502.12857142857143,4838.7,370.22232142857143,502.12857142857143,4942.2]","[1606.7,1606.7,1000,0,606.7,""smooth"",""up"",""up"",""good_move"",5265,3654.2,2993.6,1610.8,660.6,""smooth"",""up"",""up"",""good_move"",17007.9,11738.1,1808.5,14775.5,424.1,""smooth"",""up"",""up"",""good_move"",20397.2,3387,2346.6,17010.2,1040.4,""smooth"",""up"",""right"",""good_move"",24327,3920,3025.3,20407,894.7,""smooth"",""right"",""right"",""good_move""]","",""
"8042","","<div style=""width:500px;"">
  <p>What determined the result of this run?</p>
  </div>","71","html-slider-response","15","633691","0.0-5.0-1.1","210","1","2025-07-23 10:37:34","1f75c3e559b7213887762d5229550c2b","197.185.164.175","Mozilla/5.0 (Windows NT 10.0; Win64; x64) AppleWebKit/537.36 (KHTML, like Gecko) Chrome/138.0.0.0 Safari/537.36","WebKit","Chrome","138.0.0.0","Windows","10.0","https://app.prolific.com/","en-US,en;q=0.9","67eaee55a9b4d89e82b8df37","683db9eb0562dbf637994deb","6880bb4e96689cb8098c2a7d","2","1","67eaee55a9b4d89e82b8df37","2","1","2025-07-23T10:48:24.735Z","","","","","","","","","","","AttribQ","","50","","","","","","","","","","","","","","","","","","","","","","","","","","","","",""
"2781","","<div style=""width:500px;"">
  <p>How much control did you have over the ball?</p>
  </div>","79","html-slider-response","16","636482","0.0-5.0-2.1","210","1","2025-07-23 10:37:34","1f75c3e559b7213887762d5229550c2b","197.185.164.175","Mozilla/5.0 (Windows NT 10.0; Win64; x64) AppleWebKit/537.36 (KHTML, like Gecko) Chrome/138.0.0.0 Safari/537.36","WebKit","Chrome","138.0.0.0","Windows","10.0","https://app.prolific.com/","en-US,en;q=0.9","67eaee55a9b4d89e82b8df37","683db9eb0562dbf637994deb","6880bb4e96689cb8098c2a7d","2","1","67eaee55a9b4d89e82b8df37","2","1","2025-07-23T10:48:27.526Z","","","","","","","","","","","ControlQ","","50","","","","","","","","","","","","","","","","","","","","","","","","","","","","",""
"8915","","<div style=""width:500px;"">
  <p>How would you describe your current emotional state?</p>
  </div>","73","html-slider-response","17","645403","0.0-5.0-3.1","210","1","2025-07-23 10:37:34","1f75c3e559b7213887762d5229550c2b","197.185.164.175","Mozilla/5.0 (Windows NT 10.0; Win64; x64) AppleWebKit/537.36 (KHTML, like Gecko) Chrome/138.0.0.0 Safari/537.36","WebKit","Chrome","138.0.0.0","Windows","10.0","https://app.prolific.com/","en-US,en;q=0.9","67eaee55a9b4d89e82b8df37","683db9eb0562dbf637994deb","6880bb4e96689cb8098c2a7d","2","1","67eaee55a9b4d89e82b8df37","2","1","2025-07-23T10:48:36.447Z","","","","","","","","","","","StressQ","","50","","","","","","","","","","","","","","","","","","","","","","","","","","","","",""
"3638","","<div style=""width:500px;"">
  <p>What best describes how you currently feel?</p>
  </div>","79","html-slider-response","18","649051","0.0-5.0-4.1","210","1","2025-07-23 10:37:34","1f75c3e559b7213887762d5229550c2b","197.185.164.175","Mozilla/5.0 (Windows NT 10.0; Win64; x64) AppleWebKit/537.36 (KHTML, like Gecko) Chrome/138.0.0.0 Safari/537.36","WebKit","Chrome","138.0.0.0","Windows","10.0","https://app.prolific.com/","en-US,en;q=0.9","67eaee55a9b4d89e82b8df37","683db9eb0562dbf637994deb","6880bb4e96689cb8098c2a7d","2","1","67eaee55a9b4d89e82b8df37","2","1","2025-07-23T10:48:40.095Z","","","","","","","","","","","MotivationQ","","50","","","","","","","","","","","","","","","","","","","","","","","","","","","","",""
"","","","","ctl-task-cpt","19","687888","0.0-5.0-0.2","210","1","2025-07-23 10:37:34","1f75c3e559b7213887762d5229550c2b","197.185.164.175","Mozilla/5.0 (Windows NT 10.0; Win64; x64) AppleWebKit/537.36 (KHTML, like Gecko) Chrome/138.0.0.0 Safari/537.36","WebKit","Chrome","138.0.0.0","Windows","10.0","https://app.prolific.com/","en-US,en;q=0.9","67eaee55a9b4d89e82b8df37","683db9eb0562dbf637994deb","6880bb4e96689cb8098c2a7d","2","1","67eaee55a9b4d89e82b8df37","2","1","2025-07-23T10:49:18.931Z","","","","","","","","","","","","","","win-only","2","g1:SE,g2:NW","0.8","3","0","658646.3","1721.2","6733.6","35795","1","4","8","6","2","8","8","8","0","0.06060606060606061","1645.4","3000","70","[""left"",""up""]","{""num_key_presses"":8,""num_perfect"":7,""num_errors"":0,""num_randdir"":1,""num_randdir_good_moves"":0,""num_whilered"":0,""num_whileblue"":0,""num_blue"":2,""num_good_moves"":7}","[296.22232142857143,291.12857142857143,2.7,296.22232142857143,291.12857142857143,104.8,296.22232142857143,291.12857142857143,209.3,296.22232142857143,291.12857142857143,323,296.22232142857143,291.12857142857143,423.2,296.22232142857143,291.12857142857143,526.9,296.22232142857143,291.12857142857143,633.8,296.22232142857143,291.12857142857143,740.7,275.22232142857143,271.12857142857143,841.4,110.22232142857143,66.12857142857143,943.5,96.22232142857143,0.12857142857142634,1058.7,92.22232142857143,25.128571428571426,1164.5,68.22232142857143,46.128571428571426,1266.8,60.222321428571426,45.128571428571426,1367.8,60.222321428571426,45.128571428571426,1475.2,60.222321428571426,45.128571428571426,1584,60.222321428571426,45.128571428571426,1691.2,60.222321428571426,45.128571428571426,1796.9,60.222321428571426,45.128571428571426,1897.8,60.222321428571426,45.128571428571426,1998.5,60.222321428571426,45.128571428571426,2099.7,157.22232142857143,57.128571428571426,2207,497.22232142857143,281.12857142857143,2317.2,503.22232142857143,296.12857142857143,2428,503.22232142857143,296.12857142857143,2528.6,503.22232142857143,296.12857142857143,2648.8,503.22232142857143,296.12857142857143,2755.6,503.22232142857143,296.12857142857143,2861.6,503.22232142857143,296.12857142857143,2969.5,503.22232142857143,296.12857142857143,3074.6,503.22232142857143,296.12857142857143,3174.6,503.22232142857143,296.12857142857143,3280.4,503.22232142857143,296.12857142857143,3402.8,503.22232142857143,296.12857142857143,3505.9,503.22232142857143,296.12857142857143,3610,503.22232142857143,296.12857142857143,3712.9,503.22232142857143,296.12857142857143,3815.2,503.22232142857143,296.12857142857143,3931.2,503.22232142857143,296.12857142857143,4040.5,503.22232142857143,296.12857142857143,4147.2,503.22232142857143,296.12857142857143,4250,503.22232142857143,296.12857142857143,4351.7,503.22232142857143,296.12857142857143,4452.4,503.22232142857143,296.12857142857143,4558.8,503.22232142857143,296.12857142857143,4665.4,503.22232142857143,296.12857142857143,4770,503.22232142857143,296.12857142857143,4870,503.22232142857143,296.12857142857143,4970.4]","[2004.9,2005,1000,0,1005,""smooth"",""up"",""up"",""good_move"",5391.9,3378.8,2930,2013.1,449,""smooth"",""up"",""up"",""good_move"",11074.2,5677.8,1822.2,8781,471.1,""smooth"",""up"",""up"",""good_move"",14486.4,3409.2,2967.6,11077.2,441.6,""smooth"",""left"",""left"",""good_move"",17573,3084.1,2577.2,14488.9,507,""smooth"",""left"",""left"",""good_move"",20356.1,2780.5,2319.8,17575.7,460.6,""oops"",""left"",""right"",""bad_move"",23075.5,2715.4,2011.4,20360.1,704.1,""smooth"",""left"",""left"",""good_move"",28902.5,5821,2000.5,26320.4,581.7,""smooth"",""left"",""left"",""good_move""]","",""
"6639","","<div style=""width:500px;"">
  <p>What determined the result of this run?</p>
  </div>","98","html-slider-response","20","694532","0.0-5.0-1.2","210","1","2025-07-23 10:37:34","1f75c3e559b7213887762d5229550c2b","197.185.164.175","Mozilla/5.0 (Windows NT 10.0; Win64; x64) AppleWebKit/537.36 (KHTML, like Gecko) Chrome/138.0.0.0 Safari/537.36","WebKit","Chrome","138.0.0.0","Windows","10.0","https://app.prolific.com/","en-US,en;q=0.9","67eaee55a9b4d89e82b8df37","683db9eb0562dbf637994deb","6880bb4e96689cb8098c2a7d","2","1","67eaee55a9b4d89e82b8df37","2","1","2025-07-23T10:49:25.575Z","","","","","","","","","","","AttribQ","","50","","","","","","","","","","","","","","","","","","","","","","","","","","","","",""
"2538","","<div style=""width:500px;"">
  <p>How much control did you have over the ball?</p>
  </div>","77","html-slider-response","21","697077","0.0-5.0-2.2","210","1","2025-07-23 10:37:34","1f75c3e559b7213887762d5229550c2b","197.185.164.175","Mozilla/5.0 (Windows NT 10.0; Win64; x64) AppleWebKit/537.36 (KHTML, like Gecko) Chrome/138.0.0.0 Safari/537.36","WebKit","Chrome","138.0.0.0","Windows","10.0","https://app.prolific.com/","en-US,en;q=0.9","67eaee55a9b4d89e82b8df37","683db9eb0562dbf637994deb","6880bb4e96689cb8098c2a7d","2","1","67eaee55a9b4d89e82b8df37","2","1","2025-07-23T10:49:28.120Z","","","","","","","","","","","ControlQ","","50","","","","","","","","","","","","","","","","","","","","","","","","","","","","",""
"3365","","<div style=""width:500px;"">
  <p>How would you describe your current emotional state?</p>
  </div>","3","html-slider-response","22","700446","0.0-5.0-3.2","210","1","2025-07-23 10:37:34","1f75c3e559b7213887762d5229550c2b","197.185.164.175","Mozilla/5.0 (Windows NT 10.0; Win64; x64) AppleWebKit/537.36 (KHTML, like Gecko) Chrome/138.0.0.0 Safari/537.36","WebKit","Chrome","138.0.0.0","Windows","10.0","https://app.prolific.com/","en-US,en;q=0.9","67eaee55a9b4d89e82b8df37","683db9eb0562dbf637994deb","6880bb4e96689cb8098c2a7d","2","1","67eaee55a9b4d89e82b8df37","2","1","2025-07-23T10:49:31.489Z","","","","","","","","","","","StressQ","","50","","","","","","","","","","","","","","","","","","","","","","","","","","","","",""
"3488","","<div style=""width:500px;"">
  <p>What best describes how you currently feel?</p>
  </div>","85","html-slider-response","23","703940","0.0-5.0-4.2","210","1","2025-07-23 10:37:34","1f75c3e559b7213887762d5229550c2b","197.185.164.175","Mozilla/5.0 (Windows NT 10.0; Win64; x64) AppleWebKit/537.36 (KHTML, like Gecko) Chrome/138.0.0.0 Safari/537.36","WebKit","Chrome","138.0.0.0","Windows","10.0","https://app.prolific.com/","en-US,en;q=0.9","67eaee55a9b4d89e82b8df37","683db9eb0562dbf637994deb","6880bb4e96689cb8098c2a7d","2","1","67eaee55a9b4d89e82b8df37","2","1","2025-07-23T10:49:34.984Z","","","","","","","","","","","MotivationQ","","50","","","","","","","","","","","","","","","","","","","","","","","","","","","","",""
"","","","","ctl-task-cpt","24","744505","0.0-5.0-0.3","210","1","2025-07-23 10:37:34","1f75c3e559b7213887762d5229550c2b","197.185.164.175","Mozilla/5.0 (Windows NT 10.0; Win64; x64) AppleWebKit/537.36 (KHTML, like Gecko) Chrome/138.0.0.0 Safari/537.36","WebKit","Chrome","138.0.0.0","Windows","10.0","https://app.prolific.com/","en-US,en;q=0.9","67eaee55a9b4d89e82b8df37","683db9eb0562dbf637994deb","6880bb4e96689cb8098c2a7d","2","1","67eaee55a9b4d89e82b8df37","2","1","2025-07-23T10:50:15.548Z","","","","","","","","","","","","","","win-only","0","g1:NW,g2:SE","0.7","4","0","713531","8568.9","13600.4","37541.3","1","4","4","6","2","-4","-4","4","8","0.030303030303030304","2673.4","3000","-1780","[""down"",""right""]","{""num_key_presses"":5,""num_perfect"":4,""num_errors"":0,""num_randdir"":1,""num_randdir_good_moves"":0,""num_whilered"":0,""num_whileblue"":0,""num_blue"":1,""num_good_moves"":4}","[293.22232142857143,301.12857142857143,3.9,293.22232142857143,301.12857142857143,100.8,293.22232142857143,301.12857142857143,205.3,293.22232142857143,301.12857142857143,306.9,293.22232142857143,301.12857142857143,423.6,293.22232142857143,301.12857142857143,528.4,293.22232142857143,301.12857142857143,631.1,293.22232142857143,301.12857142857143,743.1,293.22232142857143,301.12857142857143,843.7,293.22232142857143,301.12857142857143,949,293.22232142857143,301.12857142857143,1061.8,293.22232142857143,301.12857142857143,1163.5,293.22232142857143,301.12857142857143,1264.1,293.22232142857143,301.12857142857143,1365.8,293.22232142857143,301.12857142857143,1472.7,293.22232142857143,301.12857142857143,1574.3,293.22232142857143,301.12857142857143,1682.9,434.22232142857143,345.12857142857143,1791.7,592.2223214285714,471.12857142857143,1900.2,596.2223214285714,485.12857142857143,2004.6,596.2223214285714,485.12857142857143,2107.2,581.2223214285714,500.12857142857143,2212.4,566.2223214285714,528.1285714285714,2319.3,555.2223214285714,541.1285714285714,2423.9,552.2223214285714,547.1285714285714,2529.5,552.2223214285714,547.1285714285714,2633.3,552.2223214285714,547.1285714285714,2733.9,552.2223214285714,547.1285714285714,2842.4,552.2223214285714,547.1285714285714,2944.8,552.2223214285714,547.1285714285714,3051.9,552.2223214285714,547.1285714285714,3158.8,552.2223214285714,547.1285714285714,3279,552.2223214285714,547.1285714285714,3389.9,552.2223214285714,547.1285714285714,3503.5,746.2223214285714,468.12857142857143,3610.7,853.2223214285714,438.12857142857143,3714.3,863.2223214285714,433.12857142857143,3814.8,863.2223214285714,433.12857142857143,3921.9,863.2223214285714,433.12857142857143,4026,863.2223214285714,433.12857142857143,4130.7,863.2223214285714,433.12857142857143,4232.3,863.2223214285714,433.12857142857143,4339.8,863.2223214285714,433.12857142857143,4441.4,863.2223214285714,433.12857142857143,4561.5,863.2223214285714,433.12857142857143,4668.3,863.2223214285714,433.12857142857143,4774,863.2223214285714,433.12857142857143,4877,863.2223214285714,433.12857142857143,4977.5]","[2063.1,2063.1,1000,0,1063.1,""smooth"",""down"",""down"",""good_move"",5976.6,3909.5,2714.8,2067.2,1194.6,""smooth"",""down"",""down"",""good_move"",10161.5,4183.9,2776.9,5977.6,1407,""smooth"",""down"",""down"",""good_move"",12653.8,2488.7,1713.6,10165.2,775,""smooth"",""right"",""right"",""good_move"",20175.4,7519.1,2431.1,17257.9,486.4,""oops"",""right"",""up"",""bad_move""]","",""
"6540","","<div style=""width:500px;"">
  <p>What determined the result of this run?</p>
  </div>","61","html-slider-response","25","751051","0.0-5.0-1.3","210","1","2025-07-23 10:37:34","1f75c3e559b7213887762d5229550c2b","197.185.164.175","Mozilla/5.0 (Windows NT 10.0; Win64; x64) AppleWebKit/537.36 (KHTML, like Gecko) Chrome/138.0.0.0 Safari/537.36","WebKit","Chrome","138.0.0.0","Windows","10.0","https://app.prolific.com/","en-US,en;q=0.9","67eaee55a9b4d89e82b8df37","683db9eb0562dbf637994deb","6880bb4e96689cb8098c2a7d","2","1","67eaee55a9b4d89e82b8df37","2","1","2025-07-23T10:50:22.094Z","","","","","","","","","","","AttribQ","","50","","","","","","","","","","","","","","","","","","","","","","","","","","","","",""
"4279","","<div style=""width:500px;"">
  <p>How much control did you have over the ball?</p>
  </div>","67","html-slider-response","26","755338","0.0-5.0-2.3","210","1","2025-07-23 10:37:34","1f75c3e559b7213887762d5229550c2b","197.185.164.175","Mozilla/5.0 (Windows NT 10.0; Win64; x64) AppleWebKit/537.36 (KHTML, like Gecko) Chrome/138.0.0.0 Safari/537.36","WebKit","Chrome","138.0.0.0","Windows","10.0","https://app.prolific.com/","en-US,en;q=0.9","67eaee55a9b4d89e82b8df37","683db9eb0562dbf637994deb","6880bb4e96689cb8098c2a7d","2","1","67eaee55a9b4d89e82b8df37","2","1","2025-07-23T10:50:26.381Z","","","","","","","","","","","ControlQ","","50","","","","","","","","","","","","","","","","","","","","","","","","","","","","",""
"4489","","<div style=""width:500px;"">
  <p>How would you describe your current emotional state?</p>
  </div>","7","html-slider-response","27","759834","0.0-5.0-3.3","210","1","2025-07-23 10:37:34","1f75c3e559b7213887762d5229550c2b","197.185.164.175","Mozilla/5.0 (Windows NT 10.0; Win64; x64) AppleWebKit/537.36 (KHTML, like Gecko) Chrome/138.0.0.0 Safari/537.36","WebKit","Chrome","138.0.0.0","Windows","10.0","https://app.prolific.com/","en-US,en;q=0.9","67eaee55a9b4d89e82b8df37","683db9eb0562dbf637994deb","6880bb4e96689cb8098c2a7d","2","1","67eaee55a9b4d89e82b8df37","2","1","2025-07-23T10:50:30.877Z","","","","","","","","","","","StressQ","","50","","","","","","","","","","","","","","","","","","","","","","","","","","","","",""
"10160","","<div style=""width:500px;"">
  <p>What best describes how you currently feel?</p>
  </div>","76","html-slider-response","28","770006","0.0-5.0-4.3","210","1","2025-07-23 10:37:34","1f75c3e559b7213887762d5229550c2b","197.185.164.175","Mozilla/5.0 (Windows NT 10.0; Win64; x64) AppleWebKit/537.36 (KHTML, like Gecko) Chrome/138.0.0.0 Safari/537.36","WebKit","Chrome","138.0.0.0","Windows","10.0","https://app.prolific.com/","en-US,en;q=0.9","67eaee55a9b4d89e82b8df37","683db9eb0562dbf637994deb","6880bb4e96689cb8098c2a7d","2","1","67eaee55a9b4d89e82b8df37","2","1","2025-07-23T10:50:41.050Z","","","","","","","","","","","MotivationQ","","50","","","","","","","","","","","","","","","","","","","","","","","","","","","","",""
"","","","","ctl-task-cpt","29","827042","0.0-5.0-0.4","210","1","2025-07-23 10:37:34","1f75c3e559b7213887762d5229550c2b","197.185.164.175","Mozilla/5.0 (Windows NT 10.0; Win64; x64) AppleWebKit/537.36 (KHTML, like Gecko) Chrome/138.0.0.0 Safari/537.36","WebKit","Chrome","138.0.0.0","Windows","10.0","https://app.prolific.com/","en-US,en;q=0.9","67eaee55a9b4d89e82b8df37","683db9eb0562dbf637994deb","6880bb4e96689cb8098c2a7d","2","1","67eaee55a9b4d89e82b8df37","2","1","2025-07-23T10:51:38.085Z","","","","","","","","","","","","","","win-only","3","g1:SW,g2:NE","0.6","5","0","779597.8","2328.6","7342.9","54008.9","1","4","4","6","1","-1","-1","3","4","0.022727272727272728","5014","3000","-1305","[""down"",""left""]","{""num_key_presses"":11,""num_perfect"":6,""num_errors"":0,""num_randdir"":5,""num_randdir_good_moves"":1,""num_whilered"":0,""num_whileblue"":0,""num_blue"":2,""num_good_moves"":6}","[288.22232142857143,298.12857142857143,15.6,288.22232142857143,298.12857142857143,101.9,288.22232142857143,298.12857142857143,211.6,288.22232142857143,298.12857142857143,330.1,288.22232142857143,298.12857142857143,432.8,288.22232142857143,298.12857142857143,535.6,288.22232142857143,296.12857142857143,643,443.22232142857143,173.12857142857143,755.4,500.22232142857143,161.12857142857143,856.4,511.22232142857143,159.12857142857143,962.5,511.22232142857143,151.12857142857143,1068.6,534.2223214285714,114.12857142857143,1170.6,545.2223214285714,87.12857142857143,1277.3,546.2223214285714,84.12857142857143,1392.2,546.2223214285714,84.12857142857143,1497.7,546.2223214285714,84.12857142857143,1600.2,546.2223214285714,84.12857142857143,1709.4,546.2223214285714,84.12857142857143,1814.2,546.2223214285714,84.12857142857143,1917.3,546.2223214285714,84.12857142857143,2028.4,546.2223214285714,84.12857142857143,2133.7,546.2223214285714,84.12857142857143,2236.3,546.2223214285714,84.12857142857143,2338.5,546.2223214285714,84.12857142857143,2459.1,546.2223214285714,84.12857142857143,2566.1,546.2223214285714,84.12857142857143,2669,436.22232142857143,385.12857142857143,2794.4,431.22232142857143,389.12857142857143,2910.2,431.22232142857143,389.12857142857143,3014.3,431.22232142857143,389.12857142857143,3119.8,431.22232142857143,389.12857142857143,3237,431.22232142857143,389.12857142857143,3339.3,431.22232142857143,389.12857142857143,3443.5,431.22232142857143,389.12857142857143,3547.8,431.22232142857143,389.12857142857143,3650.9,431.22232142857143,389.12857142857143,3758.6,431.22232142857143,389.12857142857143,3863.1,431.22232142857143,389.12857142857143,3964.6,431.22232142857143,389.12857142857143,4067.9,431.22232142857143,389.12857142857143,4179.1,431.22232142857143,389.12857142857143,4285,431.22232142857143,389.12857142857143,4388.7,431.22232142857143,389.12857142857143,4495.3,431.22232142857143,389.12857142857143,4605.8,431.22232142857143,389.12857142857143,4717.8,431.22232142857143,389.12857142857143,4826.1,431.22232142857143,389.12857142857143,4935]","[1670.5,1670.5,1000,0,670.6,""smooth"",""up"",""up"",""bad_move"",5403,3727.7,2155.9,1675.4,1571.7,""oops"",""left"",""right"",""bad_move"",8532.1,3126.4,2512.3,5405.8,614,""smooth"",""down"",""down"",""good_move"",11339.2,2803.1,2154.9,8536.1,648.2,""smooth"",""down"",""down"",""good_move"",14352.6,3010.9,2524.6,11341.8,486.3,""smooth"",""down"",""down"",""good_move"",17689.2,3332.2,2770.5,14357.1,561.7,""oops"",""left"",""right"",""bad_move"",25037.5,7346.8,2760.4,21758.5,518.6,""oops"",""left"",""right"",""bad_move"",28772.9,3732.3,2985.3,25040.6,747,""oops"",""left"",""left"",""good_move"",32055.5,3274.2,2666.3,28781.3,607.9,""smooth"",""left"",""left"",""good_move"",35942.2,3872.6,2314.8,32069.6,1557.8,""smooth"",""left"",""left"",""good_move"",40155.1,4185,1915.6,35970.1,2269.4,""oops"",""left"",""right"",""bad_move""]","",""
"8274","","<div style=""width:500px;"">
  <p>What determined the result of this run?</p>
  </div>","87","html-slider-response","30","835319","0.0-5.0-1.4","210","1","2025-07-23 10:37:34","1f75c3e559b7213887762d5229550c2b","197.185.164.175","Mozilla/5.0 (Windows NT 10.0; Win64; x64) AppleWebKit/537.36 (KHTML, like Gecko) Chrome/138.0.0.0 Safari/537.36","WebKit","Chrome","138.0.0.0","Windows","10.0","https://app.prolific.com/","en-US,en;q=0.9","67eaee55a9b4d89e82b8df37","683db9eb0562dbf637994deb","6880bb4e96689cb8098c2a7d","2","1","67eaee55a9b4d89e82b8df37","2","1","2025-07-23T10:51:46.363Z","","","","","","","","","","","AttribQ","","50","","","","","","","","","","","","","","","","","","","","","","","","","","","","",""
"4117","","<div style=""width:500px;"">
  <p>How much control did you have over the ball?</p>
  </div>","92","html-slider-response","31","839441","0.0-5.0-2.4","210","1","2025-07-23 10:37:34","1f75c3e559b7213887762d5229550c2b","197.185.164.175","Mozilla/5.0 (Windows NT 10.0; Win64; x64) AppleWebKit/537.36 (KHTML, like Gecko) Chrome/138.0.0.0 Safari/537.36","WebKit","Chrome","138.0.0.0","Windows","10.0","https://app.prolific.com/","en-US,en;q=0.9","67eaee55a9b4d89e82b8df37","683db9eb0562dbf637994deb","6880bb4e96689cb8098c2a7d","2","1","67eaee55a9b4d89e82b8df37","2","1","2025-07-23T10:51:50.485Z","","","","","","","","","","","ControlQ","","50","","","","","","","","","","","","","","","","","","","","","","","","","","","","",""
"3727","","<div style=""width:500px;"">
  <p>How would you describe your current emotional state?</p>
  </div>","1","html-slider-response","32","843175","0.0-5.0-3.4","210","1","2025-07-23 10:37:34","1f75c3e559b7213887762d5229550c2b","197.185.164.175","Mozilla/5.0 (Windows NT 10.0; Win64; x64) AppleWebKit/537.36 (KHTML, like Gecko) Chrome/138.0.0.0 Safari/537.36","WebKit","Chrome","138.0.0.0","Windows","10.0","https://app.prolific.com/","en-US,en;q=0.9","67eaee55a9b4d89e82b8df37","683db9eb0562dbf637994deb","6880bb4e96689cb8098c2a7d","2","1","67eaee55a9b4d89e82b8df37","2","1","2025-07-23T10:51:54.219Z","","","","","","","","","","","StressQ","","50","","","","","","","","","","","","","","","","","","","","","","","","","","","","",""
"4352","","<div style=""width:500px;"">
  <p>What best describes how you currently feel?</p>
  </div>","94","html-slider-response","33","847535","0.0-5.0-4.4","210","1","2025-07-23 10:37:34","1f75c3e559b7213887762d5229550c2b","197.185.164.175","Mozilla/5.0 (Windows NT 10.0; Win64; x64) AppleWebKit/537.36 (KHTML, like Gecko) Chrome/138.0.0.0 Safari/537.36","WebKit","Chrome","138.0.0.0","Windows","10.0","https://app.prolific.com/","en-US,en;q=0.9","67eaee55a9b4d89e82b8df37","683db9eb0562dbf637994deb","6880bb4e96689cb8098c2a7d","2","1","67eaee55a9b4d89e82b8df37","2","1","2025-07-23T10:51:58.579Z","","","","","","","","","","","MotivationQ","","50","","","","","","","","","","","","","","","","","","","","","","","","","","","","",""
"","","","","ctl-task-cpt","34","883155","0.0-5.0-0.5","210","1","2025-07-23 10:37:34","1f75c3e559b7213887762d5229550c2b","197.185.164.175","Mozilla/5.0 (Windows NT 10.0; Win64; x64) AppleWebKit/537.36 (KHTML, like Gecko) Chrome/138.0.0.0 Safari/537.36","WebKit","Chrome","138.0.0.0","Windows","10.0","https://app.prolific.com/","en-US,en;q=0.9","67eaee55a9b4d89e82b8df37","683db9eb0562dbf637994deb","6880bb4e96689cb8098c2a7d","2","1","67eaee55a9b4d89e82b8df37","2","1","2025-07-23T10:52:34.198Z","","","","","","","","","","","","","","win-only","2","g1:SE,g2:NW","0.5","6","0","857127.1","2098.5","7115.6","32590.9","1","4","8","6","2","-8","-8","0","3","0","1831.2","3000","-1055","[""left"",""up""]","{""num_key_presses"":5,""num_perfect"":1,""num_errors"":0,""num_randdir"":4,""num_randdir_good_moves"":0,""num_whilered"":0,""num_whileblue"":0,""num_blue"":1,""num_good_moves"":1}","[291.22232142857143,293.12857142857143,1.9,291.22232142857143,293.12857142857143,122.3,291.22232142857143,293.12857142857143,261.3,291.22232142857143,293.12857142857143,432.5,291.22232142857143,293.12857142857143,610.1,291.22232142857143,293.12857142857143,719.6,291.22232142857143,276.12857142857143,827.6,65.22232142857143,24.128571428571426,937.2,54.222321428571426,19.128571428571426,1065.9,54.222321428571426,19.128571428571426,1181.1,43.222321428571426,19.128571428571426,1289.6,41.222321428571426,26.128571428571426,1390.5,48.222321428571426,43.128571428571426,1497.8,50.222321428571426,49.128571428571426,1605.6,50.222321428571426,49.128571428571426,1717.2,50.222321428571426,49.128571428571426,1819.2,50.222321428571426,49.128571428571426,1934.4,50.222321428571426,49.128571428571426,2045.7,50.222321428571426,49.128571428571426,2147,50.222321428571426,49.128571428571426,2251.2,86.22232142857143,51.128571428571426,2366,353.22232142857143,369.12857142857143,2468.2,337.22232142857143,500.12857142857143,2569.4,337.22232142857143,500.12857142857143,2671.4,337.22232142857143,500.12857142857143,2793.7,337.22232142857143,500.12857142857143,2915.3,337.22232142857143,500.12857142857143,3021.2,337.22232142857143,500.12857142857143,3122.9,337.22232142857143,500.12857142857143,3234,337.22232142857143,500.12857142857143,3352.6,337.22232142857143,500.12857142857143,3454.1,337.22232142857143,500.12857142857143,3554.1,337.22232142857143,500.12857142857143,3662.9,337.22232142857143,500.12857142857143,3772.8,337.22232142857143,500.12857142857143,3872.9,337.22232142857143,500.12857142857143,3983.8,337.22232142857143,500.12857142857143,4097.2,337.22232142857143,500.12857142857143,4213,337.22232142857143,500.12857142857143,4313.4,337.22232142857143,500.12857142857143,4421.2,337.22232142857143,500.12857142857143,4531.6,337.22232142857143,500.12857142857143,4633.5,337.22232142857143,500.12857142857143,4754.4,337.22232142857143,500.12857142857143,4854.5,337.22232142857143,500.12857142857143,4960.8]","[2530.1,2530.1,1000,0,1530.1,""oops"",""up"",""right"",""bad_move"",5669.6,3135.4,2651.5,2534.2,483.9,""oops"",""up"",""right"",""bad_move"",9157.8,3485.7,2895.8,5672.1,589.9,""oops"",""up"",""down"",""bad_move"",14502.5,5339.3,3150.9,9163.2,2188.4,""oops"",""up"",""down"",""bad_move"",21558.7,7054.9,1423.8,17726.1,2408.8,""smooth"",""up"",""up"",""good_move""]","",""
"12659","","<div style=""width:500px;"">
  <p>What determined the result of this run?</p>
  </div>","87","html-slider-response","35","895818","0.0-5.0-1.5","210","1","2025-07-23 10:37:34","1f75c3e559b7213887762d5229550c2b","197.185.164.175","Mozilla/5.0 (Windows NT 10.0; Win64; x64) AppleWebKit/537.36 (KHTML, like Gecko) Chrome/138.0.0.0 Safari/537.36","WebKit","Chrome","138.0.0.0","Windows","10.0","https://app.prolific.com/","en-US,en;q=0.9","67eaee55a9b4d89e82b8df37","683db9eb0562dbf637994deb","6880bb4e96689cb8098c2a7d","2","1","67eaee55a9b4d89e82b8df37","2","1","2025-07-23T10:52:46.861Z","","","","","","","","","","","AttribQ","","50","","","","","","","","","","","","","","","","","","","","","","","","","","","","",""
"13015","","<div style=""width:500px;"">
  <p>How much control did you have over the ball?</p>
  </div>","93","html-slider-response","36","908839","0.0-5.0-2.5","210","1","2025-07-23 10:37:34","1f75c3e559b7213887762d5229550c2b","197.185.164.175","Mozilla/5.0 (Windows NT 10.0; Win64; x64) AppleWebKit/537.36 (KHTML, like Gecko) Chrome/138.0.0.0 Safari/537.36","WebKit","Chrome","138.0.0.0","Windows","10.0","https://app.prolific.com/","en-US,en;q=0.9","67eaee55a9b4d89e82b8df37","683db9eb0562dbf637994deb","6880bb4e96689cb8098c2a7d","2","1","67eaee55a9b4d89e82b8df37","2","1","2025-07-23T10:52:59.883Z","","","","","","","","","","","ControlQ","","50","","","","","","","","","","","","","","","","","","","","","","","","","","","","",""
"8457","","<div style=""width:500px;"">
  <p>How would you describe your current emotional state?</p>
  </div>","3","html-slider-response","37","917304","0.0-5.0-3.5","210","1","2025-07-23 10:37:34","1f75c3e559b7213887762d5229550c2b","197.185.164.175","Mozilla/5.0 (Windows NT 10.0; Win64; x64) AppleWebKit/537.36 (KHTML, like Gecko) Chrome/138.0.0.0 Safari/537.36","WebKit","Chrome","138.0.0.0","Windows","10.0","https://app.prolific.com/","en-US,en;q=0.9","67eaee55a9b4d89e82b8df37","683db9eb0562dbf637994deb","6880bb4e96689cb8098c2a7d","2","1","67eaee55a9b4d89e82b8df37","2","1","2025-07-23T10:53:08.347Z","","","","","","","","","","","StressQ","","50","","","","","","","","","","","","","","","","","","","","","","","","","","","","",""
"25697","","<div style=""width:500px;"">
  <p>What best describes how you currently feel?</p>
  </div>","95","html-slider-response","38","943005","0.0-5.0-4.5","210","1","2025-07-23 10:37:34","1f75c3e559b7213887762d5229550c2b","197.185.164.175","Mozilla/5.0 (Windows NT 10.0; Win64; x64) AppleWebKit/537.36 (KHTML, like Gecko) Chrome/138.0.0.0 Safari/537.36","WebKit","Chrome","138.0.0.0","Windows","10.0","https://app.prolific.com/","en-US,en;q=0.9","67eaee55a9b4d89e82b8df37","683db9eb0562dbf637994deb","6880bb4e96689cb8098c2a7d","2","1","67eaee55a9b4d89e82b8df37","2","1","2025-07-23T10:53:34.049Z","","","","","","","","","","","MotivationQ","","50","","","","","","","","","","","","","","","","","","","","","","","","","","","","",""
"","","","","ctl-task-cpt","39","1026303","0.0-5.0-0.6","210","1","2025-07-23 10:37:34","1f75c3e559b7213887762d5229550c2b","197.185.164.175","Mozilla/5.0 (Windows NT 10.0; Win64; x64) AppleWebKit/537.36 (KHTML, like Gecko) Chrome/138.0.0.0 Safari/537.36","WebKit","Chrome","138.0.0.0","Windows","10.0","https://app.prolific.com/","en-US,en;q=0.9","67eaee55a9b4d89e82b8df37","683db9eb0562dbf637994deb","6880bb4e96689cb8098c2a7d","2","1","67eaee55a9b4d89e82b8df37","2","1","2025-07-23T10:54:57.346Z","","","","","","","","","","","","","","win-only","1","g1:NE,g2:SW","0.4","7","0","952634.1","23373.5","28388","80234.9","1","4","4","6","2","-4","-4","0","0","0","1800.8","3000","-1005","[""down"",""left""]","{""num_key_presses"":10,""num_perfect"":4,""num_errors"":0,""num_randdir"":6,""num_randdir_good_moves"":2,""num_whilered"":0,""num_whileblue"":0,""num_blue"":4,""num_good_moves"":6}","[295.22232142857143,297.12857142857143,4.2,295.22232142857143,297.12857142857143,104.3,295.22232142857143,297.12857142857143,222.4,295.22232142857143,297.12857142857143,324.7,295.22232142857143,297.12857142857143,442.9,295.22232142857143,297.12857142857143,547.1,295.22232142857143,297.12857142857143,655,295.22232142857143,297.12857142857143,764.4,295.22232142857143,297.12857142857143,875,244.22232142857143,339.12857142857143,975.5,91.22232142857143,500.12857142857143,1092.9,83.22232142857143,502.12857142857143,1208.9,66.22232142857143,509.12857142857143,1311.3,56.222321428571426,528.1285714285714,1412.3,56.222321428571426,541.1285714285714,1525.6,56.222321428571426,541.1285714285714,1634.2,56.222321428571426,541.1285714285714,1742.7,56.222321428571426,541.1285714285714,1844.7,56.222321428571426,541.1285714285714,1970.2,56.222321428571426,541.1285714285714,2077.5,56.222321428571426,541.1285714285714,2182.3,56.222321428571426,541.1285714285714,2284.7,56.222321428571426,541.1285714285714,2392.4,56.222321428571426,541.1285714285714,2508,135.22232142857143,605.1285714285714,2610.2,233.22232142857143,683.1285714285714,2723.8,242.22232142857143,683.1285714285714,2827.4,242.22232142857143,683.1285714285714,2930.7,242.22232142857143,683.1285714285714,3045.6,242.22232142857143,683.1285714285714,3150,242.22232142857143,683.1285714285714,3257.6,242.22232142857143,683.1285714285714,3371.2,242.22232142857143,683.1285714285714,3488.1,242.22232142857143,683.1285714285714,3599.8,242.22232142857143,683.1285714285714,3700.7,242.22232142857143,683.1285714285714,3801.6,242.22232142857143,683.1285714285714,3934.6,242.22232142857143,683.1285714285714,4047.4,242.22232142857143,683.1285714285714,4148.1,242.22232142857143,683.1285714285714,4255.8,242.22232142857143,683.1285714285714,4361.3,242.22232142857143,683.1285714285714,4462.3,242.22232142857143,683.1285714285714,4577.6,242.22232142857143,683.1285714285714,4680.1,242.22232142857143,683.1285714285714,4790.4,242.22232142857143,683.1285714285714,4894.2]","[1477,1477.1,1000,0,477.1,""smooth"",""down"",""down"",""good_move"",4134.7,2654,2179.5,1480.8,474.5,""oops"",""down"",""left"",""good_move"",8131.7,3988.7,3043.8,4143,944.9,""oops"",""down"",""down"",""good_move"",11451,3316.1,2486.7,8134.9,829.4,""smooth"",""down"",""down"",""good_move"",14904.1,3447,2817.9,11457.1,629.1,""oops"",""left"",""right"",""bad_move"",22231.2,7322.8,2851.9,18180.5,1198.8,""smooth"",""left"",""left"",""good_move"",26858.6,4624.4,2166.7,22234.2,2457.7,""oops"",""left"",""right"",""bad_move"",33488.8,6625.6,2463.9,30516.2,508.7,""smooth"",""left"",""left"",""good_move"",40409.3,6917.2,2388.6,37052.6,968.1,""oops"",""left"",""right"",""bad_move"",48330.9,7889.1,2491.4,44356,1483.5,""oops"",""left"",""up"",""bad_move""]","",""
"6110","","<div style=""width:500px;"">
  <p>What determined the result of this run?</p>
  </div>","60","html-slider-response","40","1032417","0.0-5.0-1.6","210","1","2025-07-23 10:37:34","1f75c3e559b7213887762d5229550c2b","197.185.164.175","Mozilla/5.0 (Windows NT 10.0; Win64; x64) AppleWebKit/537.36 (KHTML, like Gecko) Chrome/138.0.0.0 Safari/537.36","WebKit","Chrome","138.0.0.0","Windows","10.0","https://app.prolific.com/","en-US,en;q=0.9","67eaee55a9b4d89e82b8df37","683db9eb0562dbf637994deb","6880bb4e96689cb8098c2a7d","2","1","67eaee55a9b4d89e82b8df37","2","1","2025-07-23T10:55:03.461Z","","","","","","","","","","","AttribQ","","50","","","","","","","","","","","","","","","","","","","","","","","","","","","","",""
"8451","","<div style=""width:500px;"">
  <p>How much control did you have over the ball?</p>
  </div>","58","html-slider-response","41","1040877","0.0-5.0-2.6","210","1","2025-07-23 10:37:34","1f75c3e559b7213887762d5229550c2b","197.185.164.175","Mozilla/5.0 (Windows NT 10.0; Win64; x64) AppleWebKit/537.36 (KHTML, like Gecko) Chrome/138.0.0.0 Safari/537.36","WebKit","Chrome","138.0.0.0","Windows","10.0","https://app.prolific.com/","en-US,en;q=0.9","67eaee55a9b4d89e82b8df37","683db9eb0562dbf637994deb","6880bb4e96689cb8098c2a7d","2","1","67eaee55a9b4d89e82b8df37","2","1","2025-07-23T10:55:11.939Z","","","","","","","","","","","ControlQ","","50","","","","","","","","","","","","","","","","","","","","","","","","","","","","",""
"3822","","<div style=""width:500px;"">
  <p>How would you describe your current emotional state?</p>
  </div>","3","html-slider-response","42","1044723","0.0-5.0-3.6","210","1","2025-07-23 10:37:34","1f75c3e559b7213887762d5229550c2b","197.185.164.175","Mozilla/5.0 (Windows NT 10.0; Win64; x64) AppleWebKit/537.36 (KHTML, like Gecko) Chrome/138.0.0.0 Safari/537.36","WebKit","Chrome","138.0.0.0","Windows","10.0","https://app.prolific.com/","en-US,en;q=0.9","67eaee55a9b4d89e82b8df37","683db9eb0562dbf637994deb","6880bb4e96689cb8098c2a7d","2","1","67eaee55a9b4d89e82b8df37","2","1","2025-07-23T10:55:15.766Z","","","","","","","","","","","StressQ","","50","","","","","","","","","","","","","","","","","","","","","","","","","","","","",""
"8458","","<div style=""width:500px;"">
  <p>What best describes how you currently feel?</p>
  </div>","78","html-slider-response","43","1053184","0.0-5.0-4.6","210","1","2025-07-23 10:37:34","1f75c3e559b7213887762d5229550c2b","197.185.164.175","Mozilla/5.0 (Windows NT 10.0; Win64; x64) AppleWebKit/537.36 (KHTML, like Gecko) Chrome/138.0.0.0 Safari/537.36","WebKit","Chrome","138.0.0.0","Windows","10.0","https://app.prolific.com/","en-US,en;q=0.9","67eaee55a9b4d89e82b8df37","683db9eb0562dbf637994deb","6880bb4e96689cb8098c2a7d","2","1","67eaee55a9b4d89e82b8df37","2","1","2025-07-23T10:55:24.227Z","","","","","","","","","","","MotivationQ","","50","","","","","","","","","","","","","","","","","","","","","","","","","","","","",""
"","","","","ctl-task-cpt","44","1117044","0.0-5.0-0.7","210","1","2025-07-23 10:37:34","1f75c3e559b7213887762d5229550c2b","197.185.164.175","Mozilla/5.0 (Windows NT 10.0; Win64; x64) AppleWebKit/537.36 (KHTML, like Gecko) Chrome/138.0.0.0 Safari/537.36","WebKit","Chrome","138.0.0.0","Windows","10.0","https://app.prolific.com/","en-US,en;q=0.9","67eaee55a9b4d89e82b8df37","683db9eb0562dbf637994deb","6880bb4e96689cb8098c2a7d","2","1","67eaee55a9b4d89e82b8df37","2","1","2025-07-23T10:56:28.088Z","","","","","","","","","","","","","","win-only","3","g1:SW,g2:NE","0.3","8","0","1062777.1","2890.8","7908.3","60836.2","1","4","8","6","2","-8","-8","0","0","0","5017.5","3000","-885","[""up"",""right""]","{""num_key_presses"":11,""num_perfect"":4,""num_errors"":0,""num_randdir"":7,""num_randdir_good_moves"":3,""num_whilered"":0,""num_whileblue"":0,""num_blue"":2,""num_good_moves"":7}","[297.22232142857143,289.12857142857143,2,297.22232142857143,289.12857142857143,100.3,297.22232142857143,289.12857142857143,214,297.22232142857143,289.12857142857143,321.9,297.22232142857143,289.12857142857143,430.3,297.22232142857143,289.12857142857143,535.2,297.22232142857143,289.12857142857143,643.4,297.22232142857143,289.12857142857143,756.1,297.22232142857143,289.12857142857143,868.9,297.22232142857143,289.12857142857143,981.9,297.22232142857143,289.12857142857143,1083.1,297.22232142857143,289.12857142857143,1190.9,297.22232142857143,289.12857142857143,1301.7,297.22232142857143,289.12857142857143,1408.6,297.22232142857143,289.12857142857143,1520.9,297.22232142857143,289.12857142857143,1623.5,297.22232142857143,289.12857142857143,1733.3,297.22232142857143,289.12857142857143,1835.1,297.22232142857143,289.12857142857143,1962.3,297.22232142857143,289.12857142857143,2078.8,297.22232142857143,289.12857142857143,2186.3,297.22232142857143,289.12857142857143,2293.8,297.22232142857143,289.12857142857143,2401,297.22232142857143,289.12857142857143,2501.2,297.22232142857143,289.12857142857143,2603.6,297.22232142857143,289.12857142857143,2705.5,297.22232142857143,289.12857142857143,2819.3,297.22232142857143,289.12857142857143,2923.8,297.22232142857143,289.12857142857143,3024,297.22232142857143,289.12857142857143,3137,297.22232142857143,289.12857142857143,3256.1,297.22232142857143,289.12857142857143,3362.2,297.22232142857143,289.12857142857143,3474.8,297.22232142857143,289.12857142857143,3593.7,297.22232142857143,289.12857142857143,3701,297.22232142857143,289.12857142857143,3816.8,297.22232142857143,289.12857142857143,3921.7,297.22232142857143,289.12857142857143,4024.7,297.22232142857143,289.12857142857143,4129.5,297.22232142857143,289.12857142857143,4235.1,297.22232142857143,289.12857142857143,4335.1,297.22232142857143,289.12857142857143,4446.3,297.22232142857143,289.12857142857143,4553.3,297.22232142857143,289.12857142857143,4667.3,297.22232142857143,289.12857142857143,4769.4,297.22232142857143,289.12857142857143,4885.4,297.22232142857143,289.12857142857143,4995.7]","[5473.2,5473.2,1000,0,4473.2,""oops"",""up"",""up"",""good_move"",13618.2,8106.6,2236.4,10723.8,658,""oops"",""up"",""right"",""good_move"",16375.5,2757,2228.1,13618.5,528.9,""oops"",""up"",""down"",""bad_move"",20025.7,3650.1,3173.4,16375.8,476.7,""smooth"",""up"",""up"",""good_move"",24197.3,4126.8,2402.9,20070.7,1723.8,""smooth"",""up"",""up"",""good_move"",28110.6,3910.3,2953.6,24200.3,956.7,""oops"",""up"",""left"",""bad_move"",31611.8,3496.5,2247.2,28115.4,1249.2,""oops"",""right"",""right"",""good_move"",34880.3,3266.6,2755.2,31613.7,511.4,""oops"",""right"",""left"",""bad_move"",42567.6,7676.9,3254.8,38730.3,582.5,""smooth"",""right"",""right"",""good_move"",45586.4,3015.8,2092.1,42570.7,923.6,""oops"",""right"",""left"",""bad_move"",49675.5,4086.4,2796.3,45589.1,1290.1,""smooth"",""right"",""right"",""good_move""]","",""
"10563","","<div style=""width:500px;"">
  <p>What determined the result of this run?</p>
  </div>","77","html-slider-response","45","1127618","0.0-5.0-1.7","210","1","2025-07-23 10:37:34","1f75c3e559b7213887762d5229550c2b","197.185.164.175","Mozilla/5.0 (Windows NT 10.0; Win64; x64) AppleWebKit/537.36 (KHTML, like Gecko) Chrome/138.0.0.0 Safari/537.36","WebKit","Chrome","138.0.0.0","Windows","10.0","https://app.prolific.com/","en-US,en;q=0.9","67eaee55a9b4d89e82b8df37","683db9eb0562dbf637994deb","6880bb4e96689cb8098c2a7d","2","1","67eaee55a9b4d89e82b8df37","2","1","2025-07-23T10:56:38.661Z","","","","","","","","","","","AttribQ","","50","","","","","","","","","","","","","","","","","","","","","","","","","","","","",""
"5322","","<div style=""width:500px;"">
  <p>How much control did you have over the ball?</p>
  </div>","20","html-slider-response","46","1132945","0.0-5.0-2.7","210","1","2025-07-23 10:37:34","1f75c3e559b7213887762d5229550c2b","197.185.164.175","Mozilla/5.0 (Windows NT 10.0; Win64; x64) AppleWebKit/537.36 (KHTML, like Gecko) Chrome/138.0.0.0 Safari/537.36","WebKit","Chrome","138.0.0.0","Windows","10.0","https://app.prolific.com/","en-US,en;q=0.9","67eaee55a9b4d89e82b8df37","683db9eb0562dbf637994deb","6880bb4e96689cb8098c2a7d","2","1","67eaee55a9b4d89e82b8df37","2","1","2025-07-23T10:56:43.989Z","","","","","","","","","","","ControlQ","","50","","","","","","","","","","","","","","","","","","","","","","","","","","","","",""
"3114","","<div style=""width:500px;"">
  <p>How would you describe your current emotional state?</p>
  </div>","11","html-slider-response","47","1136066","0.0-5.0-3.7","210","1","2025-07-23 10:37:34","1f75c3e559b7213887762d5229550c2b","197.185.164.175","Mozilla/5.0 (Windows NT 10.0; Win64; x64) AppleWebKit/537.36 (KHTML, like Gecko) Chrome/138.0.0.0 Safari/537.36","WebKit","Chrome","138.0.0.0","Windows","10.0","https://app.prolific.com/","en-US,en;q=0.9","67eaee55a9b4d89e82b8df37","683db9eb0562dbf637994deb","6880bb4e96689cb8098c2a7d","2","1","67eaee55a9b4d89e82b8df37","2","1","2025-07-23T10:56:47.109Z","","","","","","","","","","","StressQ","","50","","","","","","","","","","","","","","","","","","","","","","","","","","","","",""
"4241","","<div style=""width:500px;"">
  <p>What best describes how you currently feel?</p>
  </div>","67","html-slider-response","48","1140314","0.0-5.0-4.7","210","1","2025-07-23 10:37:34","1f75c3e559b7213887762d5229550c2b","197.185.164.175","Mozilla/5.0 (Windows NT 10.0; Win64; x64) AppleWebKit/537.36 (KHTML, like Gecko) Chrome/138.0.0.0 Safari/537.36","WebKit","Chrome","138.0.0.0","Windows","10.0","https://app.prolific.com/","en-US,en;q=0.9","67eaee55a9b4d89e82b8df37","683db9eb0562dbf637994deb","6880bb4e96689cb8098c2a7d","2","1","67eaee55a9b4d89e82b8df37","2","1","2025-07-23T10:56:51.358Z","","","","","","","","","","","MotivationQ","","50","","","","","","","","","","","","","","","","","","","","","","","","","","","","",""
"","","","","ctl-task-cpt","49","1217237","0.0-5.0-0.8","210","1","2025-07-23 10:37:34","1f75c3e559b7213887762d5229550c2b","197.185.164.175","Mozilla/5.0 (Windows NT 10.0; Win64; x64) AppleWebKit/537.36 (KHTML, like Gecko) Chrome/138.0.0.0 Safari/537.36","WebKit","Chrome","138.0.0.0","Windows","10.0","https://app.prolific.com/","en-US,en;q=0.9","67eaee55a9b4d89e82b8df37","683db9eb0562dbf637994deb","6880bb4e96689cb8098c2a7d","2","1","67eaee55a9b4d89e82b8df37","2","1","2025-07-23T10:58:08.281Z","","","","","","","","","","","","","","win-only","0","g1:NW,g2:SE","0.2","9","0","1149912.8","1959.8","6974.4","73886","1","4","8","6","2","-8","-10","0","0","0","2305.7","3000","-750","[""down"",""right""]","{""num_key_presses"":17,""num_perfect"":3,""num_errors"":2,""num_randdir"":12,""num_randdir_good_moves"":6,""num_whilered"":0,""num_whileblue"":0,""num_blue"":2,""num_good_moves"":9}","[294.22232142857143,298.12857142857143,1.1,294.22232142857143,298.12857142857143,118.8,294.22232142857143,298.12857142857143,226.9,294.22232142857143,298.12857142857143,338.5,294.22232142857143,298.12857142857143,441.8,294.22232142857143,298.12857142857143,547.5,294.22232142857143,298.12857142857143,649.4,294.22232142857143,298.12857142857143,769,294.22232142857143,298.12857142857143,884.2,294.22232142857143,298.12857142857143,984.8,294.22232142857143,298.12857142857143,1093.6,294.22232142857143,298.12857142857143,1206,352.22232142857143,302.12857142857143,1316.2,544.2223214285714,374.12857142857143,1425.4,555.2223214285714,430.12857142857143,1539.3,555.2223214285714,430.12857142857143,1642.4,523.2223214285714,509.12857142857143,1760,536.2223214285714,558.1285714285714,1870.1,535.2223214285714,560.1285714285714,1984.2,535.2223214285714,560.1285714285714,2085.2,535.2223214285714,560.1285714285714,2191.1,535.2223214285714,560.1285714285714,2308.7,535.2223214285714,560.1285714285714,2408.7,535.2223214285714,560.1285714285714,2508.8,535.2223214285714,560.1285714285714,2617.1,535.2223214285714,560.1285714285714,2721.7,535.2223214285714,560.1285714285714,2827.6,535.2223214285714,560.1285714285714,2940.8,535.2223214285714,560.1285714285714,3059.8,535.2223214285714,560.1285714285714,3175.4,535.2223214285714,560.1285714285714,3285.2,535.2223214285714,560.1285714285714,3386.6,535.2223214285714,560.1285714285714,3499.5,535.2223214285714,560.1285714285714,3602.2,535.2223214285714,560.1285714285714,3716.7,535.2223214285714,560.1285714285714,3817.5,535.2223214285714,560.1285714285714,3924.9,535.2223214285714,560.1285714285714,4033.3,535.2223214285714,560.1285714285714,4146.4,535.2223214285714,560.1285714285714,4247.6,535.2223214285714,560.1285714285714,4357.2,535.2223214285714,560.1285714285714,4468.1,535.2223214285714,560.1285714285714,4569.8,535.2223214285714,560.1285714285714,4682.2,535.2223214285714,560.1285714285714,4797.8,452.22232142857143,555.1285714285714,4907.7]","[1074.1,1074.1,1000,0,74.1,""oops"",""right"",""down"",""good_move"",4995.8,3917.8,2424.8,1078,1493,""smooth"",""right"",""right"",""good_move"",9864.5,4867.9,3125.6,4996.7,1742.2,""oops"",""right"",""right"",""good_move"",13102.4,3237.3,2754.3,9865.1,483,""smooth"",""right"",""right"",""good_move"",16911.3,3808.7,2416.9,13102.6,1391.8,""oops"",""down"",""up"",""bad_move"",23414.3,6502.6,1886.5,20874.2,653.6,""oops"",""down"",""up"",""bad_move"",27039.2,3620.5,3080.8,23418.9,539.5,""oops"",""up"",""left"",""bad_move"",30878.2,3837.9,3046.1,27040.3,791.8,""oops"",""up"",""left"",""bad_move"",33498,2619.7,2384.4,30878.3,235.4,""error"",""-"",""-"",""no_move"",38233.3,4733.5,3240,34512.8,480.6,""oops"",""down"",""left"",""bad_move"",41993.1,3759.8,2995.2,38233.4,764.6,""oops"",""left"",""left"",""bad_move"",45488.1,3493.5,2643.9,41994.6,849.6,""oops"",""right"",""down"",""good_move"",48956.4,3467,2817.4,45489.4,649.7,""oops"",""right"",""right"",""good_move"",55119.3,6157.6,2568.5,52104.6,446.2,""smooth"",""right"",""right"",""good_move"",58098.9,2974.5,2548.4,55124.4,426.1,""oops"",""right"",""down"",""good_move"",60652.5,2549.8,2052.2,58102.7,497.6,""oops"",""right"",""right"",""good_move"",62967.6,2307.3,3173.2,60660.3,-865.9,""error"",""-"",""-"",""no_move""]","",""
"11262","","<div style=""width:500px;"">
  <p>What determined the result of this run?</p>
  </div>","85","html-slider-response","50","1228503","0.0-5.0-1.8","210","1","2025-07-23 10:37:34","1f75c3e559b7213887762d5229550c2b","197.185.164.175","Mozilla/5.0 (Windows NT 10.0; Win64; x64) AppleWebKit/537.36 (KHTML, like Gecko) Chrome/138.0.0.0 Safari/537.36","WebKit","Chrome","138.0.0.0","Windows","10.0","https://app.prolific.com/","en-US,en;q=0.9","67eaee55a9b4d89e82b8df37","683db9eb0562dbf637994deb","6880bb4e96689cb8098c2a7d","2","1","67eaee55a9b4d89e82b8df37","2","1","2025-07-23T10:58:19.547Z","","","","","","","","","","","AttribQ","","50","","","","","","","","","","","","","","","","","","","","","","","","","","","","",""
"3289","","<div style=""width:500px;"">
  <p>How much control did you have over the ball?</p>
  </div>","77","html-slider-response","51","1231805","0.0-5.0-2.8","210","1","2025-07-23 10:37:34","1f75c3e559b7213887762d5229550c2b","197.185.164.175","Mozilla/5.0 (Windows NT 10.0; Win64; x64) AppleWebKit/537.36 (KHTML, like Gecko) Chrome/138.0.0.0 Safari/537.36","WebKit","Chrome","138.0.0.0","Windows","10.0","https://app.prolific.com/","en-US,en;q=0.9","67eaee55a9b4d89e82b8df37","683db9eb0562dbf637994deb","6880bb4e96689cb8098c2a7d","2","1","67eaee55a9b4d89e82b8df37","2","1","2025-07-23T10:58:22.850Z","","","","","","","","","","","ControlQ","","50","","","","","","","","","","","","","","","","","","","","","","","","","","","","",""
"3513","","<div style=""width:500px;"">
  <p>How would you describe your current emotional state?</p>
  </div>","8","html-slider-response","52","1235327","0.0-5.0-3.8","210","1","2025-07-23 10:37:34","1f75c3e559b7213887762d5229550c2b","197.185.164.175","Mozilla/5.0 (Windows NT 10.0; Win64; x64) AppleWebKit/537.36 (KHTML, like Gecko) Chrome/138.0.0.0 Safari/537.36","WebKit","Chrome","138.0.0.0","Windows","10.0","https://app.prolific.com/","en-US,en;q=0.9","67eaee55a9b4d89e82b8df37","683db9eb0562dbf637994deb","6880bb4e96689cb8098c2a7d","2","1","67eaee55a9b4d89e82b8df37","2","1","2025-07-23T10:58:26.371Z","","","","","","","","","","","StressQ","","50","","","","","","","","","","","","","","","","","","","","","","","","","","","","",""
"4058","","<div style=""width:500px;"">
  <p>What best describes how you currently feel?</p>
  </div>","79","html-slider-response","53","1239394","0.0-5.0-4.8","210","1","2025-07-23 10:37:34","1f75c3e559b7213887762d5229550c2b","197.185.164.175","Mozilla/5.0 (Windows NT 10.0; Win64; x64) AppleWebKit/537.36 (KHTML, like Gecko) Chrome/138.0.0.0 Safari/537.36","WebKit","Chrome","138.0.0.0","Windows","10.0","https://app.prolific.com/","en-US,en;q=0.9","67eaee55a9b4d89e82b8df37","683db9eb0562dbf637994deb","6880bb4e96689cb8098c2a7d","2","1","67eaee55a9b4d89e82b8df37","2","1","2025-07-23T10:58:30.438Z","","","","","","","","","","","MotivationQ","","50","","","","","","","","","","","","","","","","","","","","","","","","","","","","",""
"","","","","ctl-task-cpt","54","1277103","0.0-5.0-0.9","210","1","2025-07-23 10:37:34","1f75c3e559b7213887762d5229550c2b","197.185.164.175","Mozilla/5.0 (Windows NT 10.0; Win64; x64) AppleWebKit/537.36 (KHTML, like Gecko) Chrome/138.0.0.0 Safari/537.36","WebKit","Chrome","138.0.0.0","Windows","10.0","https://app.prolific.com/","en-US,en;q=0.9","67eaee55a9b4d89e82b8df37","683db9eb0562dbf637994deb","6880bb4e96689cb8098c2a7d","2","1","67eaee55a9b4d89e82b8df37","2","1","2025-07-23T10:59:08.146Z","","","","","","","","","","","","","","win-only","2","g1:SE,g2:NW","0.4","10","0","1248987.5","3087.7","8093.7","34666","1","4","4","6","1","-1","-1","0","0","0","3731.5","3000","-830","[""down"",""right""]","{""num_key_presses"":3,""num_perfect"":2,""num_errors"":0,""num_randdir"":1,""num_randdir_good_moves"":1,""num_whilered"":0,""num_whileblue"":0,""num_blue"":2,""num_good_moves"":3}","[298.22232142857143,294.12857142857143,2.1,298.22232142857143,294.12857142857143,111.9,298.22232142857143,294.12857142857143,220.9,298.22232142857143,294.12857142857143,338.3,298.22232142857143,294.12857142857143,455.3,298.22232142857143,294.12857142857143,663.8,298.22232142857143,294.12857142857143,890.9,298.22232142857143,294.12857142857143,1002.3,298.22232142857143,294.12857142857143,1108.1,298.22232142857143,294.12857142857143,1226.9,298.22232142857143,294.12857142857143,1351.9,298.22232142857143,294.12857142857143,1453.3,298.22232142857143,294.12857142857143,1559,298.22232142857143,294.12857142857143,1680.2,298.22232142857143,294.12857142857143,1795.7,298.22232142857143,294.12857142857143,1907.5,298.22232142857143,294.12857142857143,2013,298.22232142857143,294.12857142857143,2133.9,298.22232142857143,294.12857142857143,2240.6,298.22232142857143,294.12857142857143,2356.4,298.22232142857143,294.12857142857143,2465.2,298.22232142857143,294.12857142857143,2572,298.22232142857143,294.12857142857143,2674.4,298.22232142857143,294.12857142857143,2780.1,298.22232142857143,294.12857142857143,2890,330.22232142857143,308.12857142857143,2999.2,452.22232142857143,414.12857142857143,3122.2,477.22232142857143,487.12857142857143,3225.5,496.22232142857143,513.1285714285714,3420.6,519.2223214285714,541.1285714285714,3530.2,519.2223214285714,541.1285714285714,3639.9,519.2223214285714,541.1285714285714,3760.9,519.2223214285714,541.1285714285714,3893.4,519.2223214285714,541.1285714285714,4001,519.2223214285714,541.1285714285714,4110.5,519.2223214285714,541.1285714285714,4220.6,519.2223214285714,541.1285714285714,4328.1,519.2223214285714,541.1285714285714,4428.1,519.2223214285714,541.1285714285714,4535,519.2223214285714,541.1285714285714,4635.1,519.2223214285714,541.1285714285714,4754.3,519.2223214285714,541.1285714285714,4867,519.2223214285714,541.1285714285714,4968.4]","[2203.2,2203.2,1000,0,1203.3,""smooth"",""right"",""right"",""good_move"",5670.7,3465.9,2778.7,2204.8,687.2,""smooth"",""right"",""right"",""good_move"",16370.5,10696.7,1837.2,12092.9,2440.4,""oops"",""down"",""down"",""good_move""]","",""
"13618","","<div style=""width:500px;"">
  <p>What determined the result of this run?</p>
  </div>","81","html-slider-response","55","1290724","0.0-5.0-1.9","210","1","2025-07-23 10:37:34","1f75c3e559b7213887762d5229550c2b","197.185.164.175","Mozilla/5.0 (Windows NT 10.0; Win64; x64) AppleWebKit/537.36 (KHTML, like Gecko) Chrome/138.0.0.0 Safari/537.36","WebKit","Chrome","138.0.0.0","Windows","10.0","https://app.prolific.com/","en-US,en;q=0.9","67eaee55a9b4d89e82b8df37","683db9eb0562dbf637994deb","6880bb4e96689cb8098c2a7d","2","1","67eaee55a9b4d89e82b8df37","2","1","2025-07-23T10:59:21.768Z","","","","","","","","","","","AttribQ","","50","","","","","","","","","","","","","","","","","","","","","","","","","","","","",""
"4807","","<div style=""width:500px;"">
  <p>How much control did you have over the ball?</p>
  </div>","85","html-slider-response","56","1295541","0.0-5.0-2.9","210","1","2025-07-23 10:37:34","1f75c3e559b7213887762d5229550c2b","197.185.164.175","Mozilla/5.0 (Windows NT 10.0; Win64; x64) AppleWebKit/537.36 (KHTML, like Gecko) Chrome/138.0.0.0 Safari/537.36","WebKit","Chrome","138.0.0.0","Windows","10.0","https://app.prolific.com/","en-US,en;q=0.9","67eaee55a9b4d89e82b8df37","683db9eb0562dbf637994deb","6880bb4e96689cb8098c2a7d","2","1","67eaee55a9b4d89e82b8df37","2","1","2025-07-23T10:59:26.584Z","","","","","","","","","","","ControlQ","","50","","","","","","","","","","","","","","","","","","","","","","","","","","","","",""
"5314","","<div style=""width:500px;"">
  <p>How would you describe your current emotional state?</p>
  </div>","6","html-slider-response","57","1300893","0.0-5.0-3.9","210","1","2025-07-23 10:37:34","1f75c3e559b7213887762d5229550c2b","197.185.164.175","Mozilla/5.0 (Windows NT 10.0; Win64; x64) AppleWebKit/537.36 (KHTML, like Gecko) Chrome/138.0.0.0 Safari/537.36","WebKit","Chrome","138.0.0.0","Windows","10.0","https://app.prolific.com/","en-US,en;q=0.9","67eaee55a9b4d89e82b8df37","683db9eb0562dbf637994deb","6880bb4e96689cb8098c2a7d","2","1","67eaee55a9b4d89e82b8df37","2","1","2025-07-23T10:59:31.936Z","","","","","","","","","","","StressQ","","50","","","","","","","","","","","","","","","","","","","","","","","","","","","","",""
"4410","","<div style=""width:500px;"">
  <p>What best describes how you currently feel?</p>
  </div>","78","html-slider-response","58","1305377","0.0-5.0-4.9","210","1","2025-07-23 10:37:34","1f75c3e559b7213887762d5229550c2b","197.185.164.175","Mozilla/5.0 (Windows NT 10.0; Win64; x64) AppleWebKit/537.36 (KHTML, like Gecko) Chrome/138.0.0.0 Safari/537.36","WebKit","Chrome","138.0.0.0","Windows","10.0","https://app.prolific.com/","en-US,en;q=0.9","67eaee55a9b4d89e82b8df37","683db9eb0562dbf637994deb","6880bb4e96689cb8098c2a7d","2","1","67eaee55a9b4d89e82b8df37","2","1","2025-07-23T10:59:36.420Z","","","","","","","","","","","MotivationQ","","50","","","","","","","","","","","","","","","","","","","","","","","","","","","","",""
"","","","","ctl-task-cpt","59","1361327","0.0-5.0-0.10","210","1","2025-07-23 10:37:34","1f75c3e559b7213887762d5229550c2b","197.185.164.175","Mozilla/5.0 (Windows NT 10.0; Win64; x64) AppleWebKit/537.36 (KHTML, like Gecko) Chrome/138.0.0.0 Safari/537.36","WebKit","Chrome","138.0.0.0","Windows","10.0","https://app.prolific.com/","en-US,en;q=0.9","67eaee55a9b4d89e82b8df37","683db9eb0562dbf637994deb","6880bb4e96689cb8098c2a7d","2","1","67eaee55a9b4d89e82b8df37","2","1","2025-07-23T11:00:32.370Z","","","","","","","","","","","","","","win-only","0","g1:NW,g2:SE","0.5","11","0","1314967.5","3639.5","8645.3","52913.9","1","4","8","6","2","-8","-8","0","0","0","1879.1","3000","-710","[""down"",""right""]","{""num_key_presses"":9,""num_perfect"":4,""num_errors"":0,""num_randdir"":5,""num_randdir_good_moves"":2,""num_whilered"":0,""num_whileblue"":0,""num_blue"":1,""num_good_moves"":6}","[294.22232142857143,297.12857142857143,5.2,294.22232142857143,297.12857142857143,106.3,294.22232142857143,297.12857142857143,210,294.22232142857143,297.12857142857143,319.3,294.22232142857143,297.12857142857143,429.2,294.22232142857143,297.12857142857143,553.4,294.22232142857143,297.12857142857143,660.9,294.22232142857143,297.12857142857143,772.1,294.22232142857143,297.12857142857143,877.6,500.22232142857143,424.12857142857143,995.6,639.2223214285714,591.1285714285714,1111.1,620.2223214285714,608.1285714285714,1219.3,586.2223214285714,612.1285714285714,1375.3,566.2223214285714,587.1285714285714,1485.5,545.2223214285714,572.1285714285714,1600.3,545.2223214285714,570.1285714285714,1706.7,545.2223214285714,570.1285714285714,1813.5,545.2223214285714,570.1285714285714,1937.6,545.2223214285714,570.1285714285714,2044.9,545.2223214285714,570.1285714285714,2159.9,545.2223214285714,570.1285714285714,2278.1,545.2223214285714,570.1285714285714,2392.2,545.2223214285714,570.1285714285714,2496.7,545.2223214285714,570.1285714285714,2605.8,404.22232142857143,683.1285714285714,2716,330.22232142857143,683.1285714285714,2829.9,330.22232142857143,683.1285714285714,2942.5,330.22232142857143,683.1285714285714,3052.5,330.22232142857143,683.1285714285714,3166.7,330.22232142857143,683.1285714285714,3290.3,330.22232142857143,683.1285714285714,3393.9,330.22232142857143,683.1285714285714,3509.9,330.22232142857143,683.1285714285714,3634.5,330.22232142857143,683.1285714285714,3746,330.22232142857143,683.1285714285714,3851.9,330.22232142857143,683.1285714285714,3959.1,330.22232142857143,683.1285714285714,4074.5,330.22232142857143,683.1285714285714,4189.5,330.22232142857143,683.1285714285714,4291,330.22232142857143,683.1285714285714,4403.2,330.22232142857143,683.1285714285714,4512.7,330.22232142857143,683.1285714285714,4631.2,330.22232142857143,683.1285714285714,4763.7,330.22232142857143,683.1285714285714,4868.7,330.22232142857143,683.1285714285714,4984.6]","[1507.1,1507.1,1000,0,507.1,""smooth"",""down"",""down"",""good_move"",6906.8,5393.8,2843.4,1513,2550.5,""oops"",""down"",""left"",""bad_move"",11844.7,4936,1901.1,6908.7,3034.9,""oops"",""right"",""up"",""bad_move"",16316.9,4471.7,2489.8,11845.2,1981.9,""oops"",""right"",""up"",""bad_move"",21534.8,5207.6,2060.9,16327.3,3146.7,""oops"",""down"",""down"",""good_move"",26047,4509.1,1794.6,21537.9,2714.5,""smooth"",""down"",""down"",""good_move"",29313.5,3262.9,1825.3,26050.8,1437.6,""smooth"",""down"",""down"",""good_move"",33276.1,3958.2,2753.4,29318,1204.8,""oops"",""down"",""down"",""good_move"",37936.8,4658.5,1856.4,33278.4,2802.1,""smooth"",""right"",""right"",""good_move""]","",""
"6346","","<div style=""width:500px;"">
  <p>What determined the result of this run?</p>
  </div>","82","html-slider-response","60","1367678","0.0-5.0-1.10","210","1","2025-07-23 10:37:34","1f75c3e559b7213887762d5229550c2b","197.185.164.175","Mozilla/5.0 (Windows NT 10.0; Win64; x64) AppleWebKit/537.36 (KHTML, like Gecko) Chrome/138.0.0.0 Safari/537.36","WebKit","Chrome","138.0.0.0","Windows","10.0","https://app.prolific.com/","en-US,en;q=0.9","67eaee55a9b4d89e82b8df37","683db9eb0562dbf637994deb","6880bb4e96689cb8098c2a7d","2","1","67eaee55a9b4d89e82b8df37","2","1","2025-07-23T11:00:38.721Z","","","","","","","","","","","AttribQ","","50","","","","","","","","","","","","","","","","","","","","","","","","","","","","",""
"3677","","<div style=""width:500px;"">
  <p>How much control did you have over the ball?</p>
  </div>","91","html-slider-response","61","1371360","0.0-5.0-2.10","210","1","2025-07-23 10:37:34","1f75c3e559b7213887762d5229550c2b","197.185.164.175","Mozilla/5.0 (Windows NT 10.0; Win64; x64) AppleWebKit/537.36 (KHTML, like Gecko) Chrome/138.0.0.0 Safari/537.36","WebKit","Chrome","138.0.0.0","Windows","10.0","https://app.prolific.com/","en-US,en;q=0.9","67eaee55a9b4d89e82b8df37","683db9eb0562dbf637994deb","6880bb4e96689cb8098c2a7d","2","1","67eaee55a9b4d89e82b8df37","2","1","2025-07-23T11:00:42.403Z","","","","","","","","","","","ControlQ","","50","","","","","","","","","","","","","","","","","","","","","","","","","","","","",""
"3277","","<div style=""width:500px;"">
  <p>How would you describe your current emotional state?</p>
  </div>","4","html-slider-response","62","1374642","0.0-5.0-3.10","210","1","2025-07-23 10:37:34","1f75c3e559b7213887762d5229550c2b","197.185.164.175","Mozilla/5.0 (Windows NT 10.0; Win64; x64) AppleWebKit/537.36 (KHTML, like Gecko) Chrome/138.0.0.0 Safari/537.36","WebKit","Chrome","138.0.0.0","Windows","10.0","https://app.prolific.com/","en-US,en;q=0.9","67eaee55a9b4d89e82b8df37","683db9eb0562dbf637994deb","6880bb4e96689cb8098c2a7d","2","1","67eaee55a9b4d89e82b8df37","2","1","2025-07-23T11:00:45.686Z","","","","","","","","","","","StressQ","","50","","","","","","","","","","","","","","","","","","","","","","","","","","","","",""
"3455","","<div style=""width:500px;"">
  <p>What best describes how you currently feel?</p>
  </div>","97","html-slider-response","63","1378115","0.0-5.0-4.10","210","1","2025-07-23 10:37:34","1f75c3e559b7213887762d5229550c2b","197.185.164.175","Mozilla/5.0 (Windows NT 10.0; Win64; x64) AppleWebKit/537.36 (KHTML, like Gecko) Chrome/138.0.0.0 Safari/537.36","WebKit","Chrome","138.0.0.0","Windows","10.0","https://app.prolific.com/","en-US,en;q=0.9","67eaee55a9b4d89e82b8df37","683db9eb0562dbf637994deb","6880bb4e96689cb8098c2a7d","2","1","67eaee55a9b4d89e82b8df37","2","1","2025-07-23T11:00:49.159Z","","","","","","","","","","","MotivationQ","","50","","","","","","","","","","","","","","","","","","","","","","","","","","","","",""
"","","","","ctl-task-cpt","64","1407953","0.0-5.0-0.11","210","1","2025-07-23 10:37:34","1f75c3e559b7213887762d5229550c2b","197.185.164.175","Mozilla/5.0 (Windows NT 10.0; Win64; x64) AppleWebKit/537.36 (KHTML, like Gecko) Chrome/138.0.0.0 Safari/537.36","WebKit","Chrome","138.0.0.0","Windows","10.0","https://app.prolific.com/","en-US,en;q=0.9","67eaee55a9b4d89e82b8df37","683db9eb0562dbf637994deb","6880bb4e96689cb8098c2a7d","2","1","67eaee55a9b4d89e82b8df37","2","1","2025-07-23T11:01:18.996Z","","","","","","","","","","","","","","win-only","3","g1:SW,g2:NE","0.6","12","0","1387709.9","3224.8","8241.9","26746.5","1","4","4","6","1","1","1","1","0","0.007575757575757576","2796.3","3000","2280","[""down"",""left""]","{""num_key_presses"":4,""num_perfect"":2,""num_errors"":0,""num_randdir"":2,""num_randdir_good_moves"":2,""num_whilered"":0,""num_whileblue"":0,""num_blue"":1,""num_good_moves"":4}","[297.22232142857143,297.12857142857143,2,297.22232142857143,297.12857142857143,108,297.22232142857143,297.12857142857143,228.8,297.22232142857143,297.12857142857143,333.7,297.22232142857143,297.12857142857143,444.8,297.22232142857143,297.12857142857143,550.4,297.22232142857143,297.12857142857143,656.8,297.22232142857143,297.12857142857143,772.5,297.22232142857143,297.12857142857143,889.7,297.22232142857143,297.12857142857143,997.3,297.22232142857143,297.12857142857143,1108.7,297.22232142857143,297.12857142857143,1209.9,297.22232142857143,297.12857142857143,1317.7,297.22232142857143,297.12857142857143,1433.6,297.22232142857143,297.12857142857143,1545.4,297.22232142857143,297.12857142857143,1666.3,297.22232142857143,297.12857142857143,1766.4,297.22232142857143,297.12857142857143,1880,263.22232142857143,330.12857142857143,1992.5,171.22232142857143,431.12857142857143,2093.5,158.22232142857143,484.12857142857143,2206.2,99.22232142857143,501.12857142857143,2319,67.22232142857143,506.12857142857143,2429.1,68.22232142857143,510.12857142857143,2549.8,68.22232142857143,510.12857142857143,2664.5,68.22232142857143,510.12857142857143,2774.3,68.22232142857143,510.12857142857143,2875.5,68.22232142857143,510.12857142857143,2991.5,68.22232142857143,510.12857142857143,3093,68.22232142857143,510.12857142857143,3195.3,68.22232142857143,510.12857142857143,3304.9,68.22232142857143,510.12857142857143,3416.3,68.22232142857143,510.12857142857143,3532,68.22232142857143,510.12857142857143,3645.3,68.22232142857143,510.12857142857143,3749.8,68.22232142857143,510.12857142857143,3857.5,68.22232142857143,510.12857142857143,3965.4,68.22232142857143,510.12857142857143,4069.7,68.22232142857143,510.12857142857143,4194.8,68.22232142857143,510.12857142857143,4310.1,68.22232142857143,510.12857142857143,4419.2,68.22232142857143,510.12857142857143,4534.7,68.22232142857143,510.12857142857143,4650.7,68.22232142857143,510.12857142857143,4783.6,68.22232142857143,510.12857142857143,4898.1]","[2136.9,2136.9,1000,0,1136.9,""smooth"",""down"",""down"",""good_move"",5807.9,3667.4,3098.8,2140.5,568.6,""oops"",""down"",""left"",""good_move"",15061.6,9253.2,3116.7,10625.4,1319.5,""oops"",""down"",""down"",""good_move"",18045.3,2978.7,2364.5,15066.6,614.2,""smooth"",""left"",""left"",""good_move""]","",""
"5701","","<div style=""width:500px;"">
  <p>What determined the result of this run?</p>
  </div>","85","html-slider-response","65","1413658","0.0-5.0-1.11","210","1","2025-07-23 10:37:34","1f75c3e559b7213887762d5229550c2b","197.185.164.175","Mozilla/5.0 (Windows NT 10.0; Win64; x64) AppleWebKit/537.36 (KHTML, like Gecko) Chrome/138.0.0.0 Safari/537.36","WebKit","Chrome","138.0.0.0","Windows","10.0","https://app.prolific.com/","en-US,en;q=0.9","67eaee55a9b4d89e82b8df37","683db9eb0562dbf637994deb","6880bb4e96689cb8098c2a7d","2","1","67eaee55a9b4d89e82b8df37","2","1","2025-07-23T11:01:24.702Z","","","","","","","","","","","AttribQ","","50","","","","","","","","","","","","","","","","","","","","","","","","","","","","",""
"7465","","<div style=""width:500px;"">
  <p>How much control did you have over the ball?</p>
  </div>","76","html-slider-response","66","1421136","0.0-5.0-2.11","210","1","2025-07-23 10:37:34","1f75c3e559b7213887762d5229550c2b","197.185.164.175","Mozilla/5.0 (Windows NT 10.0; Win64; x64) AppleWebKit/537.36 (KHTML, like Gecko) Chrome/138.0.0.0 Safari/537.36","WebKit","Chrome","138.0.0.0","Windows","10.0","https://app.prolific.com/","en-US,en;q=0.9","67eaee55a9b4d89e82b8df37","683db9eb0562dbf637994deb","6880bb4e96689cb8098c2a7d","2","1","67eaee55a9b4d89e82b8df37","2","1","2025-07-23T11:01:32.180Z","","","","","","","","","","","ControlQ","","50","","","","","","","","","","","","","","","","","","","","","","","","","","","","",""
"3549","","<div style=""width:500px;"">
  <p>How would you describe your current emotional state?</p>
  </div>","7","html-slider-response","67","1424694","0.0-5.0-3.11","210","1","2025-07-23 10:37:34","1f75c3e559b7213887762d5229550c2b","197.185.164.175","Mozilla/5.0 (Windows NT 10.0; Win64; x64) AppleWebKit/537.36 (KHTML, like Gecko) Chrome/138.0.0.0 Safari/537.36","WebKit","Chrome","138.0.0.0","Windows","10.0","https://app.prolific.com/","en-US,en;q=0.9","67eaee55a9b4d89e82b8df37","683db9eb0562dbf637994deb","6880bb4e96689cb8098c2a7d","2","1","67eaee55a9b4d89e82b8df37","2","1","2025-07-23T11:01:35.737Z","","","","","","","","","","","StressQ","","50","","","","","","","","","","","","","","","","","","","","","","","","","","","","",""
"3961","","<div style=""width:500px;"">
  <p>What best describes how you currently feel?</p>
  </div>","73","html-slider-response","68","1428661","0.0-5.0-4.11","210","1","2025-07-23 10:37:34","1f75c3e559b7213887762d5229550c2b","197.185.164.175","Mozilla/5.0 (Windows NT 10.0; Win64; x64) AppleWebKit/537.36 (KHTML, like Gecko) Chrome/138.0.0.0 Safari/537.36","WebKit","Chrome","138.0.0.0","Windows","10.0","https://app.prolific.com/","en-US,en;q=0.9","67eaee55a9b4d89e82b8df37","683db9eb0562dbf637994deb","6880bb4e96689cb8098c2a7d","2","1","67eaee55a9b4d89e82b8df37","2","1","2025-07-23T11:01:39.705Z","","","","","","","","","","","MotivationQ","","50","","","","","","","","","","","","","","","","","","","","","","","","","","","","",""
"","","","","ctl-task-cpt","69","1494449","0.0-5.0-0.12","210","1","2025-07-23 10:37:34","1f75c3e559b7213887762d5229550c2b","197.185.164.175","Mozilla/5.0 (Windows NT 10.0; Win64; x64) AppleWebKit/537.36 (KHTML, like Gecko) Chrome/138.0.0.0 Safari/537.36","WebKit","Chrome","138.0.0.0","Windows","10.0","https://app.prolific.com/","en-US,en;q=0.9","67eaee55a9b4d89e82b8df37","683db9eb0562dbf637994deb","6880bb4e96689cb8098c2a7d","2","1","67eaee55a9b4d89e82b8df37","2","1","2025-07-23T11:02:45.495Z","","","","","","","","","","","","","","win-only","2","g1:SE,g2:NW","0.7","13","0","1438253.2","2339.1","7350.7","62750.9","1","4","4","6","2","4","4","5","1","0.03787878787878788","1988.4","3000","1670","[""left"",""up""]","{""num_key_presses"":10,""num_perfect"":7,""num_errors"":0,""num_randdir"":3,""num_randdir_good_moves"":1,""num_whilered"":0,""num_whileblue"":0,""num_blue"":3,""num_good_moves"":8}","[298.22232142857143,301.12857142857143,1.3,298.22232142857143,301.12857142857143,115.5,298.22232142857143,301.12857142857143,231,298.22232142857143,301.12857142857143,344.2,298.22232142857143,301.12857142857143,462.7,298.22232142857143,301.12857142857143,572.3,298.22232142857143,301.12857142857143,880.9,298.22232142857143,301.12857142857143,1003.7,266.22232142857143,263.12857142857143,1181.3,43.222321428571426,49.128571428571426,1303.4,39.222321428571426,47.128571428571426,1422,56.222321428571426,68.12857142857143,1831.3,56.222321428571426,68.12857142857143,1936.9,56.222321428571426,68.12857142857143,2051,56.222321428571426,68.12857142857143,2154.8,56.222321428571426,68.12857142857143,2269.9,56.222321428571426,68.12857142857143,2383.6,56.222321428571426,68.12857142857143,2500.3,56.222321428571426,68.12857142857143,2620.2,56.222321428571426,68.12857142857143,2723.2,56.222321428571426,68.12857142857143,2851,56.222321428571426,68.12857142857143,2953.6,56.222321428571426,68.12857142857143,3065,56.222321428571426,68.12857142857143,3184.6,56.222321428571426,68.12857142857143,3285.5,56.222321428571426,68.12857142857143,3398.1,56.222321428571426,68.12857142857143,3502.6,56.222321428571426,68.12857142857143,3618.3,56.222321428571426,68.12857142857143,3736,56.222321428571426,68.12857142857143,3856.1,56.222321428571426,68.12857142857143,3956.1,56.222321428571426,68.12857142857143,4077.8,56.222321428571426,68.12857142857143,4198.1,56.222321428571426,68.12857142857143,4314.5,56.222321428571426,68.12857142857143,4429.4,56.222321428571426,68.12857142857143,4551.3,56.222321428571426,68.12857142857143,4656,56.222321428571426,68.12857142857143,4789.3,56.222321428571426,68.12857142857143,4890.4]","[1642.7,1642.7,1000,0,642.7,""smooth"",""up"",""up"",""good_move"",6357.5,4708.3,2464.6,1649.2,2243.7,""oops"",""up"",""right"",""bad_move"",9592.5,3231.2,2589,6361.4,642.1,""smooth"",""up"",""up"",""good_move"",17130.1,7534.2,1894.9,14675.9,559.3,""smooth"",""up"",""up"",""good_move"",22380.2,5243.4,2082.9,17136.8,3160.6,""oops"",""left"",""down"",""bad_move"",29696.7,7313.6,2679.5,26494.7,522.5,""smooth"",""left"",""left"",""good_move"",39390.6,9690.6,3543,35081.9,765.7,""smooth"",""left"",""left"",""good_move"",44709.8,5315.9,2505.9,39393.9,2810,""smooth"",""left"",""left"",""good_move"",49817.6,5105.1,3131.1,44712.5,1974,""oops"",""left"",""left"",""good_move"",54873.8,5054.3,2855.8,49819.6,2198.4,""smooth"",""up"",""up"",""good_move""]","",""
"4331","","<div style=""width:500px;"">
  <p>What determined the result of this run?</p>
  </div>","80","html-slider-response","70","1498787","0.0-5.0-1.12","210","1","2025-07-23 10:37:34","1f75c3e559b7213887762d5229550c2b","197.185.164.175","Mozilla/5.0 (Windows NT 10.0; Win64; x64) AppleWebKit/537.36 (KHTML, like Gecko) Chrome/138.0.0.0 Safari/537.36","WebKit","Chrome","138.0.0.0","Windows","10.0","https://app.prolific.com/","en-US,en;q=0.9","67eaee55a9b4d89e82b8df37","683db9eb0562dbf637994deb","6880bb4e96689cb8098c2a7d","2","1","67eaee55a9b4d89e82b8df37","2","1","2025-07-23T11:02:49.831Z","","","","","","","","","","","AttribQ","","50","","","","","","","","","","","","","","","","","","","","","","","","","","","","",""
"6227","","<div style=""width:500px;"">
  <p>How much control did you have over the ball?</p>
  </div>","80","html-slider-response","71","1505021","0.0-5.0-2.12","210","1","2025-07-23 10:37:34","1f75c3e559b7213887762d5229550c2b","197.185.164.175","Mozilla/5.0 (Windows NT 10.0; Win64; x64) AppleWebKit/537.36 (KHTML, like Gecko) Chrome/138.0.0.0 Safari/537.36","WebKit","Chrome","138.0.0.0","Windows","10.0","https://app.prolific.com/","en-US,en;q=0.9","67eaee55a9b4d89e82b8df37","683db9eb0562dbf637994deb","6880bb4e96689cb8098c2a7d","2","1","67eaee55a9b4d89e82b8df37","2","1","2025-07-23T11:02:56.065Z","","","","","","","","","","","ControlQ","","50","","","","","","","","","","","","","","","","","","","","","","","","","","","","",""
"4015","","<div style=""width:500px;"">
  <p>How would you describe your current emotional state?</p>
  </div>","13","html-slider-response","72","1509042","0.0-5.0-3.12","210","1","2025-07-23 10:37:34","1f75c3e559b7213887762d5229550c2b","197.185.164.175","Mozilla/5.0 (Windows NT 10.0; Win64; x64) AppleWebKit/537.36 (KHTML, like Gecko) Chrome/138.0.0.0 Safari/537.36","WebKit","Chrome","138.0.0.0","Windows","10.0","https://app.prolific.com/","en-US,en;q=0.9","67eaee55a9b4d89e82b8df37","683db9eb0562dbf637994deb","6880bb4e96689cb8098c2a7d","2","1","67eaee55a9b4d89e82b8df37","2","1","2025-07-23T11:03:00.085Z","","","","","","","","","","","StressQ","","50","","","","","","","","","","","","","","","","","","","","","","","","","","","","",""
"4709","","<div style=""width:500px;"">
  <p>What best describes how you currently feel?</p>
  </div>","85","html-slider-response","73","1513759","0.0-5.0-4.12","210","1","2025-07-23 10:37:34","1f75c3e559b7213887762d5229550c2b","197.185.164.175","Mozilla/5.0 (Windows NT 10.0; Win64; x64) AppleWebKit/537.36 (KHTML, like Gecko) Chrome/138.0.0.0 Safari/537.36","WebKit","Chrome","138.0.0.0","Windows","10.0","https://app.prolific.com/","en-US,en;q=0.9","67eaee55a9b4d89e82b8df37","683db9eb0562dbf637994deb","6880bb4e96689cb8098c2a7d","2","1","67eaee55a9b4d89e82b8df37","2","1","2025-07-23T11:03:04.804Z","","","","","","","","","","","MotivationQ","","50","","","","","","","","","","","","","","","","","","","","","","","","","","","","",""
"","","","","ctl-task-cpt","74","1564694","0.0-5.0-0.13","210","1","2025-07-23 10:37:34","1f75c3e559b7213887762d5229550c2b","197.185.164.175","Mozilla/5.0 (Windows NT 10.0; Win64; x64) AppleWebKit/537.36 (KHTML, like Gecko) Chrome/138.0.0.0 Safari/537.36","WebKit","Chrome","138.0.0.0","Windows","10.0","https://app.prolific.com/","en-US,en;q=0.9","67eaee55a9b4d89e82b8df37","683db9eb0562dbf637994deb","6880bb4e96689cb8098c2a7d","2","1","67eaee55a9b4d89e82b8df37","2","1","2025-07-23T11:03:55.738Z","","","","","","","","","","","","","","win-only","1","g1:NE,g2:SW","0.8","14","0","1523350.6","1858.9","6890.3","47898.5","1","4","8","6","2","8","8","13","5","0.09848484848484848","4416.9","3000","1940","[""down"",""left""]","{""num_key_presses"":8,""num_perfect"":6,""num_errors"":0,""num_randdir"":2,""num_randdir_good_moves"":1,""num_whilered"":0,""num_whileblue"":0,""num_blue"":0,""num_good_moves"":7}","[292.22232142857143,295.12857142857143,0,292.22232142857143,295.12857142857143,109.5,292.22232142857143,295.12857142857143,234.8,292.22232142857143,295.12857142857143,351.6,292.22232142857143,295.12857142857143,452.1,292.22232142857143,295.12857142857143,557.8,292.22232142857143,295.12857142857143,663.5,292.22232142857143,295.12857142857143,788.6,292.22232142857143,295.12857142857143,894.6,292.22232142857143,295.12857142857143,1012.7,292.22232142857143,295.12857142857143,1115.8,292.22232142857143,295.12857142857143,1236.9,292.22232142857143,295.12857142857143,1349,292.22232142857143,295.12857142857143,1472.7,292.22232142857143,295.12857142857143,1582.3,292.22232142857143,295.12857142857143,1707.1,292.22232142857143,295.12857142857143,1807.2,292.22232142857143,295.12857142857143,1929,292.22232142857143,295.12857142857143,2035.4,292.22232142857143,295.12857142857143,2138,292.22232142857143,295.12857142857143,2266.1,292.22232142857143,295.12857142857143,2387.1,292.22232142857143,295.12857142857143,2508.1,292.22232142857143,295.12857142857143,2612.1,292.22232142857143,295.12857142857143,2722.2,241.22232142857143,357.12857142857143,2835,235.22232142857143,386.12857142857143,2951.8,235.22232142857143,386.12857142857143,3057.6,235.22232142857143,386.12857142857143,3172,229.22232142857143,388.12857142857143,3294.7,122.22232142857143,502.12857142857143,3418.9,140.22232142857143,512.1285714285714,3523,140.22232142857143,512.1285714285714,3652.3,140.22232142857143,512.1285714285714,3756.7,83.22232142857143,526.1285714285714,3867.9,76.22232142857143,546.1285714285714,3971.6,72.22232142857143,549.1285714285714,4079,67.22232142857143,551.1285714285714,4202.6,67.22232142857143,551.1285714285714,4303.9,67.22232142857143,551.1285714285714,4425.7,67.22232142857143,551.1285714285714,4559.2,67.22232142857143,551.1285714285714,4681.3,67.22232142857143,551.1285714285714,4806.1,67.22232142857143,551.1285714285714,4934.8]","[2767.8,2767.8,1000,0,1767.8,""smooth"",""down"",""down"",""good_move"",5953.5,3179.6,2328.4,2774,851.1,""smooth"",""down"",""down"",""good_move"",9355.6,3398,2834.2,5957.6,563.8,""smooth"",""down"",""down"",""good_move"",13037.9,3679.2,2989.6,9358.8,689.5,""oops"",""left"",""left"",""good_move"",18872.5,5829.7,2310.3,13043.1,3519.1,""oops"",""left"",""up"",""bad_move"",24922.3,6048.1,2525.3,18874.2,3522.8,""smooth"",""left"",""left"",""good_move"",34342.9,9381.7,3105.6,24961.2,6276.1,""smooth"",""left"",""left"",""good_move"",40294.8,5950.7,2635.3,34344.2,3315.4,""smooth"",""down"",""down"",""good_move""]","",""
"17331","","<div style=""width:500px;"">
  <p>What determined the result of this run?</p>
  </div>","73","html-slider-response","75","1582030","0.0-5.0-1.13","210","1","2025-07-23 10:37:34","1f75c3e559b7213887762d5229550c2b","197.185.164.175","Mozilla/5.0 (Windows NT 10.0; Win64; x64) AppleWebKit/537.36 (KHTML, like Gecko) Chrome/138.0.0.0 Safari/537.36","WebKit","Chrome","138.0.0.0","Windows","10.0","https://app.prolific.com/","en-US,en;q=0.9","67eaee55a9b4d89e82b8df37","683db9eb0562dbf637994deb","6880bb4e96689cb8098c2a7d","2","1","67eaee55a9b4d89e82b8df37","2","1","2025-07-23T11:04:13.073Z","","","","","","","","","","","AttribQ","","50","","","","","","","","","","","","","","","","","","","","","","","","","","","","",""
"3528","","<div style=""width:500px;"">
  <p>How much control did you have over the ball?</p>
  </div>","78","html-slider-response","76","1585563","0.0-5.0-2.13","210","1","2025-07-23 10:37:34","1f75c3e559b7213887762d5229550c2b","197.185.164.175","Mozilla/5.0 (Windows NT 10.0; Win64; x64) AppleWebKit/537.36 (KHTML, like Gecko) Chrome/138.0.0.0 Safari/537.36","WebKit","Chrome","138.0.0.0","Windows","10.0","https://app.prolific.com/","en-US,en;q=0.9","67eaee55a9b4d89e82b8df37","683db9eb0562dbf637994deb","6880bb4e96689cb8098c2a7d","2","1","67eaee55a9b4d89e82b8df37","2","1","2025-07-23T11:04:16.607Z","","","","","","","","","","","ControlQ","","50","","","","","","","","","","","","","","","","","","","","","","","","","","","","",""
"6229","","<div style=""width:500px;"">
  <p>How would you describe your current emotional state?</p>
