"rt","response_timestamp","stimulus","response","trial_type","trial_index","time_elapsed","internal_node_id","run_id","condition","recorded_at","source_code_version","ip","user_agent","device","browser","browser_version","platform","platform_version","referer","accept_language","PROLIFIC_PID","STUDY_ID","SESSION_ID","WEEK","BATCH","prolific_id","week","batch","realtime","success","responses","item_order","radio_event_ids","radio_event_times","key_event_times","mouse_event_times","straightlining","zigzagging","honeypot","eventType","view_history","slider_start","which_type","canvas_config","goals_layout","control_level","trial_number","tutorial_trial_number","trial_start_time","phase1_start_time","phase2_start_time","phase3_start_time","goal_1_value","goal_1_distance","goal_2_value","goal_2_distance","goal_selected","outcome","outcome_total","participant_final_score","participant_initial_score","participant_final_score_prop","goal_choice_rt","allocated_time","allocated_time_remaining","goal_direction","counts","mouse_movements","key_presses","question_order","question_id"
"2194","1753864627581","<p style='font-size:40px;line-height:1.25'><strong>Welcome to the experiment!</strong></p><p style='font-size:1.1em;line-height:1.25'>Thank you for participanting in our experiment again! You will be asked to play the Dysfunctional Ball Game again. We will briefly recap the rules before we start.</p><p style='font-size:1.1em;line-height:1.25'>Press <strong>Next</strong> to continue.</p>","0","custom-html-button-response","0","2198","0.0-0.0","251","1","2025-07-30 08:37:02","1f75c3e559b7213887762d5229550c2b","5.69.202.172","Mozilla/5.0 (Windows NT 10.0; Win64; x64) AppleWebKit/537.36 (KHTML, like Gecko) Chrome/138.0.0.0 Safari/537.36","WebKit","Chrome","138.0.0.0","Windows","10.0","https://app.prolific.com/","en-GB,en-US;q=0.9,en;q=0.8","5c4f7b99b33a5300013dbfdd","6877631c9844ddd5501205fc","6889d9a343dd5db2071c2d2e","3","1","5c4f7b99b33a5300013dbfdd","3","1","2025-07-30T08:37:07.584Z","","","","","","","","","","","","","","","","","","","","","","","","","","","","","","","","","","","","","","","","","",""
"2111","","","","fullscreen","1","5321","0.0-1.0","251","1","2025-07-30 08:37:02","1f75c3e559b7213887762d5229550c2b","5.69.202.172","Mozilla/5.0 (Windows NT 10.0; Win64; x64) AppleWebKit/537.36 (KHTML, like Gecko) Chrome/138.0.0.0 Safari/537.36","WebKit","Chrome","138.0.0.0","Windows","10.0","https://app.prolific.com/","en-GB,en-US;q=0.9,en;q=0.8","5c4f7b99b33a5300013dbfdd","6877631c9844ddd5501205fc","6889d9a343dd5db2071c2d2e","3","1","5c4f7b99b33a5300013dbfdd","3","1","","true","","","","","","","","","","","","","","","","","","","","","","","","","","","","","","","","","","","","","","","","",""
"1519","1753864632226","<p style='font-size:1.1em;line-height:1.25'>In the following, we will ask you a few questions relating to your feelings in the last 24 hours.<br></p><p style='font-size:1.1em;line-height:1.25'>Press the <strong>Next</strong> button to continue.</p>","0","custom-html-button-response","2","6841","0.0-2.0-0.0","251","1","2025-07-30 08:37:02","1f75c3e559b7213887762d5229550c2b","5.69.202.172","Mozilla/5.0 (Windows NT 10.0; Win64; x64) AppleWebKit/537.36 (KHTML, like Gecko) Chrome/138.0.0.0 Safari/537.36","WebKit","Chrome","138.0.0.0","Windows","10.0","https://app.prolific.com/","en-GB,en-US;q=0.9,en;q=0.8","5c4f7b99b33a5300013dbfdd","6877631c9844ddd5501205fc","6889d9a343dd5db2071c2d2e","3","1","5c4f7b99b33a5300013dbfdd","3","1","2025-07-30T08:37:12.227Z","","","","","","","","","","","","","","","","","","","","","","","","","","","","","","","","","","","","","","","","","",""
"39045.00000000023","","","","survey-template","3","45891","0.0-2.0-1.0","251","1","2025-07-30 08:37:02","1f75c3e559b7213887762d5229550c2b","5.69.202.172","Mozilla/5.0 (Windows NT 10.0; Win64; x64) AppleWebKit/537.36 (KHTML, like Gecko) Chrome/138.0.0.0 Safari/537.36","WebKit","Chrome","138.0.0.0","Windows","10.0","https://app.prolific.com/","en-GB,en-US;q=0.9,en;q=0.8","5c4f7b99b33a5300013dbfdd","6877631c9844ddd5501205fc","6889d9a343dd5db2071c2d2e","3","1","5c4f7b99b33a5300013dbfdd","3","1","2025-07-30T08:37:51.276Z","","{""Q01"":""0"",""Q02"":""0"",""Q03"":""0"",""Q04"":""0"",""Q05"":""0"",""Q06"":""0"",""Q07"":""0"",""Q08"":""0"",""Q09"":""0"",""Q10"":""1"",""Q11"":""1"",""Q12"":""0"",""Q13"":""5"",""Q14"":""1"",""Q15"":""2"",""Q16"":""2"",""Q17"":""0"",""Q18"":""0"",""Q19"":""0"",""Q20"":""0"",""Q21"":""0"",""Q22"":""0""}","[0,1,2,3,4,5,6,7,8,9,10,11,12,13,14,15,16,17,18,19,20,21]","[""Q01"",""Q02"",""Q04"",""Q03"",""Q05"",""Q06"",""Q07"",""Q08"",""Q09"",""Q10"",""Q11"",""Q12"",""Q13"",""Q14"",""Q16"",""Q15"",""Q17"",""Q18"",""Q19"",""Q21"",""Q22"",""Q20""]","[2618.5,3201.9000000001397,6135.699999999953,7390.100000000093,9085.100000000093,10382.40000000014,11581.90000000014,12413.800000000047,13400.600000000093,17648.5,18545.800000000047,20076.000000000233,21520.699999999953,22877.199999999953,26363.300000000047,27442.300000000047,28792.199999999953,32460.300000000047,33336.00000000023,35983.09999999986,37189.50000000023,38092.09999999986]","[]","[0.19999999995343387,2618.5,3201.9000000001397,3806.4000000001397,4433.699999999953,4983.800000000047,5549.699999999953,6135.699999999953,7390.100000000093,9085.100000000093,10382.40000000014,11581.90000000014,12413.800000000047,13400.600000000093,17024.300000000047,17648.5,18545.800000000047,20076.000000000233,21520.699999999953,22877.199999999953,24505.90000000014,26363.300000000047,27442.300000000047,28792.199999999953,32460.300000000047,33336.00000000023,34771.80000000005,35983.09999999986,37189.50000000023,38092.09999999986,39029.59999999986]","0.7272727272727273","0.19047619047619047","0","drsp","","","","","","","","","","","","","","","","","","","","","","","","","","","","","","",""
"11984.899999999907","","","","survey-template","4","57879","0.0-2.0-2.0","251","1","2025-07-30 08:37:02","1f75c3e559b7213887762d5229550c2b","5.69.202.172","Mozilla/5.0 (Windows NT 10.0; Win64; x64) AppleWebKit/537.36 (KHTML, like Gecko) Chrome/138.0.0.0 Safari/537.36","WebKit","Chrome","138.0.0.0","Windows","10.0","https://app.prolific.com/","en-GB,en-US;q=0.9,en;q=0.8","5c4f7b99b33a5300013dbfdd","6877631c9844ddd5501205fc","6889d9a343dd5db2071c2d2e","3","1","5c4f7b99b33a5300013dbfdd","3","1","2025-07-30T08:38:03.264Z","","{""Q01"":""0"",""Q02"":""2"",""Q03"":""0""}","[0,1,2]","[""Q01"",""Q02"",""Q03""]","[6504.0999999996275,8614.299999999814,11145.399999999907]","[]","[6504.0999999996275,8614.299999999814,11145.399999999907,11984.19999999972]","0.6666666666666666","0","0","stress","","","","","","","","","","","","","","","","","","","","","","","","","","","","","","",""
"5061","","","","instructions","5","62941","0.0-3.0-0.0","251","1","2025-07-30 08:37:02","1f75c3e559b7213887762d5229550c2b","5.69.202.172","Mozilla/5.0 (Windows NT 10.0; Win64; x64) AppleWebKit/537.36 (KHTML, like Gecko) Chrome/138.0.0.0 Safari/537.36","WebKit","Chrome","138.0.0.0","Windows","10.0","https://app.prolific.com/","en-GB,en-US;q=0.9,en;q=0.8","5c4f7b99b33a5300013dbfdd","6877631c9844ddd5501205fc","6889d9a343dd5db2071c2d2e","3","1","5c4f7b99b33a5300013dbfdd","3","1","","","","","","","","","","","","","[{""page_index"":0,""viewing_time"":5060}]","","","","","","","","","","","","","","","","","","","","","","","","","","","","","",""
"3208","","<p>Before you start with this game please answer the following three questions yourself. </p>
  <p>Through this game, we measure several aspects of your cognitive performance, such as reaction times, multi-tasking capabilities </p>
  <p>and the ability to assess the situation you are in.</p>
  <p></p>
  <p><b>How good do you usually are in such tasks?</b></p>","32","html-slider-response","6","66152","0.0-4.0-0.0","251","1","2025-07-30 08:37:02","1f75c3e559b7213887762d5229550c2b","5.69.202.172","Mozilla/5.0 (Windows NT 10.0; Win64; x64) AppleWebKit/537.36 (KHTML, like Gecko) Chrome/138.0.0.0 Safari/537.36","WebKit","Chrome","138.0.0.0","Windows","10.0","https://app.prolific.com/","en-GB,en-US;q=0.9,en;q=0.8","5c4f7b99b33a5300013dbfdd","6877631c9844ddd5501205fc","6889d9a343dd5db2071c2d2e","3","1","5c4f7b99b33a5300013dbfdd","3","1","2025-07-30T08:38:11.537Z","","","","","","","","","","","PreSkillQ","","50","","","","","","","","","","","","","","","","","","","","","","","","","","","","",""
"2585","","<div style=""width:500px;"">
  <p>How well do you think you will perform in this task compared to other participants?</p>
  </div>","17","html-slider-response","7","68740","0.0-4.0-1.0","251","1","2025-07-30 08:37:02","1f75c3e559b7213887762d5229550c2b","5.69.202.172","Mozilla/5.0 (Windows NT 10.0; Win64; x64) AppleWebKit/537.36 (KHTML, like Gecko) Chrome/138.0.0.0 Safari/537.36","WebKit","Chrome","138.0.0.0","Windows","10.0","https://app.prolific.com/","en-GB,en-US;q=0.9,en;q=0.8","5c4f7b99b33a5300013dbfdd","6877631c9844ddd5501205fc","6889d9a343dd5db2071c2d2e","3","1","5c4f7b99b33a5300013dbfdd","3","1","2025-07-30T08:38:14.125Z","","","","","","","","","","","PrePerfQ","","50","","","","","","","","","","","","","","","","","","","","","","","","","","","","",""
"2623","","<div style=""width:500px;"">
  <p>What best describes how you currently feel?</p>
  </div>","85","html-slider-response","8","71366","0.0-4.0-2.0","251","1","2025-07-30 08:37:02","1f75c3e559b7213887762d5229550c2b","5.69.202.172","Mozilla/5.0 (Windows NT 10.0; Win64; x64) AppleWebKit/537.36 (KHTML, like Gecko) Chrome/138.0.0.0 Safari/537.36","WebKit","Chrome","138.0.0.0","Windows","10.0","https://app.prolific.com/","en-GB,en-US;q=0.9,en;q=0.8","5c4f7b99b33a5300013dbfdd","6877631c9844ddd5501205fc","6889d9a343dd5db2071c2d2e","3","1","5c4f7b99b33a5300013dbfdd","3","1","2025-07-30T08:38:16.751Z","","","","","","","","","","","PreMotivationQ","","50","","","","","","","","","","","","","","","","","","","","","","","","","","","","",""
"","","","","ctl-task-cpt","9","116044","0.0-5.0-0.0","251","1","2025-07-30 08:37:02","1f75c3e559b7213887762d5229550c2b","5.69.202.172","Mozilla/5.0 (Windows NT 10.0; Win64; x64) AppleWebKit/537.36 (KHTML, like Gecko) Chrome/138.0.0.0 Safari/537.36","WebKit","Chrome","138.0.0.0","Windows","10.0","https://app.prolific.com/","en-GB,en-US;q=0.9,en;q=0.8","5c4f7b99b33a5300013dbfdd","6877631c9844ddd5501205fc","6889d9a343dd5db2071c2d2e","3","1","5c4f7b99b33a5300013dbfdd","3","1","2025-07-30T08:39:01.429Z","","","","","","","","","","","","","","win-only","0","g1:NW,g2:SE","1","1","0","74000.4","1470.9","6477.2","41671.4","1","4","4","6","2","4","3","3","0","0.022727272727272728","1182.9","3000","375","[""down"",""right""]","{""num_key_presses"":8,""num_perfect"":7,""num_errors"":1,""num_randdir"":0,""num_randdir_good_moves"":0,""num_whilered"":0,""num_whileblue"":1,""num_blue"":5,""num_good_moves"":7}","[410.616960471017,419.2888378552028,0.2,410.616960471017,419.2888378552028,100,410.616960471017,419.2888378552028,205,410.616960471017,419.2888378552028,305.4,410.616960471017,419.2888378552028,405.6,410.616960471017,419.2888378552028,505.7,416.116960471017,426.1638378552028,611.1,673.241960471017,650.2888378552028,716.6,673.241960471017,650.2888378552028,821.1,673.241960471017,650.2888378552028,925.2,728.241960471017,720.4138378552028,1026,751.616960471017,745.1638378552028,1134,752.991960471017,746.5388378552028,1235.4,752.991960471017,746.5388378552028,1335.5,752.991960471017,746.5388378552028,1435.5,752.991960471017,746.5388378552028,1535.5,752.991960471017,746.5388378552028,1635.5,752.991960471017,746.5388378552028,1740.3,752.991960471017,746.5388378552028,1849.2,752.991960471017,746.5388378552028,1949.5,752.991960471017,746.5388378552028,2049.5,752.991960471017,746.5388378552028,2149.5,752.991960471017,746.5388378552028,2255.6,752.991960471017,746.5388378552028,2356,752.991960471017,746.5388378552028,2460.6,752.991960471017,746.5388378552028,2560.9,752.991960471017,746.5388378552028,2665.7,752.991960471017,746.5388378552028,2771.2,752.991960471017,746.5388378552028,2875.8,752.991960471017,746.5388378552028,2976,752.991960471017,746.5388378552028,3082.3,752.991960471017,746.5388378552028,3182.6,752.991960471017,746.5388378552028,3285.6,752.991960471017,746.5388378552028,3386.2,752.991960471017,746.5388378552028,3490.5,752.991960471017,746.5388378552028,3598.9,752.991960471017,746.5388378552028,3698.9,752.991960471017,746.5388378552028,3798.9,752.991960471017,746.5388378552028,3900.1,752.991960471017,746.5388378552028,4005.8,752.991960471017,746.5388378552028,4106,752.991960471017,746.5388378552028,4215.4,752.991960471017,746.5388378552028,4315.4,752.991960471017,746.5388378552028,4420.8,752.991960471017,746.5388378552028,4520.8,752.991960471017,746.5388378552028,4626.1,752.991960471017,746.5388378552028,4731.7,752.991960471017,746.5388378552028,4835.8,752.991960471017,746.5388378552028,4941.1]","[9172.6,9172.6,2432.3,6329.6,410.8,""smooth"",""down"",""down"",""good_move"",11373.1,2199.8,1835.5,9173.3,364.3,""smooth"",""down"",""down"",""good_move"",17128,5754.5,2247.4,14214.9,665.7,""smooth"",""down"",""down"",""good_move"",22785.1,5656.9,1635.9,20789.1,360.1,""smooth"",""right"",""right"",""good_move"",25654.9,2869.5,2501.6,22785.4,367.9,""smooth"",""right"",""right"",""good_move"",28065.7,2410.6,1927.6,25655.1,483,""while_blue"",""right"",""up"",""bad_move"",31533.9,3467.7,3024.4,28066.2,443.3,""smooth"",""right"",""right"",""good_move"",35085.5,3551.4,3190,31534.1,361.4,""smooth"",""down"",""down"",""good_move""]","",""
"4473","","<div style=""width:500px;"">
  <p>What determined the result of this run?</p>
  </div>","16","html-slider-response","10","120519","0.0-5.0-1.0","251","1","2025-07-30 08:37:02","1f75c3e559b7213887762d5229550c2b","5.69.202.172","Mozilla/5.0 (Windows NT 10.0; Win64; x64) AppleWebKit/537.36 (KHTML, like Gecko) Chrome/138.0.0.0 Safari/537.36","WebKit","Chrome","138.0.0.0","Windows","10.0","https://app.prolific.com/","en-GB,en-US;q=0.9,en;q=0.8","5c4f7b99b33a5300013dbfdd","6877631c9844ddd5501205fc","6889d9a343dd5db2071c2d2e","3","1","5c4f7b99b33a5300013dbfdd","3","1","2025-07-30T08:39:05.904Z","","","","","","","","","","","AttribQ","","50","","","","","","","","","","","","","","","","","","","","","","","","","","","","",""
"3784","","<div style=""width:500px;"">
  <p>How much control did you have over the ball?</p>
  </div>","100","html-slider-response","11","124305","0.0-5.0-2.0","251","1","2025-07-30 08:37:02","1f75c3e559b7213887762d5229550c2b","5.69.202.172","Mozilla/5.0 (Windows NT 10.0; Win64; x64) AppleWebKit/537.36 (KHTML, like Gecko) Chrome/138.0.0.0 Safari/537.36","WebKit","Chrome","138.0.0.0","Windows","10.0","https://app.prolific.com/","en-GB,en-US;q=0.9,en;q=0.8","5c4f7b99b33a5300013dbfdd","6877631c9844ddd5501205fc","6889d9a343dd5db2071c2d2e","3","1","5c4f7b99b33a5300013dbfdd","3","1","2025-07-30T08:39:09.690Z","","","","","","","","","","","ControlQ","","50","","","","","","","","","","","","","","","","","","","","","","","","","","","","",""
"6333","","<div style=""width:500px;"">
  <p>How would you describe your current emotional state?</p>
  </div>","9","html-slider-response","12","130639","0.0-5.0-3.0","251","1","2025-07-30 08:37:02","1f75c3e559b7213887762d5229550c2b","5.69.202.172","Mozilla/5.0 (Windows NT 10.0; Win64; x64) AppleWebKit/537.36 (KHTML, like Gecko) Chrome/138.0.0.0 Safari/537.36","WebKit","Chrome","138.0.0.0","Windows","10.0","https://app.prolific.com/","en-GB,en-US;q=0.9,en;q=0.8","5c4f7b99b33a5300013dbfdd","6877631c9844ddd5501205fc","6889d9a343dd5db2071c2d2e","3","1","5c4f7b99b33a5300013dbfdd","3","1","2025-07-30T08:39:16.024Z","","","","","","","","","","","StressQ","","50","","","","","","","","","","","","","","","","","","","","","","","","","","","","",""
"4209","","<div style=""width:500px;"">
  <p>What best describes how you currently feel?</p>
  </div>","70","html-slider-response","13","134851","0.0-5.0-4.0","251","1","2025-07-30 08:37:02","1f75c3e559b7213887762d5229550c2b","5.69.202.172","Mozilla/5.0 (Windows NT 10.0; Win64; x64) AppleWebKit/537.36 (KHTML, like Gecko) Chrome/138.0.0.0 Safari/537.36","WebKit","Chrome","138.0.0.0","Windows","10.0","https://app.prolific.com/","en-GB,en-US;q=0.9,en;q=0.8","5c4f7b99b33a5300013dbfdd","6877631c9844ddd5501205fc","6889d9a343dd5db2071c2d2e","3","1","5c4f7b99b33a5300013dbfdd","3","1","2025-07-30T08:39:20.236Z","","","","","","","","","","","MotivationQ","","50","","","","","","","","","","","","","","","","","","","","","","","","","","","","",""
"","","","","ctl-task-cpt","14","162546","0.0-5.0-0.1","251","1","2025-07-30 08:37:02","1f75c3e559b7213887762d5229550c2b","5.69.202.172","Mozilla/5.0 (Windows NT 10.0; Win64; x64) AppleWebKit/537.36 (KHTML, like Gecko) Chrome/138.0.0.0 Safari/537.36","WebKit","Chrome","138.0.0.0","Windows","10.0","https://app.prolific.com/","en-GB,en-US;q=0.9,en;q=0.8","5c4f7b99b33a5300013dbfdd","6877631c9844ddd5501205fc","6889d9a343dd5db2071c2d2e","3","1","5c4f7b99b33a5300013dbfdd","3","1","2025-07-30T08:39:47.931Z","","","","","","","","","","","","","","win-only","0","g1:NW,g2:SE","0.9","2","0","137483.9","1444.6","6447","24676.1","1","4","8","6","2","8","8","11","3","0.08333333333333333","1050.8","3000","1050","[""down"",""right""]","{""num_key_presses"":6,""num_perfect"":5,""num_errors"":0,""num_randdir"":1,""num_randdir_good_moves"":1,""num_whilered"":0,""num_whileblue"":0,""num_blue"":1,""num_good_moves"":6}","[411.991960471017,423.4138378552028,0.1,411.991960471017,423.4138378552028,101.3,411.991960471017,423.4138378552028,201.3,411.991960471017,423.4138378552028,306.9,411.991960471017,423.4138378552028,407.1,411.991960471017,423.4138378552028,511.9,655.366960471017,673.6638378552028,612.5,696.616960471017,703.9138378552028,716.4,743.366960471017,721.7888378552028,817.3,768.116960471017,742.4138378552028,921.6,768.116960471017,742.4138378552028,1021.8,768.116960471017,742.4138378552028,1121.9,768.116960471017,742.4138378552028,1223.1,768.116960471017,742.4138378552028,1326.5,831.366960471017,745.1638378552028,1430.7,1144.866960471017,790.5388378552028,1531.7,1257.616960471017,829.0388378552028,1631.7,1287.866960471017,829.0388378552028,1732.6,1287.866960471017,829.0388378552028,1837.8,1287.866960471017,829.0388378552028,1941.9,1287.866960471017,829.0388378552028,2041.9,1287.866960471017,829.0388378552028,2146.8,1287.866960471017,829.0388378552028,2251.9,1287.866960471017,829.0388378552028,2356.9,1287.866960471017,829.0388378552028,2456.9,1287.866960471017,829.0388378552028,2557.7,1287.866960471017,829.0388378552028,2661.6,1287.866960471017,829.0388378552028,2761.7,1287.866960471017,829.0388378552028,2862,1287.866960471017,829.0388378552028,2966.2,1287.866960471017,829.0388378552028,3066.9,1287.866960471017,829.0388378552028,3168.2,1287.866960471017,829.0388378552028,3271.3,1287.866960471017,829.0388378552028,3371.9,1287.866960471017,829.0388378552028,3472.1,1287.866960471017,829.0388378552028,3576.7,1287.866960471017,829.0388378552028,3681.5,1287.866960471017,829.0388378552028,3782.1,1287.866960471017,829.0388378552028,3887.8,1287.866960471017,829.0388378552028,3987.8,1287.866960471017,829.0388378552028,4091.4,1287.866960471017,829.0388378552028,4191.6,1287.866960471017,829.0388378552028,4297,1287.866960471017,829.0388378552028,4402.2,1287.866960471017,829.0388378552028,4506.9,1287.866960471017,829.0388378552028,4611.1,1287.866960471017,829.0388378552028,4711.4,1287.866960471017,829.0388378552028,4811.9,1287.866960471017,829.0388378552028,4912.8]","[1285.1,1285.1,1000,0,285.1,""smooth"",""down"",""down"",""good_move"",3839.6,2554.2,2171.1,1285.4,383.1,""oops"",""down"",""down"",""good_move"",7036.9,3197,2869.8,3839.9,327.2,""smooth"",""right"",""right"",""good_move"",9679.6,2642.3,2329.6,7037.3,312.7,""smooth"",""down"",""down"",""good_move"",15379.3,5699.4,2097.8,12979.2,302.3,""smooth"",""right"",""right"",""good_move"",18142.1,2762.6,2384.4,15379.5,378.2,""smooth"",""right"",""right"",""good_move""]","",""
"3510","","<div style=""width:500px;"">
  <p>What determined the result of this run?</p>
  </div>","28","html-slider-response","15","166057","0.0-5.0-1.1","251","1","2025-07-30 08:37:02","1f75c3e559b7213887762d5229550c2b","5.69.202.172","Mozilla/5.0 (Windows NT 10.0; Win64; x64) AppleWebKit/537.36 (KHTML, like Gecko) Chrome/138.0.0.0 Safari/537.36","WebKit","Chrome","138.0.0.0","Windows","10.0","https://app.prolific.com/","en-GB,en-US;q=0.9,en;q=0.8","5c4f7b99b33a5300013dbfdd","6877631c9844ddd5501205fc","6889d9a343dd5db2071c2d2e","3","1","5c4f7b99b33a5300013dbfdd","3","1","2025-07-30T08:39:51.442Z","","","","","","","","","","","AttribQ","","50","","","","","","","","","","","","","","","","","","","","","","","","","","","","",""
"1913","","<div style=""width:500px;"">
  <p>How much control did you have over the ball?</p>
  </div>","100","html-slider-response","16","167971","0.0-5.0-2.1","251","1","2025-07-30 08:37:02","1f75c3e559b7213887762d5229550c2b","5.69.202.172","Mozilla/5.0 (Windows NT 10.0; Win64; x64) AppleWebKit/537.36 (KHTML, like Gecko) Chrome/138.0.0.0 Safari/537.36","WebKit","Chrome","138.0.0.0","Windows","10.0","https://app.prolific.com/","en-GB,en-US;q=0.9,en;q=0.8","5c4f7b99b33a5300013dbfdd","6877631c9844ddd5501205fc","6889d9a343dd5db2071c2d2e","3","1","5c4f7b99b33a5300013dbfdd","3","1","2025-07-30T08:39:53.356Z","","","","","","","","","","","ControlQ","","50","","","","","","","","","","","","","","","","","","","","","","","","","","","","",""
"3239","","<div style=""width:500px;"">
  <p>How would you describe your current emotional state?</p>
  </div>","17","html-slider-response","17","171211","0.0-5.0-3.1","251","1","2025-07-30 08:37:02","1f75c3e559b7213887762d5229550c2b","5.69.202.172","Mozilla/5.0 (Windows NT 10.0; Win64; x64) AppleWebKit/537.36 (KHTML, like Gecko) Chrome/138.0.0.0 Safari/537.36","WebKit","Chrome","138.0.0.0","Windows","10.0","https://app.prolific.com/","en-GB,en-US;q=0.9,en;q=0.8","5c4f7b99b33a5300013dbfdd","6877631c9844ddd5501205fc","6889d9a343dd5db2071c2d2e","3","1","5c4f7b99b33a5300013dbfdd","3","1","2025-07-30T08:39:56.596Z","","","","","","","","","","","StressQ","","50","","","","","","","","","","","","","","","","","","","","","","","","","","","","",""
"2391","","<div style=""width:500px;"">
  <p>What best describes how you currently feel?</p>
  </div>","85","html-slider-response","18","173603","0.0-5.0-4.1","251","1","2025-07-30 08:37:02","1f75c3e559b7213887762d5229550c2b","5.69.202.172","Mozilla/5.0 (Windows NT 10.0; Win64; x64) AppleWebKit/537.36 (KHTML, like Gecko) Chrome/138.0.0.0 Safari/537.36","WebKit","Chrome","138.0.0.0","Windows","10.0","https://app.prolific.com/","en-GB,en-US;q=0.9,en;q=0.8","5c4f7b99b33a5300013dbfdd","6877631c9844ddd5501205fc","6889d9a343dd5db2071c2d2e","3","1","5c4f7b99b33a5300013dbfdd","3","1","2025-07-30T08:39:58.988Z","","","","","","","","","","","MotivationQ","","50","","","","","","","","","","","","","","","","","","","","","","","","","","","","",""
"","","","","ctl-task-cpt","19","213979","0.0-5.0-0.2","251","1","2025-07-30 08:37:02","1f75c3e559b7213887762d5229550c2b","5.69.202.172","Mozilla/5.0 (Windows NT 10.0; Win64; x64) AppleWebKit/537.36 (KHTML, like Gecko) Chrome/138.0.0.0 Safari/537.36","WebKit","Chrome","138.0.0.0","Windows","10.0","https://app.prolific.com/","en-GB,en-US;q=0.9,en;q=0.8","5c4f7b99b33a5300013dbfdd","6877631c9844ddd5501205fc","6889d9a343dd5db2071c2d2e","3","1","5c4f7b99b33a5300013dbfdd","3","1","2025-07-30T08:40:39.364Z","","","","","","","","","","","","","","win-only","3","g1:SW,g2:NE","0.8","3","0","176234.4","997.2","6001.2","37366.1","1","4","8","6","2","8","8","19","11","0.14393939393939395","960.3","3000","220","[""up"",""right""]","{""num_key_presses"":8,""num_perfect"":6,""num_errors"":0,""num_randdir"":2,""num_randdir_good_moves"":1,""num_whilered"":0,""num_whileblue"":0,""num_blue"":3,""num_good_moves"":7}","[410.616960471017,408.2888378552028,0.2,410.616960471017,408.2888378552028,103.1,410.616960471017,408.2888378552028,208.8,410.616960471017,408.2888378552028,308.8,410.616960471017,408.2888378552028,409.4,499.991960471017,334.0388378552028,514.2,799.741960471017,127.7888378552028,619.1,803.866960471017,127.7888378552028,721,803.866960471017,127.7888378552028,823.4,803.866960471017,127.7888378552028,924,803.866960471017,127.7888378552028,1025.1,803.866960471017,127.7888378552028,1125.1,834.116960471017,149.78883785520281,1229.9,930.366960471017,207.53883785520281,1330.3,1022.491960471017,222.66383785520281,1433.4,1026.616960471017,222.66383785520281,1534.3,1026.616960471017,222.66383785520281,1639.3,1026.616960471017,222.66383785520281,1743.9,1026.616960471017,222.66383785520281,1849.7,1026.616960471017,222.66383785520281,1950.2,1026.616960471017,222.66383785520281,2053.7,1026.616960471017,222.66383785520281,2159.1,1026.616960471017,222.66383785520281,2264.2,1026.616960471017,222.66383785520281,2364.8,1026.616960471017,222.66383785520281,2468.5,1026.616960471017,222.66383785520281,2568.6,1026.616960471017,222.66383785520281,2674.8,1026.616960471017,222.66383785520281,2778.1,1026.616960471017,222.66383785520281,2878.8,1026.616960471017,222.66383785520281,2979,1026.616960471017,222.66383785520281,3085.8,1026.616960471017,222.66383785520281,3186.9,1026.616960471017,222.66383785520281,3290.9,1026.616960471017,222.66383785520281,3394.2,1026.616960471017,222.66383785520281,3499.2,1026.616960471017,222.66383785520281,3600.8,1026.616960471017,222.66383785520281,3701.4,1026.616960471017,222.66383785520281,3806,1026.616960471017,222.66383785520281,3909.2,1026.616960471017,222.66383785520281,4009.2,1026.616960471017,222.66383785520281,4114.8,1026.616960471017,222.66383785520281,4218.5,1026.616960471017,222.66383785520281,4324,1026.616960471017,222.66383785520281,4429.2,1026.616960471017,222.66383785520281,4529.5,1026.616960471017,222.66383785520281,4635.5,1026.616960471017,222.66383785520281,4735.6,1026.616960471017,222.66383785520281,4836.1,1026.616960471017,222.66383785520281,4938.7]","[1330.5,1330.5,1000,0,330.5,""smooth"",""right"",""right"",""good_move"",4495,3164.1,2794.2,1330.9,369.9,""smooth"",""up"",""up"",""good_move"",11773.5,7278.1,3003.1,8349.7,420.7,""oops"",""up"",""up"",""good_move"",14968.4,3194.6,2512.7,11773.8,681.9,""smooth"",""up"",""up"",""good_move"",17528.8,2560.2,2192.4,14968.6,367.8,""oops"",""right"",""left"",""bad_move"",23617.5,6088.3,1988.6,21294.4,334.5,""smooth"",""right"",""right"",""good_move"",28142,4524.4,1639.1,26160.6,342.3,""smooth"",""right"",""right"",""good_move"",31258.9,3116.7,2839.1,28142.2,277.6,""smooth"",""right"",""right"",""good_move""]","",""
"1983","","<div style=""width:500px;"">
  <p>What determined the result of this run?</p>
  </div>","29","html-slider-response","20","215963","0.0-5.0-1.2","251","1","2025-07-30 08:37:02","1f75c3e559b7213887762d5229550c2b","5.69.202.172","Mozilla/5.0 (Windows NT 10.0; Win64; x64) AppleWebKit/537.36 (KHTML, like Gecko) Chrome/138.0.0.0 Safari/537.36","WebKit","Chrome","138.0.0.0","Windows","10.0","https://app.prolific.com/","en-GB,en-US;q=0.9,en;q=0.8","5c4f7b99b33a5300013dbfdd","6877631c9844ddd5501205fc","6889d9a343dd5db2071c2d2e","3","1","5c4f7b99b33a5300013dbfdd","3","1","2025-07-30T08:40:41.348Z","","","","","","","","","","","AttribQ","","50","","","","","","","","","","","","","","","","","","","","","","","","","","","","",""
"2745","","<div style=""width:500px;"">
  <p>How much control did you have over the ball?</p>
  </div>","66","html-slider-response","21","218709","0.0-5.0-2.2","251","1","2025-07-30 08:37:02","1f75c3e559b7213887762d5229550c2b","5.69.202.172","Mozilla/5.0 (Windows NT 10.0; Win64; x64) AppleWebKit/537.36 (KHTML, like Gecko) Chrome/138.0.0.0 Safari/537.36","WebKit","Chrome","138.0.0.0","Windows","10.0","https://app.prolific.com/","en-GB,en-US;q=0.9,en;q=0.8","5c4f7b99b33a5300013dbfdd","6877631c9844ddd5501205fc","6889d9a343dd5db2071c2d2e","3","1","5c4f7b99b33a5300013dbfdd","3","1","2025-07-30T08:40:44.094Z","","","","","","","","","","","ControlQ","","50","","","","","","","","","","","","","","","","","","","","","","","","","","","","",""
"2422","","<div style=""width:500px;"">
  <p>How would you describe your current emotional state?</p>
  </div>","29","html-slider-response","22","221132","0.0-5.0-3.2","251","1","2025-07-30 08:37:02","1f75c3e559b7213887762d5229550c2b","5.69.202.172","Mozilla/5.0 (Windows NT 10.0; Win64; x64) AppleWebKit/537.36 (KHTML, like Gecko) Chrome/138.0.0.0 Safari/537.36","WebKit","Chrome","138.0.0.0","Windows","10.0","https://app.prolific.com/","en-GB,en-US;q=0.9,en;q=0.8","5c4f7b99b33a5300013dbfdd","6877631c9844ddd5501205fc","6889d9a343dd5db2071c2d2e","3","1","5c4f7b99b33a5300013dbfdd","3","1","2025-07-30T08:40:46.517Z","","","","","","","","","","","StressQ","","50","","","","","","","","","","","","","","","","","","","","","","","","","","","","",""
"2181","","<div style=""width:500px;"">
  <p>What best describes how you currently feel?</p>
  </div>","85","html-slider-response","23","223315","0.0-5.0-4.2","251","1","2025-07-30 08:37:02","1f75c3e559b7213887762d5229550c2b","5.69.202.172","Mozilla/5.0 (Windows NT 10.0; Win64; x64) AppleWebKit/537.36 (KHTML, like Gecko) Chrome/138.0.0.0 Safari/537.36","WebKit","Chrome","138.0.0.0","Windows","10.0","https://app.prolific.com/","en-GB,en-US;q=0.9,en;q=0.8","5c4f7b99b33a5300013dbfdd","6877631c9844ddd5501205fc","6889d9a343dd5db2071c2d2e","3","1","5c4f7b99b33a5300013dbfdd","3","1","2025-07-30T08:40:48.700Z","","","","","","","","","","","MotivationQ","","50","","","","","","","","","","","","","","","","","","","","","","","","","","","","",""
"","","","","ctl-task-cpt","24","276927","0.0-5.0-0.3","251","1","2025-07-30 08:37:02","1f75c3e559b7213887762d5229550c2b","5.69.202.172","Mozilla/5.0 (Windows NT 10.0; Win64; x64) AppleWebKit/537.36 (KHTML, like Gecko) Chrome/138.0.0.0 Safari/537.36","WebKit","Chrome","138.0.0.0","Windows","10.0","https://app.prolific.com/","en-GB,en-US;q=0.9,en;q=0.8","5c4f7b99b33a5300013dbfdd","6877631c9844ddd5501205fc","6889d9a343dd5db2071c2d2e","3","1","5c4f7b99b33a5300013dbfdd","3","1","2025-07-30T08:41:42.312Z","","","","","","","","","","","","","","win-only","1","g1:NE,g2:SW","0.7","4","0","225946.1","796.5","5809.7","50605.3","1","4","4","6","2","4","4","23","19","0.17424242424242425","920.7","3000","155","[""down"",""left""]","{""num_key_presses"":10,""num_perfect"":7,""num_errors"":0,""num_randdir"":3,""num_randdir_good_moves"":1,""num_whilered"":0,""num_whileblue"":0,""num_blue"":5,""num_good_moves"":8}","[411.991960471017,417.9138378552028,0.1,411.991960471017,417.9138378552028,104.3,411.991960471017,417.9138378552028,205,411.991960471017,417.9138378552028,306.6,411.991960471017,417.9138378552028,414.5,208.49196047101702,565.0388378552028,514.5,50.36696047101701,672.2888378552028,614.7,31.11696047101701,681.9138378552028,714.8,33.86696047101701,708.0388378552028,820.4,46.24196047101701,725.9138378552028,926.3,46.24196047101701,725.9138378552028,1028.8,46.24196047101701,725.9138378552028,1129.9,46.24196047101701,725.9138378552028,1233.9,-15.63303952898299,721.7888378552028,1335.1,-248.00803952898298,698.4138378552028,1447.7,-248.00803952898298,698.4138378552028,1547.8,-248.00803952898298,698.4138378552028,1649.4,-248.00803952898298,698.4138378552028,1749.6,-248.00803952898298,698.4138378552028,1850.4,-248.00803952898298,698.4138378552028,1954.5,-248.00803952898298,698.4138378552028,2055.2,-248.00803952898298,698.4138378552028,2164.1,-248.00803952898298,698.4138378552028,2269.5,-248.00803952898298,698.4138378552028,2370.4,-248.00803952898298,698.4138378552028,2480.7,-248.00803952898298,698.4138378552028,2581.3,-248.00803952898298,698.4138378552028,2684,-248.00803952898298,698.4138378552028,2797,-248.00803952898298,698.4138378552028,2900.5,-248.00803952898298,698.4138378552028,3002.2,-248.00803952898298,698.4138378552028,3104.5,-248.00803952898298,698.4138378552028,3205.1,-248.00803952898298,698.4138378552028,3314.7,-248.00803952898298,698.4138378552028,3420.4,-248.00803952898298,698.4138378552028,3529.3,-248.00803952898298,698.4138378552028,3631.3,-248.00803952898298,698.4138378552028,3734.6,-248.00803952898298,698.4138378552028,3846.5,-248.00803952898298,698.4138378552028,3949.4,-248.00803952898298,698.4138378552028,4054.8,-248.00803952898298,698.4138378552028,4163.1,-248.00803952898298,698.4138378552028,4263.9,-248.00803952898298,698.4138378552028,4364.9,-248.00803952898298,698.4138378552028,4469,-248.00803952898298,698.4138378552028,4570,-248.00803952898298,698.4138378552028,4680.4,-248.00803952898298,698.4138378552028,4784.9,-248.00803952898298,698.4138378552028,4897.3,-248.00803952898298,698.4138378552028,4999.8]","[1347.9,1347.9,1000,0,347.9,""smooth"",""down"",""down"",""good_move"",4147.6,2799.4,2480,1348.2,319.4,""smooth"",""left"",""left"",""good_move"",15214.7,11066.8,3186.5,11679.5,348.7,""smooth"",""left"",""left"",""good_move"",17876.7,2661.8,2312.8,15214.9,349,""oops"",""down"",""right"",""bad_move"",26740.3,8863.2,2186.4,24200.9,353,""smooth"",""down"",""down"",""good_move"",29555.7,2815.1,2375.1,26740.6,440,""oops"",""left"",""right"",""bad_move"",32570.9,3014.9,2662.5,29556,352.4,""oops"",""left"",""down"",""good_move"",35494.3,2923,2633,32571.4,289.9,""smooth"",""left"",""left"",""good_move"",41722.1,6227.3,2836.8,38570.9,314.4,""smooth"",""left"",""left"",""good_move"",44683.7,2961.3,2482.6,41722.4,478.7,""smooth"",""left"",""left"",""good_move""]","",""
"4717","","<div style=""width:500px;"">
  <p>What determined the result of this run?</p>
  </div>","26","html-slider-response","25","281645","0.0-5.0-1.3","251","1","2025-07-30 08:37:02","1f75c3e559b7213887762d5229550c2b","5.69.202.172","Mozilla/5.0 (Windows NT 10.0; Win64; x64) AppleWebKit/537.36 (KHTML, like Gecko) Chrome/138.0.0.0 Safari/537.36","WebKit","Chrome","138.0.0.0","Windows","10.0","https://app.prolific.com/","en-GB,en-US;q=0.9,en;q=0.8","5c4f7b99b33a5300013dbfdd","6877631c9844ddd5501205fc","6889d9a343dd5db2071c2d2e","3","1","5c4f7b99b33a5300013dbfdd","3","1","2025-07-30T08:41:47.030Z","","","","","","","","","","","AttribQ","","50","","","","","","","","","","","","","","","","","","","","","","","","","","","","",""
"5567","","<div style=""width:500px;"">
  <p>How much control did you have over the ball?</p>
  </div>","79","html-slider-response","26","287214","0.0-5.0-2.3","251","1","2025-07-30 08:37:02","1f75c3e559b7213887762d5229550c2b","5.69.202.172","Mozilla/5.0 (Windows NT 10.0; Win64; x64) AppleWebKit/537.36 (KHTML, like Gecko) Chrome/138.0.0.0 Safari/537.36","WebKit","Chrome","138.0.0.0","Windows","10.0","https://app.prolific.com/","en-GB,en-US;q=0.9,en;q=0.8","5c4f7b99b33a5300013dbfdd","6877631c9844ddd5501205fc","6889d9a343dd5db2071c2d2e","3","1","5c4f7b99b33a5300013dbfdd","3","1","2025-07-30T08:41:52.599Z","","","","","","","","","","","ControlQ","","50","","","","","","","","","","","","","","","","","","","","","","","","","","","","",""
"3283","","<div style=""width:500px;"">
  <p>How would you describe your current emotional state?</p>
  </div>","23","html-slider-response","27","290498","0.0-5.0-3.3","251","1","2025-07-30 08:37:02","1f75c3e559b7213887762d5229550c2b","5.69.202.172","Mozilla/5.0 (Windows NT 10.0; Win64; x64) AppleWebKit/537.36 (KHTML, like Gecko) Chrome/138.0.0.0 Safari/537.36","WebKit","Chrome","138.0.0.0","Windows","10.0","https://app.prolific.com/","en-GB,en-US;q=0.9,en;q=0.8","5c4f7b99b33a5300013dbfdd","6877631c9844ddd5501205fc","6889d9a343dd5db2071c2d2e","3","1","5c4f7b99b33a5300013dbfdd","3","1","2025-07-30T08:41:55.883Z","","","","","","","","","","","StressQ","","50","","","","","","","","","","","","","","","","","","","","","","","","","","","","",""
"5079","","<div style=""width:500px;"">
  <p>What best describes how you currently feel?</p>
  </div>","75","html-slider-response","28","295578","0.0-5.0-4.3","251","1","2025-07-30 08:37:02","1f75c3e559b7213887762d5229550c2b","5.69.202.172","Mozilla/5.0 (Windows NT 10.0; Win64; x64) AppleWebKit/537.36 (KHTML, like Gecko) Chrome/138.0.0.0 Safari/537.36","WebKit","Chrome","138.0.0.0","Windows","10.0","https://app.prolific.com/","en-GB,en-US;q=0.9,en;q=0.8","5c4f7b99b33a5300013dbfdd","6877631c9844ddd5501205fc","6889d9a343dd5db2071c2d2e","3","1","5c4f7b99b33a5300013dbfdd","3","1","2025-07-30T08:42:00.964Z","","","","","","","","","","","MotivationQ","","50","","","","","","","","","","","","","","","","","","","","","","","","","","","","",""
"","","","","ctl-task-cpt","29","339372","0.0-5.0-0.4","251","1","2025-07-30 08:37:02","1f75c3e559b7213887762d5229550c2b","5.69.202.172","Mozilla/5.0 (Windows NT 10.0; Win64; x64) AppleWebKit/537.36 (KHTML, like Gecko) Chrome/138.0.0.0 Safari/537.36","WebKit","Chrome","138.0.0.0","Windows","10.0","https://app.prolific.com/","en-GB,en-US;q=0.9,en;q=0.8","5c4f7b99b33a5300013dbfdd","6877631c9844ddd5501205fc","6889d9a343dd5db2071c2d2e","3","1","5c4f7b99b33a5300013dbfdd","3","1","2025-07-30T08:42:44.757Z","","","","","","","","","","","","","","win-only","1","g1:NE,g2:SW","0.6","5","0","298210.3","1140.2","6142.5","40775.3","1","4","4","6","2","-4","-4","19","23","0.14393939393939395","1065.1","3000","-2475","[""down"",""left""]","{""num_key_presses"":8,""num_perfect"":6,""num_errors"":0,""num_randdir"":2,""num_randdir_good_moves"":0,""num_whilered"":0,""num_whileblue"":0,""num_blue"":3,""num_good_moves"":6}","[420.241960471017,422.0388378552028,0.1,420.241960471017,422.0388378552028,101.2,420.241960471017,422.0388378552028,201.4,420.241960471017,422.0388378552028,303.9,420.241960471017,422.0388378552028,405.3,176.86696047101702,600.7888378552028,510.2,103.99196047101701,662.6638378552028,617.2,91.61696047101701,694.2888378552028,721.4,91.61696047101701,723.1638378552028,826.5,92.99196047101701,731.4138378552028,930.5,92.99196047101701,731.4138378552028,1031.2,92.99196047101701,731.4138378552028,1135.6,92.99196047101701,731.4138378552028,1236,92.99196047101701,731.4138378552028,1345.5,92.99196047101701,731.4138378552028,1445.9,92.99196047101701,731.4138378552028,1550.8,92.99196047101701,731.4138378552028,1656.3,92.99196047101701,731.4138378552028,1756.3,9.11696047101701,736.9138378552028,1859.7,-224.63303952898298,754.7888378552028,1964.6,-327.758039528983,750.6638378552028,2065.9,-338.758039528983,746.5388378552028,2171.1,-338.758039528983,746.5388378552028,2275.5,-338.758039528983,746.5388378552028,2380.3,-338.758039528983,746.5388378552028,2481.8,-338.758039528983,746.5388378552028,2585.9,-338.758039528983,746.5388378552028,2690.7,-338.758039528983,746.5388378552028,2802.1,-338.758039528983,746.5388378552028,2908.5,-338.758039528983,746.5388378552028,3009.2,-338.758039528983,746.5388378552028,3110.9,-338.758039528983,746.5388378552028,3213.8,-338.758039528983,746.5388378552028,3317.1,-338.758039528983,746.5388378552028,3420.5,-338.758039528983,746.5388378552028,3520.6,-338.758039528983,746.5388378552028,3620.7,-338.758039528983,746.5388378552028,3721.3,-338.758039528983,746.5388378552028,3829.4,-338.758039528983,746.5388378552028,3930.8,-338.758039528983,746.5388378552028,4035.5,-338.758039528983,746.5388378552028,4141.2,-338.758039528983,746.5388378552028,4252.3,-338.758039528983,746.5388378552028,4367.2,-338.758039528983,746.5388378552028,4468.6,-338.758039528983,746.5388378552028,4570.9,-338.758039528983,746.5388378552028,4670.9,-338.758039528983,746.5388378552028,4771.1,-338.758039528983,746.5388378552028,4871.1,-338.758039528983,746.5388378552028,4976.8]","[5152.1,5152.1,2748.5,2024.1,379.5,""smooth"",""down"",""down"",""good_move"",8888,3735.1,3041.9,5152.9,693.2,""smooth"",""left"",""left"",""good_move"",11942,3053.5,2261.8,8888.5,791.7,""smooth"",""down"",""down"",""good_move"",15056.2,3113.9,2713.1,11942.3,400.8,""oops"",""left"",""right"",""bad_move"",21137.5,6080.8,2318.6,18456.9,362,""smooth"",""left"",""left"",""good_move"",23902.4,2764.7,2432.1,21137.7,332.6,""smooth"",""left"",""left"",""good_move"",26989.9,3087.2,2699.8,23902.7,387.4,""oops"",""down"",""up"",""bad_move"",29105.7,2115.4,1700.6,26990.3,414.9,""smooth"",""left"",""left"",""good_move""]","",""
"2277","","<div style=""width:500px;"">
  <p>What determined the result of this run?</p>
  </div>","0","html-slider-response","30","341650","0.0-5.0-1.4","251","1","2025-07-30 08:37:02","1f75c3e559b7213887762d5229550c2b","5.69.202.172","Mozilla/5.0 (Windows NT 10.0; Win64; x64) AppleWebKit/537.36 (KHTML, like Gecko) Chrome/138.0.0.0 Safari/537.36","WebKit","Chrome","138.0.0.0","Windows","10.0","https://app.prolific.com/","en-GB,en-US;q=0.9,en;q=0.8","5c4f7b99b33a5300013dbfdd","6877631c9844ddd5501205fc","6889d9a343dd5db2071c2d2e","3","1","5c4f7b99b33a5300013dbfdd","3","1","2025-07-30T08:42:47.035Z","","","","","","","","","","","AttribQ","","50","","","","","","","","","","","","","","","","","","","","","","","","","","","","",""
"2094","","<div style=""width:500px;"">
  <p>How much control did you have over the ball?</p>
  </div>","0","html-slider-response","31","343745","0.0-5.0-2.4","251","1","2025-07-30 08:37:02","1f75c3e559b7213887762d5229550c2b","5.69.202.172","Mozilla/5.0 (Windows NT 10.0; Win64; x64) AppleWebKit/537.36 (KHTML, like Gecko) Chrome/138.0.0.0 Safari/537.36","WebKit","Chrome","138.0.0.0","Windows","10.0","https://app.prolific.com/","en-GB,en-US;q=0.9,en;q=0.8","5c4f7b99b33a5300013dbfdd","6877631c9844ddd5501205fc","6889d9a343dd5db2071c2d2e","3","1","5c4f7b99b33a5300013dbfdd","3","1","2025-07-30T08:42:49.130Z","","","","","","","","","","","ControlQ","","50","","","","","","","","","","","","","","","","","","","","","","","","","","","","",""
"2677","","<div style=""width:500px;"">
  <p>How would you describe your current emotional state?</p>
  </div>","27","html-slider-response","32","346423","0.0-5.0-3.4","251","1","2025-07-30 08:37:02","1f75c3e559b7213887762d5229550c2b","5.69.202.172","Mozilla/5.0 (Windows NT 10.0; Win64; x64) AppleWebKit/537.36 (KHTML, like Gecko) Chrome/138.0.0.0 Safari/537.36","WebKit","Chrome","138.0.0.0","Windows","10.0","https://app.prolific.com/","en-GB,en-US;q=0.9,en;q=0.8","5c4f7b99b33a5300013dbfdd","6877631c9844ddd5501205fc","6889d9a343dd5db2071c2d2e","3","1","5c4f7b99b33a5300013dbfdd","3","1","2025-07-30T08:42:51.808Z","","","","","","","","","","","StressQ","","50","","","","","","","","","","","","","","","","","","","","","","","","","","","","",""
"1991","","<div style=""width:500px;"">
  <p>What best describes how you currently feel?</p>
  </div>","69","html-slider-response","33","348415","0.0-5.0-4.4","251","1","2025-07-30 08:37:02","1f75c3e559b7213887762d5229550c2b","5.69.202.172","Mozilla/5.0 (Windows NT 10.0; Win64; x64) AppleWebKit/537.36 (KHTML, like Gecko) Chrome/138.0.0.0 Safari/537.36","WebKit","Chrome","138.0.0.0","Windows","10.0","https://app.prolific.com/","en-GB,en-US;q=0.9,en;q=0.8","5c4f7b99b33a5300013dbfdd","6877631c9844ddd5501205fc","6889d9a343dd5db2071c2d2e","3","1","5c4f7b99b33a5300013dbfdd","3","1","2025-07-30T08:42:53.800Z","","","","","","","","","","","MotivationQ","","50","","","","","","","","","","","","","","","","","","","","","","","","","","","","",""
"","","","","ctl-task-cpt","34","407003","0.0-5.0-0.5","251","1","2025-07-30 08:37:02","1f75c3e559b7213887762d5229550c2b","5.69.202.172","Mozilla/5.0 (Windows NT 10.0; Win64; x64) AppleWebKit/537.36 (KHTML, like Gecko) Chrome/138.0.0.0 Safari/537.36","WebKit","Chrome","138.0.0.0","Windows","10.0","https://app.prolific.com/","en-GB,en-US;q=0.9,en;q=0.8","5c4f7b99b33a5300013dbfdd","6877631c9844ddd5501205fc","6889d9a343dd5db2071c2d2e","3","1","5c4f7b99b33a5300013dbfdd","3","1","2025-07-30T08:43:52.388Z","","","","","","","","","","","","","","win-only","1","g1:NE,g2:SW","0.5","6","0","351046.9","949","5951.3","55556.9","1","4","8","6","2","-8","-9","10","19","0.07575757575757576","1054.7","3000","-2235","[""down"",""left""]","{""num_key_presses"":11,""num_perfect"":5,""num_errors"":1,""num_randdir"":5,""num_randdir_good_moves"":2,""num_whilered"":0,""num_whileblue"":1,""num_blue"":6,""num_good_moves"":7}","[413.366960471017,415.1638378552028,0.1,413.366960471017,415.1638378552028,102.2,413.366960471017,415.1638378552028,207.5,413.366960471017,415.1638378552028,307.5,405.116960471017,419.2888378552028,411.2,193.36696047101702,587.0388378552028,522.6,153.49196047101702,646.1638378552028,623,132.86696047101702,698.4138378552028,727.3,105.36696047101701,745.1638378552028,828.3,101.24196047101701,749.2888378552028,933.1,101.24196047101701,749.2888378552028,1036.9,101.24196047101701,749.2888378552028,1137.6,101.24196047101701,749.2888378552028,1243.1,101.24196047101701,749.2888378552028,1355.8,-138.00803952898298,706.6638378552028,1457.3,-215.00803952898298,709.4138378552028,1557.9,-215.00803952898298,709.4138378552028,1671.7,-215.00803952898298,709.4138378552028,1776.6,-215.00803952898298,709.4138378552028,1877.9,-215.00803952898298,709.4138378552028,1986.9,-215.00803952898298,709.4138378552028,2087.2,-215.00803952898298,709.4138378552028,2187.4,-215.00803952898298,709.4138378552028,2287.4,-215.00803952898298,709.4138378552028,2391.4,-215.00803952898298,709.4138378552028,2491.5,-215.00803952898298,709.4138378552028,2591.9,-215.00803952898298,709.4138378552028,2692.6,-215.00803952898298,709.4138378552028,2796.6,-215.00803952898298,709.4138378552028,2897.5,-215.00803952898298,709.4138378552028,3002,-215.00803952898298,709.4138378552028,3102.3,-215.00803952898298,709.4138378552028,3203.7,-215.00803952898298,709.4138378552028,3307.8,-215.00803952898298,709.4138378552028,3411.4,-215.00803952898298,709.4138378552028,3511.5,-215.00803952898298,709.4138378552028,3611.6,-215.00803952898298,709.4138378552028,3720.8,-215.00803952898298,709.4138378552028,3821.2,-215.00803952898298,709.4138378552028,3921.8,-215.00803952898298,709.4138378552028,4022.2,-215.00803952898298,709.4138378552028,4122.6,-215.00803952898298,709.4138378552028,4223,-215.00803952898298,709.4138378552028,4336.9,-215.00803952898298,709.4138378552028,4437.5,-215.00803952898298,709.4138378552028,4537.7,-215.00803952898298,709.4138378552028,4642.2,-215.00803952898298,709.4138378552028,4757.4,-215.00803952898298,709.4138378552028,4862.1,-215.00803952898298,709.4138378552028,4971.6]","[8272.8,8272.8,2344.3,5616.6,311.9,""oops"",""down"",""up"",""bad_move"",11296.2,3023,2611.3,8273.2,411.7,""oops"",""down"",""right"",""bad_move"",14112.4,2815.8,2422.1,11296.6,393.8,""smooth"",""down"",""down"",""good_move"",23307.6,9194.6,1551.7,21364.3,391.6,""smooth"",""left"",""left"",""good_move"",26958.7,3650.8,2904.4,23308,746.4,""smooth"",""left"",""left"",""good_move"",29623.1,2664,2282.8,26959.1,381.2,""smooth"",""down"",""down"",""good_move"",32447.7,2824.3,2397.4,29623.4,426.9,""oops"",""left"",""up"",""bad_move"",35753.6,3305.5,2933.7,32448.1,371.8,""smooth"",""left"",""left"",""good_move"",38732.6,2978.7,2632.6,35753.9,346.1,""oops"",""left"",""left"",""good_move"",41555.3,2822.4,2586.3,38732.9,236.1,""while_blue"",""down"",""right"",""bad_move"",47451.6,5895.2,2362.2,44740.2,349.2,""oops"",""down"",""left"",""good_move""]","",""
"1818","","<div style=""width:500px;"">
  <p>What determined the result of this run?</p>
  </div>","0","html-slider-response","35","408822","0.0-5.0-1.5","251","1","2025-07-30 08:37:02","1f75c3e559b7213887762d5229550c2b","5.69.202.172","Mozilla/5.0 (Windows NT 10.0; Win64; x64) AppleWebKit/537.36 (KHTML, like Gecko) Chrome/138.0.0.0 Safari/537.36","WebKit","Chrome","138.0.0.0","Windows","10.0","https://app.prolific.com/","en-GB,en-US;q=0.9,en;q=0.8","5c4f7b99b33a5300013dbfdd","6877631c9844ddd5501205fc","6889d9a343dd5db2071c2d2e","3","1","5c4f7b99b33a5300013dbfdd","3","1","2025-07-30T08:43:54.207Z","","","","","","","","","","","AttribQ","","50","","","","","","","","","","","","","","","","","","","","","","","","","","","","",""
"2109","","<div style=""width:500px;"">
  <p>How much control did you have over the ball?</p>
  </div>","0","html-slider-response","36","410931","0.0-5.0-2.5","251","1","2025-07-30 08:37:02","1f75c3e559b7213887762d5229550c2b","5.69.202.172","Mozilla/5.0 (Windows NT 10.0; Win64; x64) AppleWebKit/537.36 (KHTML, like Gecko) Chrome/138.0.0.0 Safari/537.36","WebKit","Chrome","138.0.0.0","Windows","10.0","https://app.prolific.com/","en-GB,en-US;q=0.9,en;q=0.8","5c4f7b99b33a5300013dbfdd","6877631c9844ddd5501205fc","6889d9a343dd5db2071c2d2e","3","1","5c4f7b99b33a5300013dbfdd","3","1","2025-07-30T08:43:56.316Z","","","","","","","","","","","ControlQ","","50","","","","","","","","","","","","","","","","","","","","","","","","","","","","",""
"2574","","<div style=""width:500px;"">
  <p>How would you describe your current emotional state?</p>
  </div>","42","html-slider-response","37","413506","0.0-5.0-3.5","251","1","2025-07-30 08:37:02","1f75c3e559b7213887762d5229550c2b","5.69.202.172","Mozilla/5.0 (Windows NT 10.0; Win64; x64) AppleWebKit/537.36 (KHTML, like Gecko) Chrome/138.0.0.0 Safari/537.36","WebKit","Chrome","138.0.0.0","Windows","10.0","https://app.prolific.com/","en-GB,en-US;q=0.9,en;q=0.8","5c4f7b99b33a5300013dbfdd","6877631c9844ddd5501205fc","6889d9a343dd5db2071c2d2e","3","1","5c4f7b99b33a5300013dbfdd","3","1","2025-07-30T08:43:58.892Z","","","","","","","","","","","StressQ","","50","","","","","","","","","","","","","","","","","","","","","","","","","","","","",""
"2289","","<div style=""width:500px;"">
  <p>What best describes how you currently feel?</p>
  </div>","57","html-slider-response","38","415797","0.0-5.0-4.5","251","1","2025-07-30 08:37:02","1f75c3e559b7213887762d5229550c2b","5.69.202.172","Mozilla/5.0 (Windows NT 10.0; Win64; x64) AppleWebKit/537.36 (KHTML, like Gecko) Chrome/138.0.0.0 Safari/537.36","WebKit","Chrome","138.0.0.0","Windows","10.0","https://app.prolific.com/","en-GB,en-US;q=0.9,en;q=0.8","5c4f7b99b33a5300013dbfdd","6877631c9844ddd5501205fc","6889d9a343dd5db2071c2d2e","3","1","5c4f7b99b33a5300013dbfdd","3","1","2025-07-30T08:44:01.182Z","","","","","","","","","","","MotivationQ","","50","","","","","","","","","","","","","","","","","","","","","","","","","","","","",""
"","","","","ctl-task-cpt","39","463334","0.0-5.0-0.6","251","1","2025-07-30 08:37:02","1f75c3e559b7213887762d5229550c2b","5.69.202.172","Mozilla/5.0 (Windows NT 10.0; Win64; x64) AppleWebKit/537.36 (KHTML, like Gecko) Chrome/138.0.0.0 Safari/537.36","WebKit","Chrome","138.0.0.0","Windows","10.0","https://app.prolific.com/","en-GB,en-US;q=0.9,en;q=0.8","5c4f7b99b33a5300013dbfdd","6877631c9844ddd5501205fc","6889d9a343dd5db2071c2d2e","3","1","5c4f7b99b33a5300013dbfdd","3","1","2025-07-30T08:44:48.719Z","","","","","","","","","","","","","","win-only","1","g1:NE,g2:SW","0.4","7","0","418428.1","699.5","5700.6","44508.6","1","4","4","6","2","4","4","14","10","0.10606060606060606","794","3000","115","[""down"",""left""]","{""num_key_presses"":12,""num_perfect"":5,""num_errors"":0,""num_randdir"":7,""num_randdir_good_moves"":4,""num_whilered"":0,""num_whileblue"":0,""num_blue"":1,""num_good_moves"":9}","[420.241960471017,420.6638378552028,0.1,420.241960471017,420.6638378552028,102.3,420.241960471017,420.6638378552028,206.6,420.241960471017,420.6638378552028,318.2,420.241960471017,420.6638378552028,422.1,154.86696047101702,647.5388378552028,527.2,88.86696047101701,730.0388378552028,631.1,73.74196047101701,771.2888378552028,731.6,66.86696047101701,778.1638378552028,836.3,66.86696047101701,778.1638378552028,936.7,66.86696047101701,778.1638378552028,1041.4,-44.50803952898299,732.7888378552028,1146.5,-267.258039528983,692.9138378552028,1246.8,-270.008039528983,692.9138378552028,1352.9,-270.008039528983,692.9138378552028,1456.8,-270.008039528983,692.9138378552028,1556.8,-270.008039528983,692.9138378552028,1656.9,-270.008039528983,692.9138378552028,1763,-270.008039528983,692.9138378552028,1867.1,-270.008039528983,692.9138378552028,1972.8,-270.008039528983,692.9138378552028,2086.3,-270.008039528983,692.9138378552028,2190.8,-270.008039528983,692.9138378552028,2291,-270.008039528983,692.9138378552028,2396.2,-270.008039528983,692.9138378552028,2500.8,-270.008039528983,692.9138378552028,2601.9,-270.008039528983,692.9138378552028,2716.9,-270.008039528983,692.9138378552028,2818.4,-270.008039528983,692.9138378552028,2922.1,-270.008039528983,692.9138378552028,3025.8,-270.008039528983,692.9138378552028,3127.4,-270.008039528983,692.9138378552028,3231.4,-270.008039528983,692.9138378552028,3336.2,-270.008039528983,692.9138378552028,3450.8,-270.008039528983,692.9138378552028,3551.6,-270.008039528983,692.9138378552028,3656.4,-270.008039528983,692.9138378552028,3761.6,-270.008039528983,692.9138378552028,3865.8,-270.008039528983,692.9138378552028,3966.6,-270.008039528983,692.9138378552028,4066.6,-270.008039528983,692.9138378552028,4167.4,-270.008039528983,692.9138378552028,4271.3,-270.008039528983,692.9138378552028,4371.3,-270.008039528983,692.9138378552028,4471.5,-270.008039528983,692.9138378552028,4571.8,-270.008039528983,692.9138378552028,4676.8,-270.008039528983,692.9138378552028,4780.9,-270.008039528983,692.9138378552028,4881,-270.008039528983,692.9138378552028,4981.4]","[1379.5,1379.5,1000,0,379.6,""oops"",""down"",""right"",""bad_move"",4162.8,2782.8,2464,1380,318.8,""oops"",""down"",""down"",""good_move"",10919,6755.8,3023.3,7534.9,360.8,""oops"",""left"",""left"",""good_move"",14780.2,3860.7,3507.2,10919.5,353.5,""smooth"",""left"",""left"",""good_move"",17635.9,2855.5,2458.1,14780.4,397.4,""smooth"",""left"",""left"",""good_move"",20538.7,2902.5,2572.5,17636.2,330,""smooth"",""down"",""down"",""good_move"",23144.7,2605.5,2227,20539.2,378.5,""oops"",""left"",""up"",""bad_move"",26154.3,3009.2,2638.2,23145.1,371,""oops"",""left"",""right"",""bad_move"",29889,3734.2,3433.4,26154.8,300.8,""smooth"",""left"",""left"",""good_move"",33053.1,3163.7,2812.9,29889.4,350.8,""oops"",""left"",""down"",""good_move"",35810.4,2757,2402.6,33053.4,354.4,""smooth"",""left"",""left"",""good_move"",38657.9,2847.2,2507.7,35810.7,339.5,""oops"",""down"",""down"",""good_move""]","",""
"2403","","<div style=""width:500px;"">
  <p>What determined the result of this run?</p>
  </div>","0","html-slider-response","40","465739","0.0-5.0-1.6","251","1","2025-07-30 08:37:02","1f75c3e559b7213887762d5229550c2b","5.69.202.172","Mozilla/5.0 (Windows NT 10.0; Win64; x64) AppleWebKit/537.36 (KHTML, like Gecko) Chrome/138.0.0.0 Safari/537.36","WebKit","Chrome","138.0.0.0","Windows","10.0","https://app.prolific.com/","en-GB,en-US;q=0.9,en;q=0.8","5c4f7b99b33a5300013dbfdd","6877631c9844ddd5501205fc","6889d9a343dd5db2071c2d2e","3","1","5c4f7b99b33a5300013dbfdd","3","1","2025-07-30T08:44:51.124Z","","","","","","","","","","","AttribQ","","50","","","","","","","","","","","","","","","","","","","","","","","","","","","","",""
"3306","","<div style=""width:500px;"">
  <p>How much control did you have over the ball?</p>
  </div>","13","html-slider-response","41","469046","0.0-5.0-2.6","251","1","2025-07-30 08:37:02","1f75c3e559b7213887762d5229550c2b","5.69.202.172","Mozilla/5.0 (Windows NT 10.0; Win64; x64) AppleWebKit/537.36 (KHTML, like Gecko) Chrome/138.0.0.0 Safari/537.36","WebKit","Chrome","138.0.0.0","Windows","10.0","https://app.prolific.com/","en-GB,en-US;q=0.9,en;q=0.8","5c4f7b99b33a5300013dbfdd","6877631c9844ddd5501205fc","6889d9a343dd5db2071c2d2e","3","1","5c4f7b99b33a5300013dbfdd","3","1","2025-07-30T08:44:54.431Z","","","","","","","","","","","ControlQ","","50","","","","","","","","","","","","","","","","","","","","","","","","","","","","",""
"4079","","<div style=""width:500px;"">
  <p>How would you describe your current emotional state?</p>
  </div>","40","html-slider-response","42","473127","0.0-5.0-3.6","251","1","2025-07-30 08:37:02","1f75c3e559b7213887762d5229550c2b","5.69.202.172","Mozilla/5.0 (Windows NT 10.0; Win64; x64) AppleWebKit/537.36 (KHTML, like Gecko) Chrome/138.0.0.0 Safari/537.36","WebKit","Chrome","138.0.0.0","Windows","10.0","https://app.prolific.com/","en-GB,en-US;q=0.9,en;q=0.8","5c4f7b99b33a5300013dbfdd","6877631c9844ddd5501205fc","6889d9a343dd5db2071c2d2e","3","1","5c4f7b99b33a5300013dbfdd","3","1","2025-07-30T08:44:58.512Z","","","","","","","","","","","StressQ","","50","","","","","","","","","","","","","","","","","","","","","","","","","","","","",""
"1464","","<div style=""width:500px;"">
  <p>What best describes how you currently feel?</p>
  </div>","55","html-slider-response","43","474592","0.0-5.0-4.6","251","1","2025-07-30 08:37:02","1f75c3e559b7213887762d5229550c2b","5.69.202.172","Mozilla/5.0 (Windows NT 10.0; Win64; x64) AppleWebKit/537.36 (KHTML, like Gecko) Chrome/138.0.0.0 Safari/537.36","WebKit","Chrome","138.0.0.0","Windows","10.0","https://app.prolific.com/","en-GB,en-US;q=0.9,en;q=0.8","5c4f7b99b33a5300013dbfdd","6877631c9844ddd5501205fc","6889d9a343dd5db2071c2d2e","3","1","5c4f7b99b33a5300013dbfdd","3","1","2025-07-30T08:44:59.977Z","","","","","","","","","","","MotivationQ","","50","","","","","","","","","","","","","","","","","","","","","","","","","","","","",""
"","","","","ctl-task-cpt","44","504606","0.0-5.0-0.7","251","1","2025-07-30 08:37:02","1f75c3e559b7213887762d5229550c2b","5.69.202.172","Mozilla/5.0 (Windows NT 10.0; Win64; x64) AppleWebKit/537.36 (KHTML, like Gecko) Chrome/138.0.0.0 Safari/537.36","WebKit","Chrome","138.0.0.0","Windows","10.0","https://app.prolific.com/","en-GB,en-US;q=0.9,en;q=0.8","5c4f7b99b33a5300013dbfdd","6877631c9844ddd5501205fc","6889d9a343dd5db2071c2d2e","3","1","5c4f7b99b33a5300013dbfdd","3","1","2025-07-30T08:45:29.991Z","","","","","","","","","","","","","","win-only","0","g1:NW,g2:SE","0.3","8","0","477223.5","1286","6293.4","27006.3","1","4","8","6","2","8","7","21","14","0.1590909090909091","974.2","3000","1155","[""down"",""right""]","{""num_key_presses"":8,""num_perfect"":3,""num_errors"":1,""num_randdir"":4,""num_randdir_good_moves"":3,""num_whilered"":0,""num_whileblue"":1,""num_blue"":1,""num_good_moves"":7}","[416.116960471017,416.5388378552028,0.2,416.116960471017,416.5388378552028,101.7,416.116960471017,416.5388378552028,204.4,416.116960471017,416.5388378552028,306.4,416.116960471017,416.5388378552028,413.3,488.991960471017,467.4138378552028,519.4,662.241960471017,691.5388378552028,632.4,663.616960471017,695.6638378552028,736.1,673.241960471017,699.7888378552028,851,759.866960471017,749.2888378552028,961.8,759.866960471017,749.2888378552028,1065.1,759.866960471017,749.2888378552028,1165.2,770.866960471017,749.2888378552028,1269.8,773.616960471017,745.1638378552028,1370.3,773.616960471017,745.1638378552028,1470.5,832.741960471017,747.9138378552028,1575.4,886.366960471017,750.6638378552028,1677.6,886.366960471017,750.6638378552028,1782.2,886.366960471017,750.6638378552028,1886.1,886.366960471017,750.6638378552028,1994.7,886.366960471017,750.6638378552028,2096.3,886.366960471017,750.6638378552028,2200.2,886.366960471017,750.6638378552028,2300.7,886.366960471017,750.6638378552028,2405.6,886.366960471017,750.6638378552028,2510.5,886.366960471017,750.6638378552028,2610.5,886.366960471017,750.6638378552028,2715.2,996.366960471017,750.6638378552028,2816.9,1051.366960471017,749.2888378552028,2919.7,1052.741960471017,746.5388378552028,3034.8,1052.741960471017,746.5388378552028,3135,1052.741960471017,746.5388378552028,3250.1,1052.741960471017,746.5388378552028,3364.4,1052.741960471017,746.5388378552028,3466.2,1052.741960471017,746.5388378552028,3577.6,1052.741960471017,746.5388378552028,3679.6,1052.741960471017,746.5388378552028,3782.8,1052.741960471017,746.5388378552028,3885.4,1052.741960471017,746.5388378552028,3990.5,1052.741960471017,746.5388378552028,4101.6,1052.741960471017,746.5388378552028,4202.5,1052.741960471017,746.5388378552028,4304.2,1052.741960471017,746.5388378552028,4416.4,1052.741960471017,746.5388378552028,4538.6,1052.741960471017,746.5388378552028,4640.1,1052.741960471017,746.5388378552028,4740.3,1052.741960471017,746.5388378552028,4840.4,1052.741960471017,746.5388378552028,4944.8]","[1322.5,1322.5,1000,0,322.5,""smooth"",""down"",""down"",""good_move"",4883.1,3560.2,3238.2,1322.9,322,""smooth"",""down"",""down"",""good_move"",7255.3,2372,2005,4883.3,367,""oops"",""down"",""up"",""bad_move"",9799.7,2543.3,2230.9,7256.4,312.4,""oops"",""down"",""down"",""good_move"",12789.7,2989.7,2672.1,9800,317.6,""oops"",""down"",""right"",""good_move"",15685.9,2895.8,2577.2,12790.1,318.6,""while_blue"",""down"",""down"",""good_move"",17659.7,1973.6,1422.6,15686.1,551,""oops"",""down"",""right"",""good_move"",20600.6,2940.6,2561.7,17660,378.9,""smooth"",""right"",""right"",""good_move""]","",""
"3834","","<div style=""width:500px;"">
  <p>What determined the result of this run?</p>
  </div>","0","html-slider-response","45","508441","0.0-5.0-1.7","251","1","2025-07-30 08:37:02","1f75c3e559b7213887762d5229550c2b","5.69.202.172","Mozilla/5.0 (Windows NT 10.0; Win64; x64) AppleWebKit/537.36 (KHTML, like Gecko) Chrome/138.0.0.0 Safari/537.36","WebKit","Chrome","138.0.0.0","Windows","10.0","https://app.prolific.com/","en-GB,en-US;q=0.9,en;q=0.8","5c4f7b99b33a5300013dbfdd","6877631c9844ddd5501205fc","6889d9a343dd5db2071c2d2e","3","1","5c4f7b99b33a5300013dbfdd","3","1","2025-07-30T08:45:33.826Z","","","","","","","","","","","AttribQ","","50","","","","","","","","","","","","","","","","","","","","","","","","","","","","",""
"1984","","<div style=""width:500px;"">
  <p>How much control did you have over the ball?</p>
  </div>","33","html-slider-response","46","510427","0.0-5.0-2.7","251","1","2025-07-30 08:37:02","1f75c3e559b7213887762d5229550c2b","5.69.202.172","Mozilla/5.0 (Windows NT 10.0; Win64; x64) AppleWebKit/537.36 (KHTML, like Gecko) Chrome/138.0.0.0 Safari/537.36","WebKit","Chrome","138.0.0.0","Windows","10.0","https://app.prolific.com/","en-GB,en-US;q=0.9,en;q=0.8","5c4f7b99b33a5300013dbfdd","6877631c9844ddd5501205fc","6889d9a343dd5db2071c2d2e","3","1","5c4f7b99b33a5300013dbfdd","3","1","2025-07-30T08:45:35.812Z","","","","","","","","","","","ControlQ","","50","","","","","","","","","","","","","","","","","","","","","","","","","","","","",""
"2857","","<div style=""width:500px;"">
  <p>How would you describe your current emotional state?</p>
  </div>","54","html-slider-response","47","513285","0.0-5.0-3.7","251","1","2025-07-30 08:37:02","1f75c3e559b7213887762d5229550c2b","5.69.202.172","Mozilla/5.0 (Windows NT 10.0; Win64; x64) AppleWebKit/537.36 (KHTML, like Gecko) Chrome/138.0.0.0 Safari/537.36","WebKit","Chrome","138.0.0.0","Windows","10.0","https://app.prolific.com/","en-GB,en-US;q=0.9,en;q=0.8","5c4f7b99b33a5300013dbfdd","6877631c9844ddd5501205fc","6889d9a343dd5db2071c2d2e","3","1","5c4f7b99b33a5300013dbfdd","3","1","2025-07-30T08:45:38.670Z","","","","","","","","","","","StressQ","","50","","","","","","","","","","","","","","","","","","","","","","","","","","","","",""
"1586","","<div style=""width:500px;"">
  <p>What best describes how you currently feel?</p>
  </div>","53","html-slider-response","48","514872","0.0-5.0-4.7","251","1","2025-07-30 08:37:02","1f75c3e559b7213887762d5229550c2b","5.69.202.172","Mozilla/5.0 (Windows NT 10.0; Win64; x64) AppleWebKit/537.36 (KHTML, like Gecko) Chrome/138.0.0.0 Safari/537.36","WebKit","Chrome","138.0.0.0","Windows","10.0","https://app.prolific.com/","en-GB,en-US;q=0.9,en;q=0.8","5c4f7b99b33a5300013dbfdd","6877631c9844ddd5501205fc","6889d9a343dd5db2071c2d2e","3","1","5c4f7b99b33a5300013dbfdd","3","1","2025-07-30T08:45:40.257Z","","","","","","","","","","","MotivationQ","","50","","","","","","","","","","","","","","","","","","","","","","","","","","","","",""
"","","","","ctl-task-cpt","49","553401","0.0-5.0-0.8","251","1","2025-07-30 08:37:02","1f75c3e559b7213887762d5229550c2b","5.69.202.172","Mozilla/5.0 (Windows NT 10.0; Win64; x64) AppleWebKit/537.36 (KHTML, like Gecko) Chrome/138.0.0.0 Safari/537.36","WebKit","Chrome","138.0.0.0","Windows","10.0","https://app.prolific.com/","en-GB,en-US;q=0.9,en;q=0.8","5c4f7b99b33a5300013dbfdd","6877631c9844ddd5501205fc","6889d9a343dd5db2071c2d2e","3","1","5c4f7b99b33a5300013dbfdd","3","1","2025-07-30T08:46:18.786Z","","","","","","","","","","","","","","win-only","3","g1:SW,g2:NE","0.2","9","0","517503.2","706.3","5706.9","35510.8","1","4","4","6","2","-4","-4","17","21","0.12878787878787878","830.2","3000","-2345","[""up"",""right""]","{""num_key_presses"":9,""num_perfect"":2,""num_errors"":0,""num_randdir"":7,""num_randdir_good_moves"":4,""num_whilered"":0,""num_whileblue"":0,""num_blue"":1,""num_good_moves"":6}","[414.741960471017,413.7888378552028,0.2,414.741960471017,413.7888378552028,107.6,414.741960471017,413.7888378552028,209.4,414.741960471017,413.7888378552028,310.3,472.491960471017,318.9138378552028,423.6,773.616960471017,83.7888378552028,525.1,773.616960471017,83.7888378552028,625.2,773.616960471017,83.7888378552028,725.9,779.116960471017,82.4138378552028,834.1,779.116960471017,82.4138378552028,934.2,779.116960471017,82.4138378552028,1035.2,835.491960471017,133.28883785520281,1139.8,851.991960471017,148.41383785520281,1239.8,851.991960471017,148.41383785520281,1345,851.991960471017,148.41383785520281,1449.8,851.991960471017,148.41383785520281,1554.8,851.991960471017,148.41383785520281,1655.3,851.991960471017,148.41383785520281,1759.7,851.991960471017,148.41383785520281,1860.5,851.991960471017,148.41383785520281,1963.3,851.991960471017,148.41383785520281,2065.2,851.991960471017,148.41383785520281,2169.5,851.991960471017,148.41383785520281,2269.7,851.991960471017,148.41383785520281,2370.6,851.991960471017,148.41383785520281,2481.7,851.991960471017,148.41383785520281,2586,851.991960471017,148.41383785520281,2690.7,851.991960471017,148.41383785520281,2808.9,851.991960471017,148.41383785520281,2910.1,851.991960471017,148.41383785520281,3015.3,851.991960471017,148.41383785520281,3116.7,851.991960471017,148.41383785520281,3223.5,851.991960471017,148.41383785520281,3332.4,851.991960471017,148.41383785520281,3433,851.991960471017,148.41383785520281,3534.7,851.991960471017,148.41383785520281,3635.1,851.991960471017,148.41383785520281,3739.5,851.991960471017,148.41383785520281,3840.8,851.991960471017,148.41383785520281,3947.5,851.991960471017,148.41383785520281,4049.8,851.991960471017,148.41383785520281,4155.9,851.991960471017,148.41383785520281,4260.9,851.991960471017,148.41383785520281,4365.9,851.991960471017,148.41383785520281,4469.7,851.991960471017,148.41383785520281,4574.7,851.991960471017,148.41383785520281,4679.5,851.991960471017,148.41383785520281,4780.9,851.991960471017,148.41383785520281,4882.1,851.991960471017,148.41383785520281,4984.2]","[1666.4,1666.4,1000,0,666.5,""smooth"",""up"",""up"",""good_move"",4446.7,2779.7,2454.8,1667,324.9,""oops"",""up"",""right"",""good_move"",7695.3,3248.1,2818.2,4447.2,429.9,""oops"",""up"",""up"",""good_move"",14164.5,6468.9,2443.4,11349.7,371.4,""oops"",""up"",""down"",""bad_move"",16720.9,2556.1,2098.9,14164.8,457.2,""smooth"",""up"",""up"",""good_move"",19848.3,3127,2786.3,16721.4,340.7,""oops"",""up"",""right"",""good_move"",22077.2,2228.6,1862.4,19848.6,366.2,""oops"",""up"",""right"",""good_move"",23927.5,1850.2,1311.1,22077.3,539.1,""oops"",""up"",""down"",""bad_move"",26993.3,3065.4,2735.5,23927.9,329.9,""oops"",""up"",""left"",""bad_move""]","",""
"6036","","<div style=""width:500px;"">
  <p>What determined the result of this run?</p>
  </div>","0","html-slider-response","50","559438","0.0-5.0-1.8","251","1","2025-07-30 08:37:02","1f75c3e559b7213887762d5229550c2b","5.69.202.172","Mozilla/5.0 (Windows NT 10.0; Win64; x64) AppleWebKit/537.36 (KHTML, like Gecko) Chrome/138.0.0.0 Safari/537.36","WebKit","Chrome","138.0.0.0","Windows","10.0","https://app.prolific.com/","en-GB,en-US;q=0.9,en;q=0.8","5c4f7b99b33a5300013dbfdd","6877631c9844ddd5501205fc","6889d9a343dd5db2071c2d2e","3","1","5c4f7b99b33a5300013dbfdd","3","1","2025-07-30T08:46:24.823Z","","","","","","","","","","","AttribQ","","50","","","","","","","","","","","","","","","","","","","","","","","","","","","","",""
"2006","","<div style=""width:500px;"">
  <p>How much control did you have over the ball?</p>
  </div>","0","html-slider-response","51","561446","0.0-5.0-2.8","251","1","2025-07-30 08:37:02","1f75c3e559b7213887762d5229550c2b","5.69.202.172","Mozilla/5.0 (Windows NT 10.0; Win64; x64) AppleWebKit/537.36 (KHTML, like Gecko) Chrome/138.0.0.0 Safari/537.36","WebKit","Chrome","138.0.0.0","Windows","10.0","https://app.prolific.com/","en-GB,en-US;q=0.9,en;q=0.8","5c4f7b99b33a5300013dbfdd","6877631c9844ddd5501205fc","6889d9a343dd5db2071c2d2e","3","1","5c4f7b99b33a5300013dbfdd","3","1","2025-07-30T08:46:26.831Z","","","","","","","","","","","ControlQ","","50","","","","","","","","","","","","","","","","","","","","","","","","","","","","",""
"2501","","<div style=""width:500px;"">
  <p>How would you describe your current emotional state?</p>
  </div>","73","html-slider-response","52","563948","0.0-5.0-3.8","251","1","2025-07-30 08:37:02","1f75c3e559b7213887762d5229550c2b","5.69.202.172","Mozilla/5.0 (Windows NT 10.0; Win64; x64) AppleWebKit/537.36 (KHTML, like Gecko) Chrome/138.0.0.0 Safari/537.36","WebKit","Chrome","138.0.0.0","Windows","10.0","https://app.prolific.com/","en-GB,en-US;q=0.9,en;q=0.8","5c4f7b99b33a5300013dbfdd","6877631c9844ddd5501205fc","6889d9a343dd5db2071c2d2e","3","1","5c4f7b99b33a5300013dbfdd","3","1","2025-07-30T08:46:29.333Z","","","","","","","","","","","StressQ","","50","","","","","","","","","","","","","","","","","","","","","","","","","","","","",""
"1855","","<div style=""width:500px;"">
  <p>What best describes how you currently feel?</p>
  </div>","43","html-slider-response","53","565804","0.0-5.0-4.8","251","1","2025-07-30 08:37:02","1f75c3e559b7213887762d5229550c2b","5.69.202.172","Mozilla/5.0 (Windows NT 10.0; Win64; x64) AppleWebKit/537.36 (KHTML, like Gecko) Chrome/138.0.0.0 Safari/537.36","WebKit","Chrome","138.0.0.0","Windows","10.0","https://app.prolific.com/","en-GB,en-US;q=0.9,en;q=0.8","5c4f7b99b33a5300013dbfdd","6877631c9844ddd5501205fc","6889d9a343dd5db2071c2d2e","3","1","5c4f7b99b33a5300013dbfdd","3","1","2025-07-30T08:46:31.190Z","","","","","","","","","","","MotivationQ","","50","","","","","","","","","","","","","","","","","","","","","","","","","","","","",""
"","","","","ctl-task-cpt","54","603287","0.0-5.0-0.9","251","1","2025-07-30 08:37:02","1f75c3e559b7213887762d5229550c2b","5.69.202.172","Mozilla/5.0 (Windows NT 10.0; Win64; x64) AppleWebKit/537.36 (KHTML, like Gecko) Chrome/138.0.0.0 Safari/537.36","WebKit","Chrome","138.0.0.0","Windows","10.0","https://app.prolific.com/","en-GB,en-US;q=0.9,en;q=0.8","5c4f7b99b33a5300013dbfdd","6877631c9844ddd5501205fc","6889d9a343dd5db2071c2d2e","3","1","5c4f7b99b33a5300013dbfdd","3","1","2025-07-30T08:47:08.672Z","","","","","","","","","","","","","","win-only","0","g1:NW,g2:SE","0.4","10","0","568437.2","743","5757.5","34450.8","1","4","8","6","2","8","6","23","17","0.17424242424242425","972","3000","955","[""down"",""right""]","{""num_key_presses"":9,""num_perfect"":3,""num_errors"":2,""num_randdir"":4,""num_randdir_good_moves"":3,""num_whilered"":0,""num_whileblue"":1,""num_blue"":2,""num_good_moves"":7}","[420.241960471017,422.0388378552028,0.2,420.241960471017,422.0388378552028,100,420.241960471017,422.0388378552028,202.2,420.241960471017,422.0388378552028,318.1,420.241960471017,422.0388378552028,420.8,598.991960471017,626.9138378552028,522.9,655.366960471017,709.4138378552028,645.3,655.366960471017,709.4138378552028,750.7,717.241960471017,741.0388378552028,867.6,750.241960471017,757.5388378552028,971.6,750.241960471017,757.5388378552028,1073.1,766.741960471017,756.1638378552028,1188.9,835.491960471017,756.1638378552028,1293.3,835.491960471017,756.1638378552028,1393.4,835.491960471017,756.1638378552028,1497.8,869.866960471017,757.5388378552028,1598,869.866960471017,757.5388378552028,1713.1,869.866960471017,757.5388378552028,1813.3,869.866960471017,757.5388378552028,1923.7,869.866960471017,757.5388378552028,2028,869.866960471017,757.5388378552028,2128.5,869.866960471017,757.5388378552028,2232.8,869.866960471017,757.5388378552028,2333.1,869.866960471017,757.5388378552028,2433.7,869.866960471017,757.5388378552028,2533.8,869.866960471017,757.5388378552028,2638.4,869.866960471017,757.5388378552028,2746.1,869.866960471017,757.5388378552028,2847.8,869.866960471017,757.5388378552028,2948.3,869.866960471017,757.5388378552028,3053.2,869.866960471017,757.5388378552028,3156.2,869.866960471017,757.5388378552028,3272.3,869.866960471017,757.5388378552028,3384.2,869.866960471017,757.5388378552028,3487.4,869.866960471017,757.5388378552028,3587.5,869.866960471017,757.5388378552028,3687.9,869.866960471017,757.5388378552028,3798.6,869.866960471017,757.5388378552028,3921.8,869.866960471017,757.5388378552028,4037,869.866960471017,757.5388378552028,4137.8,869.866960471017,757.5388378552028,4243.2,869.866960471017,757.5388378552028,4356,869.866960471017,757.5388378552028,4462.3,869.866960471017,757.5388378552028,4563,869.866960471017,757.5388378552028,4669.2,869.866960471017,757.5388378552028,4782.5,869.866960471017,757.5388378552028,4897.3,869.866960471017,757.5388378552028,4997.5]","[1329.6,1329.6,1000,0,329.6,""oops"",""right"",""down"",""good_move"",4006.3,2675.9,2352.6,1330.5,323.2,""oops"",""right"",""up"",""bad_move"",4160,152.9,2422.6,4007.1,-2269.7,""error"",""-"",""-"",""no_move"",8080.7,3920.5,2564.3,5163.4,353,""smooth"",""right"",""right"",""good_move"",11704.9,3623.7,3310.5,8081.2,313.2,""oops"",""down"",""down"",""good_move"",19073.8,7368.3,3424,15290.5,359.3,""smooth"",""down"",""down"",""good_move"",21780.3,2706.3,2386,19074,320.3,""while_blue"",""right"",""down"",""good_move"",25402.9,3622.2,3289.9,21780.7,332.3,""smooth"",""right"",""right"",""good_move"",28586.9,3183.6,2293.9,25403.3,889.7,""oops"",""right"",""right"",""good_move""]","",""
"1963","","<div style=""width:500px;"">
  <p>What determined the result of this run?</p>
  </div>","0","html-slider-response","55","605251","0.0-5.0-1.9","251","1","2025-07-30 08:37:02","1f75c3e559b7213887762d5229550c2b","5.69.202.172","Mozilla/5.0 (Windows NT 10.0; Win64; x64) AppleWebKit/537.36 (KHTML, like Gecko) Chrome/138.0.0.0 Safari/537.36","WebKit","Chrome","138.0.0.0","Windows","10.0","https://app.prolific.com/","en-GB,en-US;q=0.9,en;q=0.8","5c4f7b99b33a5300013dbfdd","6877631c9844ddd5501205fc","6889d9a343dd5db2071c2d2e","3","1","5c4f7b99b33a5300013dbfdd","3","1","2025-07-30T08:47:10.636Z","","","","","","","","","","","AttribQ","","50","","","","","","","","","","","","","","","","","","","","","","","","","","","","",""
"1565","","<div style=""width:500px;"">
  <p>How much control did you have over the ball?</p>
  </div>","22","html-slider-response","56","606817","0.0-5.0-2.9","251","1","2025-07-30 08:37:02","1f75c3e559b7213887762d5229550c2b","5.69.202.172","Mozilla/5.0 (Windows NT 10.0; Win64; x64) AppleWebKit/537.36 (KHTML, like Gecko) Chrome/138.0.0.0 Safari/537.36","WebKit","Chrome","138.0.0.0","Windows","10.0","https://app.prolific.com/","en-GB,en-US;q=0.9,en;q=0.8","5c4f7b99b33a5300013dbfdd","6877631c9844ddd5501205fc","6889d9a343dd5db2071c2d2e","3","1","5c4f7b99b33a5300013dbfdd","3","1","2025-07-30T08:47:12.202Z","","","","","","","","","","","ControlQ","","50","","","","","","","","","","","","","","","","","","","","","","","","","","","","",""
"1884","","<div style=""width:500px;"">
  <p>How would you describe your current emotional state?</p>
  </div>","59","html-slider-response","57","608703","0.0-5.0-3.9","251","1","2025-07-30 08:37:02","1f75c3e559b7213887762d5229550c2b","5.69.202.172","Mozilla/5.0 (Windows NT 10.0; Win64; x64) AppleWebKit/537.36 (KHTML, like Gecko) Chrome/138.0.0.0 Safari/537.36","WebKit","Chrome","138.0.0.0","Windows","10.0","https://app.prolific.com/","en-GB,en-US;q=0.9,en;q=0.8","5c4f7b99b33a5300013dbfdd","6877631c9844ddd5501205fc","6889d9a343dd5db2071c2d2e","3","1","5c4f7b99b33a5300013dbfdd","3","1","2025-07-30T08:47:14.088Z","","","","","","","","","","","StressQ","","50","","","","","","","","","","","","","","","","","","","","","","","","","","","","",""
"2768","","<div style=""width:500px;"">
  <p>What best describes how you currently feel?</p>
  </div>","41","html-slider-response","58","611472","0.0-5.0-4.9","251","1","2025-07-30 08:37:02","1f75c3e559b7213887762d5229550c2b","5.69.202.172","Mozilla/5.0 (Windows NT 10.0; Win64; x64) AppleWebKit/537.36 (KHTML, like Gecko) Chrome/138.0.0.0 Safari/537.36","WebKit","Chrome","138.0.0.0","Windows","10.0","https://app.prolific.com/","en-GB,en-US;q=0.9,en;q=0.8","5c4f7b99b33a5300013dbfdd","6877631c9844ddd5501205fc","6889d9a343dd5db2071c2d2e","3","1","5c4f7b99b33a5300013dbfdd","3","1","2025-07-30T08:47:16.858Z","","","","","","","","","","","MotivationQ","","50","","","","","","","","","","","","","","","","","","","","","","","","","","","","",""
"","","","","ctl-task-cpt","59","668798","0.0-5.0-0.10","251","1","2025-07-30 08:37:02","1f75c3e559b7213887762d5229550c2b","5.69.202.172","Mozilla/5.0 (Windows NT 10.0; Win64; x64) AppleWebKit/537.36 (KHTML, like Gecko) Chrome/138.0.0.0 Safari/537.36","WebKit","Chrome","138.0.0.0","Windows","10.0","https://app.prolific.com/","en-GB,en-US;q=0.9,en;q=0.8","5c4f7b99b33a5300013dbfdd","6877631c9844ddd5501205fc","6889d9a343dd5db2071c2d2e","3","1","5c4f7b99b33a5300013dbfdd","3","1","2025-07-30T08:48:14.183Z","","","","","","","","","","","","","","win-only","2","g1:SE,g2:NW","0.5","11","0","614104.5","923.2","5926.4","54293.6","1","4","4","6","2","4","4","27","23","0.20454545454545456","887.5","3000","45","[""left"",""up""]","{""num_key_presses"":12,""num_perfect"":7,""num_errors"":0,""num_randdir"":5,""num_randdir_good_moves"":2,""num_whilered"":0,""num_whileblue"":0,""num_blue"":4,""num_good_moves"":9}","[420.241960471017,415.1638378552028,0.4,420.241960471017,415.1638378552028,103.4,420.241960471017,415.1638378552028,204.7,420.241960471017,415.1638378552028,307.3,420.241960471017,415.1638378552028,417.9,369.366960471017,358.7888378552028,519.6,113.61696047101701,145.66383785520281,636.8,105.36696047101701,127.7888378552028,739.7,97.11696047101701,112.6638378552028,844.4,97.11696047101701,112.6638378552028,953.7,97.11696047101701,112.6638378552028,1067,97.11696047101701,112.6638378552028,1170.3,-349.758039528983,163.53883785520281,1271.6,-373.133039528983,175.91383785520281,1372.2,-373.133039528983,175.91383785520281,1472.3,-373.133039528983,175.91383785520281,1573.7,-373.133039528983,175.91383785520281,1677.5,-373.133039528983,175.91383785520281,1781.6,-373.133039528983,175.91383785520281,1884.2,-373.133039528983,175.91383785520281,1987.4,-373.133039528983,175.91383785520281,2088.3,-373.133039528983,175.91383785520281,2190.2,-373.133039528983,175.91383785520281,2292.4,-373.133039528983,175.91383785520281,2404.6,-373.133039528983,175.91383785520281,2507.8,-373.133039528983,175.91383785520281,2616.2,-373.133039528983,175.91383785520281,2717.2,-373.133039528983,175.91383785520281,2823.1,-373.133039528983,175.91383785520281,2923.6,-373.133039528983,175.91383785520281,3028.8,-373.133039528983,175.91383785520281,3132.2,-373.133039528983,175.91383785520281,3233.9,-373.133039528983,175.91383785520281,3337.3,-373.133039528983,175.91383785520281,3444.9,-373.133039528983,175.91383785520281,3555.1,-373.133039528983,175.91383785520281,3657.7,-373.133039528983,175.91383785520281,3765,-373.133039528983,175.91383785520281,3867.5,-373.133039528983,175.91383785520281,3981.7,-373.133039528983,175.91383785520281,4084.1,-373.133039528983,175.91383785520281,4186.6,-373.133039528983,175.91383785520281,4299.6,-373.133039528983,175.91383785520281,4402.8,-373.133039528983,175.91383785520281,4502.8,-373.133039528983,175.91383785520281,4626.3,-373.133039528983,175.91383785520281,4733.6,-373.133039528983,175.91383785520281,4841.2,-373.133039528983,175.91383785520281,4952.4]","[1345.6,1345.6,1000,0,345.6,""oops"",""up"",""down"",""bad_move"",8477.8,7131.5,2906.9,5264.4,306.6,""oops"",""up"",""left"",""good_move"",11360,2881.7,2574,8478.3,307.7,""smooth"",""up"",""up"",""good_move"",17385.4,6025.1,2524.6,14510.4,350.4,""oops"",""up"",""down"",""bad_move"",20289.1,2903.4,2293,17385.7,610.4,""oops"",""up"",""up"",""good_move"",27593.1,7303.7,2789.1,24464.6,339.4,""smooth"",""up"",""up"",""good_move"",30486.5,2892.7,2554.1,27593.8,338.6,""oops"",""up"",""down"",""bad_move"",32905.9,2418.9,1778.9,30487,640,""smooth"",""up"",""up"",""good_move"",35785,2878.9,2509.4,32906.1,369.5,""smooth"",""left"",""left"",""good_move"",41385.5,5600.3,2338.8,38759.4,287.3,""smooth"",""up"",""up"",""good_move"",44304.8,2919,2594,41385.8,325,""smooth"",""up"",""up"",""good_move"",48233.6,3928.3,3629.4,44305.3,298.9,""smooth"",""left"",""left"",""good_move""]","",""
"2617","","<div style=""width:500px;"">
  <p>What determined the result of this run?</p>
  </div>","0","html-slider-response","60","671416","0.0-5.0-1.10","251","1","2025-07-30 08:37:02","1f75c3e559b7213887762d5229550c2b","5.69.202.172","Mozilla/5.0 (Windows NT 10.0; Win64; x64) AppleWebKit/537.36 (KHTML, like Gecko) Chrome/138.0.0.0 Safari/537.36","WebKit","Chrome","138.0.0.0","Windows","10.0","https://app.prolific.com/","en-GB,en-US;q=0.9,en;q=0.8","5c4f7b99b33a5300013dbfdd","6877631c9844ddd5501205fc","6889d9a343dd5db2071c2d2e","3","1","5c4f7b99b33a5300013dbfdd","3","1","2025-07-30T08:48:16.801Z","","","","","","","","","","","AttribQ","","50","","","","","","","","","","","","","","","","","","","","","","","","","","","","",""
"2559","","<div style=""width:500px;"">
  <p>How much control did you have over the ball?</p>
  </div>","41","html-slider-response","61","673977","0.0-5.0-2.10","251","1","2025-07-30 08:37:02","1f75c3e559b7213887762d5229550c2b","5.69.202.172","Mozilla/5.0 (Windows NT 10.0; Win64; x64) AppleWebKit/537.36 (KHTML, like Gecko) Chrome/138.0.0.0 Safari/537.36","WebKit","Chrome","138.0.0.0","Windows","10.0","https://app.prolific.com/","en-GB,en-US;q=0.9,en;q=0.8","5c4f7b99b33a5300013dbfdd","6877631c9844ddd5501205fc","6889d9a343dd5db2071c2d2e","3","1","5c4f7b99b33a5300013dbfdd","3","1","2025-07-30T08:48:19.362Z","","","","","","","","","","","ControlQ","","50","","","","","","","","","","","","","","","","","","","","","","","","","","","","",""
"2254","","<div style=""width:500px;"">
  <p>How would you describe your current emotional state?</p>
  </div>","59","html-slider-response","62","676232","0.0-5.0-3.10","251","1","2025-07-30 08:37:02","1f75c3e559b7213887762d5229550c2b","5.69.202.172","Mozilla/5.0 (Windows NT 10.0; Win64; x64) AppleWebKit/537.36 (KHTML, like Gecko) Chrome/138.0.0.0 Safari/537.36","WebKit","Chrome","138.0.0.0","Windows","10.0","https://app.prolific.com/","en-GB,en-US;q=0.9,en;q=0.8","5c4f7b99b33a5300013dbfdd","6877631c9844ddd5501205fc","6889d9a343dd5db2071c2d2e","3","1","5c4f7b99b33a5300013dbfdd","3","1","2025-07-30T08:48:21.617Z","","","","","","","","","","","StressQ","","50","","","","","","","","","","","","","","","","","","","","","","","","","","","","",""
"3131","","<div style=""width:500px;"">
  <p>What best describes how you currently feel?</p>
  </div>","33","html-slider-response","63","679364","0.0-5.0-4.10","251","1","2025-07-30 08:37:02","1f75c3e559b7213887762d5229550c2b","5.69.202.172","Mozilla/5.0 (Windows NT 10.0; Win64; x64) AppleWebKit/537.36 (KHTML, like Gecko) Chrome/138.0.0.0 Safari/537.36","WebKit","Chrome","138.0.0.0","Windows","10.0","https://app.prolific.com/","en-GB,en-US;q=0.9,en;q=0.8","5c4f7b99b33a5300013dbfdd","6877631c9844ddd5501205fc","6889d9a343dd5db2071c2d2e","3","1","5c4f7b99b33a5300013dbfdd","3","1","2025-07-30T08:48:24.749Z","","","","","","","","","","","MotivationQ","","50","","","","","","","","","","","","","","","","","","","","","","","","","","","","",""
"","","","","ctl-task-cpt","64","731944","0.0-5.0-0.11","251","1","2025-07-30 08:37:02","1f75c3e559b7213887762d5229550c2b","5.69.202.172","Mozilla/5.0 (Windows NT 10.0; Win64; x64) AppleWebKit/537.36 (KHTML, like Gecko) Chrome/138.0.0.0 Safari/537.36","WebKit","Chrome","138.0.0.0","Windows","10.0","https://app.prolific.com/","en-GB,en-US;q=0.9,en;q=0.8","5c4f7b99b33a5300013dbfdd","6877631c9844ddd5501205fc","6889d9a343dd5db2071c2d2e","3","1","5c4f7b99b33a5300013dbfdd","3","1","2025-07-30T08:49:17.329Z","","","","","","","","","","","","","","win-only","2","g1:SE,g2:NW","0.6","12","0","681995.4","829","5830.9","49560.8","1","4","8","6","2","8","6","33","27","0.25","1534.4","3000","825","[""left"",""up""]","{""num_key_presses"":12,""num_perfect"":6,""num_errors"":2,""num_randdir"":4,""num_randdir_good_moves"":3,""num_whilered"":0,""num_whileblue"":2,""num_blue"":5,""num_good_moves"":9}","[418.866960471017,413.7888378552028,0,418.866960471017,413.7888378552028,102.5,418.866960471017,413.7888378552028,207.9,418.866960471017,413.7888378552028,310.6,418.866960471017,413.7888378552028,422.5,303.366960471017,290.0388378552028,523.3,182.36696047101702,202.03883785520281,628.8,153.49196047101702,202.03883785520281,731.4,152.11696047101702,202.03883785520281,838.9,152.11696047101702,202.03883785520281,940.1,108.11696047101701,141.53883785520281,1057.7,108.11696047101701,140.16383785520281,1161.9,108.11696047101701,140.16383785520281,1268.5,108.11696047101701,140.16383785520281,1369.3,103.99196047101701,116.7888378552028,1488.1,103.99196047101701,115.4138378552028,1591.3,103.99196047101701,115.4138378552028,1699.5,-41.75803952898299,130.53883785520281,1802.5,-109.13303952898299,171.78883785520281,1907.8,-109.13303952898299,171.78883785520281,2010.9,-109.13303952898299,171.78883785520281,2112.6,-109.13303952898299,171.78883785520281,2213,-109.13303952898299,171.78883785520281,2317,-109.13303952898299,171.78883785520281,2420.6,-109.13303952898299,171.78883785520281,2532.7,-109.13303952898299,171.78883785520281,2639,-109.13303952898299,171.78883785520281,2742.5,-109.13303952898299,171.78883785520281,2843.4,-109.13303952898299,171.78883785520281,2951.3,-109.13303952898299,171.78883785520281,3052.6,-109.13303952898299,171.78883785520281,3153.7,-109.13303952898299,171.78883785520281,3256,-109.13303952898299,171.78883785520281,3357.5,-109.13303952898299,171.78883785520281,3473.8,-109.13303952898299,171.78883785520281,3577.7,-109.13303952898299,171.78883785520281,3682.1,-109.13303952898299,171.78883785520281,3782.1,-109.13303952898299,171.78883785520281,3892.7,-109.13303952898299,171.78883785520281,3997.4,-109.13303952898299,171.78883785520281,4103.7,-109.13303952898299,171.78883785520281,4214,-109.13303952898299,171.78883785520281,4316.8,-109.13303952898299,171.78883785520281,4417.4,-109.13303952898299,171.78883785520281,4526.3,-109.13303952898299,171.78883785520281,4627.5,-109.13303952898299,171.78883785520281,4732.5,-109.13303952898299,171.78883785520281,4837.6,-109.13303952898299,171.78883785520281,4937.7]","[1377.3,1377.3,1000,0,377.3,""oops"",""up"",""up"",""good_move"",7303.2,5925.3,2589.6,4370.5,343.1,""smooth"",""up"",""up"",""good_move"",14556.4,7252.9,3122.1,11048.4,385.9,""smooth"",""up"",""up"",""good_move"",17706.4,3149.5,2788.2,14556.9,361.3,""smooth"",""left"",""left"",""good_move"",20490.3,2783.1,2420.2,17707.2,362.9,""oops"",""left"",""right"",""bad_move"",22868.3,2377.6,2034.1,20490.7,343.5,""while_blue"",""left"",""down"",""bad_move"",25204.2,2334.4,1996.7,22869.8,337.7,""oops"",""left"",""left"",""good_move"",28705.5,3500.9,3162.5,25204.7,338.4,""smooth"",""left"",""left"",""good_move"",32295.3,3589.4,3283.6,28705.9,305.8,""oops"",""left"",""left"",""good_move"",34585.3,2289.6,1920.3,32295.7,369.3,""while_blue"",""up"",""down"",""bad_move"",40551.3,5965.6,2449,37766.2,336.1,""smooth"",""up"",""up"",""good_move"",43585,3032.9,2606.4,40552.1,426.6,""smooth"",""up"",""up"",""good_move""]","",""
"2408","","<div style=""width:500px;"">
  <p>What determined the result of this run?</p>
  </div>","26","html-slider-response","65","734354","0.0-5.0-1.11","251","1","2025-07-30 08:37:02","1f75c3e559b7213887762d5229550c2b","5.69.202.172","Mozilla/5.0 (Windows NT 10.0; Win64; x64) AppleWebKit/537.36 (KHTML, like Gecko) Chrome/138.0.0.0 Safari/537.36","WebKit","Chrome","138.0.0.0","Windows","10.0","https://app.prolific.com/","en-GB,en-US;q=0.9,en;q=0.8","5c4f7b99b33a5300013dbfdd","6877631c9844ddd5501205fc","6889d9a343dd5db2071c2d2e","3","1","5c4f7b99b33a5300013dbfdd","3","1","2025-07-30T08:49:19.739Z","","","","","","","","","","","AttribQ","","50","","","","","","","","","","","","","","","","","","","","","","","","","","","","",""
"3919","","<div style=""width:500px;"">
  <p>How much control did you have over the ball?</p>
  </div>","71","html-slider-response","66","738275","0.0-5.0-2.11","251","1","2025-07-30 08:37:02","1f75c3e559b7213887762d5229550c2b","5.69.202.172","Mozilla/5.0 (Windows NT 10.0; Win64; x64) AppleWebKit/537.36 (KHTML, like Gecko) Chrome/138.0.0.0 Safari/537.36","WebKit","Chrome","138.0.0.0","Windows","10.0","https://app.prolific.com/","en-GB,en-US;q=0.9,en;q=0.8","5c4f7b99b33a5300013dbfdd","6877631c9844ddd5501205fc","6889d9a343dd5db2071c2d2e","3","1","5c4f7b99b33a5300013dbfdd","3","1","2025-07-30T08:49:23.660Z","","","","","","","","","","","ControlQ","","50","","","","","","","","","","","","","","","","","","","","","","","","","","","","",""
"2565","","<div style=""width:500px;"">
  <p>How would you describe your current emotional state?</p>
  </div>","64","html-slider-response","67","740842","0.0-5.0-3.11","251","1","2025-07-30 08:37:02","1f75c3e559b7213887762d5229550c2b","5.69.202.172","Mozilla/5.0 (Windows NT 10.0; Win64; x64) AppleWebKit/537.36 (KHTML, like Gecko) Chrome/138.0.0.0 Safari/537.36","WebKit","Chrome","138.0.0.0","Windows","10.0","https://app.prolific.com/","en-GB,en-US;q=0.9,en;q=0.8","5c4f7b99b33a5300013dbfdd","6877631c9844ddd5501205fc","6889d9a343dd5db2071c2d2e","3","1","5c4f7b99b33a5300013dbfdd","3","1","2025-07-30T08:49:26.227Z","","","","","","","","","","","StressQ","","50","","","","","","","","","","","","","","","","","","","","","","","","","","","","",""
"1862","","<div style=""width:500px;"">
  <p>What best describes how you currently feel?</p>
  </div>","27","html-slider-response","68","742706","0.0-5.0-4.11","251","1","2025-07-30 08:37:02","1f75c3e559b7213887762d5229550c2b","5.69.202.172","Mozilla/5.0 (Windows NT 10.0; Win64; x64) AppleWebKit/537.36 (KHTML, like Gecko) Chrome/138.0.0.0 Safari/537.36","WebKit","Chrome","138.0.0.0","Windows","10.0","https://app.prolific.com/","en-GB,en-US;q=0.9,en;q=0.8","5c4f7b99b33a5300013dbfdd","6877631c9844ddd5501205fc","6889d9a343dd5db2071c2d2e","3","1","5c4f7b99b33a5300013dbfdd","3","1","2025-07-30T08:49:28.091Z","","","","","","","","","","","MotivationQ","","50","","","","","","","","","","","","","","","","","","","","","","","","","","","","",""
"","","","","ctl-task-cpt","69","788840","0.0-5.0-0.12","251","1","2025-07-30 08:37:02","1f75c3e559b7213887762d5229550c2b","5.69.202.172","Mozilla/5.0 (Windows NT 10.0; Win64; x64) AppleWebKit/537.36 (KHTML, like Gecko) Chrome/138.0.0.0 Safari/537.36","WebKit","Chrome","138.0.0.0","Windows","10.0","https://app.prolific.com/","en-GB,en-US;q=0.9,en;q=0.8","5c4f7b99b33a5300013dbfdd","6877631c9844ddd5501205fc","6889d9a343dd5db2071c2d2e","3","1","5c4f7b99b33a5300013dbfdd","3","1","2025-07-30T08:50:14.226Z","","","","","","","","","","","","","","win-only","2","g1:SE,g2:NW","0.7","13","0","745338.8","1078.5","6080","43108.1","1","4","4","6","2","4","4","37","33","0.2803030303030303","1066.4","3000","445","[""left"",""up""]","{""num_key_presses"":12,""num_perfect"":9,""num_errors"":0,""num_randdir"":3,""num_randdir_good_moves"":0,""num_whilered"":0,""num_whileblue"":0,""num_blue"":1,""num_good_moves"":9}","[413.366960471017,412.4138378552028,0.4,413.366960471017,412.4138378552028,101,413.366960471017,412.4138378552028,201.9,413.366960471017,412.4138378552028,308.6,413.366960471017,412.4138378552028,411.8,413.366960471017,412.4138378552028,513.8,211.24196047101702,214.41383785520281,624.5,194.74196047101702,197.91383785520281,741.5,194.74196047101702,197.91383785520281,853.8,105.36696047101701,89.2888378552028,955.9,101.24196047101701,87.9138378552028,1068.7,101.24196047101701,87.9138378552028,1173.9,-51.38303952898299,126.4138378552028,1288.3,-139.38303952898298,158.03883785520281,1388.5,-142.13303952898298,159.41383785520281,1505.8,-142.13303952898298,159.41383785520281,1626.6,-142.13303952898298,159.41383785520281,1734.8,-142.13303952898298,159.41383785520281,1839.5,-142.13303952898298,159.41383785520281,1943.2,-142.13303952898298,159.41383785520281,2046.8,-142.13303952898298,159.41383785520281,2148.2,-142.13303952898298,159.41383785520281,2258.7,-142.13303952898298,159.41383785520281,2362.7,-142.13303952898298,159.41383785520281,2463.1,-142.13303952898298,159.41383785520281,2564.3,-142.13303952898298,159.41383785520281,2674.2,-142.13303952898298,159.41383785520281,2784.9,-166.88303952898298,148.41383785520281,2893.2,-166.88303952898298,148.41383785520281,3015.4,-166.88303952898298,148.41383785520281,3116.9,-166.88303952898298,148.41383785520281,3220,-166.88303952898298,148.41383785520281,3342.1,-166.88303952898298,148.41383785520281,3442.8,-166.88303952898298,148.41383785520281,3547.6,-166.88303952898298,148.41383785520281,3653,-166.88303952898298,148.41383785520281,3753.5,-166.88303952898298,148.41383785520281,3881.1,-166.88303952898298,148.41383785520281,3985.5,-166.88303952898298,148.41383785520281,4107,-166.88303952898298,148.41383785520281,4218.5,-166.88303952898298,148.41383785520281,4334.4,-166.88303952898298,148.41383785520281,4444.7,-166.88303952898298,148.41383785520281,4555.2,-166.88303952898298,148.41383785520281,4656.8,-166.88303952898298,148.41383785520281,4771,-166.88303952898298,148.41383785520281,4885.1]","[1412.9,1412.9,1000,0,412.9,""oops"",""up"",""right"",""bad_move"",3994.7,2581.5,2188.2,1413.3,393.3,""smooth"",""up"",""up"",""good_move"",7316.3,3321.2,2981.6,3995.2,339.5,""smooth"",""up"",""up"",""good_move"",10527.8,3211.1,2895.1,7316.7,316,""oops"",""left"",""right"",""bad_move"",13162.9,2634.5,2256,10528.5,378.5,""smooth"",""left"",""left"",""good_move"",15245.5,2082.1,1642.4,13163.4,439.7,""smooth"",""left"",""left"",""good_move"",18176.2,2930.5,2575.6,15245.7,355,""smooth"",""left"",""left"",""good_move"",21204.6,3028.1,2636.6,18176.5,391.5,""smooth"",""left"",""left"",""good_move"",27778.8,6573.8,2316.7,25091,371.1,""oops"",""left"",""down"",""bad_move"",30517.5,2738.4,2392.3,27779.1,346.1,""smooth"",""left"",""left"",""good_move"",33444.4,2926.5,2584.7,30517.9,341.8,""smooth"",""up"",""up"",""good_move"",36876.4,3431.7,3157.1,33444.8,274.5,""smooth"",""up"",""up"",""good_move""]","",""
"3649","","<div style=""width:500px;"">
  <p>What determined the result of this run?</p>
  </div>","36","html-slider-response","70","792490","0.0-5.0-1.12","251","1","2025-07-30 08:37:02","1f75c3e559b7213887762d5229550c2b","5.69.202.172","Mozilla/5.0 (Windows NT 10.0; Win64; x64) AppleWebKit/537.36 (KHTML, like Gecko) Chrome/138.0.0.0 Safari/537.36","WebKit","Chrome","138.0.0.0","Windows","10.0","https://app.prolific.com/","en-GB,en-US;q=0.9,en;q=0.8","5c4f7b99b33a5300013dbfdd","6877631c9844ddd5501205fc","6889d9a343dd5db2071c2d2e","3","1","5c4f7b99b33a5300013dbfdd","3","1","2025-07-30T08:50:17.875Z","","","","","","","","","","","AttribQ","","50","","","","","","","","","","","","","","","","","","","","","","","","","","","","",""
"4371","","<div style=""width:500px;"">
  <p>How much control did you have over the ball?</p>
  </div>","81","html-slider-response","71","796862","0.0-5.0-2.12","251","1","2025-07-30 08:37:02","1f75c3e559b7213887762d5229550c2b","5.69.202.172","Mozilla/5.0 (Windows NT 10.0; Win64; x64) AppleWebKit/537.36 (KHTML, like Gecko) Chrome/138.0.0.0 Safari/537.36","WebKit","Chrome","138.0.0.0","Windows","10.0","https://app.prolific.com/","en-GB,en-US;q=0.9,en;q=0.8","5c4f7b99b33a5300013dbfdd","6877631c9844ddd5501205fc","6889d9a343dd5db2071c2d2e","3","1","5c4f7b99b33a5300013dbfdd","3","1","2025-07-30T08:50:22.247Z","","","","","","","","","","","ControlQ","","50","","","","","","","","","","","","","","","","","","","","","","","","","","","","",""
"5311","","<div style=""width:500px;"">
  <p>How would you describe your current emotional state?</p>
  </div>","67","html-slider-response","72","802175","0.0-5.0-3.12","251","1","2025-07-30 08:37:02","1f75c3e559b7213887762d5229550c2b","5.69.202.172","Mozilla/5.0 (Windows NT 10.0; Win64; x64) AppleWebKit/537.36 (KHTML, like Gecko) Chrome/138.0.0.0 Safari/537.36","WebKit","Chrome","138.0.0.0","Windows","10.0","https://app.prolific.com/","en-GB,en-US;q=0.9,en;q=0.8","5c4f7b99b33a5300013dbfdd","6877631c9844ddd5501205fc","6889d9a343dd5db2071c2d2e","3","1","5c4f7b99b33a5300013dbfdd","3","1","2025-07-30T08:50:27.560Z","","","","","","","","","","","StressQ","","50","","","","","","","","","","","","","","","","","","","","","","","","","","","","",""
"1948","","<div style=""width:500px;"">
  <p>What best describes how you currently feel?</p>
  </div>","34","html-slider-response","73","804125","0.0-5.0-4.12","251","1","2025-07-30 08:37:02","1f75c3e559b7213887762d5229550c2b","5.69.202.172","Mozilla/5.0 (Windows NT 10.0; Win64; x64) AppleWebKit/537.36 (KHTML, like Gecko) Chrome/138.0.0.0 Safari/537.36","WebKit","Chrome","138.0.0.0","Windows","10.0","https://app.prolific.com/","en-GB,en-US;q=0.9,en;q=0.8","5c4f7b99b33a5300013dbfdd","6877631c9844ddd5501205fc","6889d9a343dd5db2071c2d2e","3","1","5c4f7b99b33a5300013dbfdd","3","1","2025-07-30T08:50:29.510Z","","","","","","","","","","","MotivationQ","","50","","","","","","","","","","","","","","","","","","","","","","","","","","","","",""
