"rt","response_timestamp","stimulus","response","trial_type","trial_index","time_elapsed","internal_node_id","run_id","condition","recorded_at","source_code_version","ip","user_agent","device","browser","browser_version","platform","platform_version","referer","accept_language","PROLIFIC_PID","STUDY_ID","SESSION_ID","WEEK","BATCH","prolific_id","week","batch","realtime","success","responses","item_order","radio_event_ids","radio_event_times","key_event_times","mouse_event_times","straightlining","zigzagging","honeypot","eventType","view_history","slider_start","which_type","canvas_config","goals_layout","control_level","trial_number","tutorial_trial_number","trial_start_time","phase1_start_time","phase2_start_time","phase3_start_time","goal_1_value","goal_1_distance","goal_2_value","goal_2_distance","goal_selected","outcome","outcome_total","participant_final_score","participant_initial_score","participant_final_score_prop","goal_choice_rt","allocated_time","allocated_time_remaining","goal_direction","counts","mouse_movements","key_presses","question_order","question_id"
"1836","1752658096604","<p style='font-size:40px;line-height:1.25'><strong>Welcome to the experiment!</strong></p><p style='font-size:1.1em;line-height:1.25'>Thank you for participanting in our experiment again! You will be asked to play the Dysfunctional Ball Game again. We will briefly recap the rules before we start.</p><p style='font-size:1.1em;line-height:1.25'>Press <strong>Next</strong> to continue.</p>","0","custom-html-button-response","0","1840","0.0-0.0","91","1","2025-07-16 09:28:23","1f75c3e559b7213887762d5229550c2b","84.71.171.94","Mozilla/5.0 (Windows NT 10.0; Win64; x64) AppleWebKit/537.36 (KHTML, like Gecko) Chrome/138.0.0.0 Safari/537.36 Edg/138.0.0.0","WebKit","Edge","138.0.0.0","Windows","10.0","https://app.prolific.com/","en-US,en;q=0.9,en-GB;q=0.8,ar;q=0.7,sq;q=0.6","676578b520552faa04a8ef83","686e379bc37a29ffa5cdc956","687770abca1824d28382de2d","1","1","676578b520552faa04a8ef83","1","1","2025-07-16T09:28:16.606Z","","","","","","","","","","","","","","","","","","","","","","","","","","","","","","","","","","","","","","","","","",""
"2654","","","","fullscreen","1","5503","0.0-1.0","91","1","2025-07-16 09:28:23","1f75c3e559b7213887762d5229550c2b","84.71.171.94","Mozilla/5.0 (Windows NT 10.0; Win64; x64) AppleWebKit/537.36 (KHTML, like Gecko) Chrome/138.0.0.0 Safari/537.36 Edg/138.0.0.0","WebKit","Edge","138.0.0.0","Windows","10.0","https://app.prolific.com/","en-US,en;q=0.9,en-GB;q=0.8,ar;q=0.7,sq;q=0.6","676578b520552faa04a8ef83","686e379bc37a29ffa5cdc956","687770abca1824d28382de2d","1","1","676578b520552faa04a8ef83","1","1","","true","","","","","","","","","","","","","","","","","","","","","","","","","","","","","","","","","","","","","","","","",""
"1461","1752658101731","<p style='font-size:1.1em;line-height:1.25'>In the following, we will ask you a few questions relating to your feelings in the last 24 hours.<br></p><p style='font-size:1.1em;line-height:1.25'>Press the <strong>Next</strong> button to continue.</p>","0","custom-html-button-response","2","6966","0.0-2.0-0.0","91","1","2025-07-16 09:28:23","1f75c3e559b7213887762d5229550c2b","84.71.171.94","Mozilla/5.0 (Windows NT 10.0; Win64; x64) AppleWebKit/537.36 (KHTML, like Gecko) Chrome/138.0.0.0 Safari/537.36 Edg/138.0.0.0","WebKit","Edge","138.0.0.0","Windows","10.0","https://app.prolific.com/","en-US,en;q=0.9,en-GB;q=0.8,ar;q=0.7,sq;q=0.6","676578b520552faa04a8ef83","686e379bc37a29ffa5cdc956","687770abca1824d28382de2d","1","1","676578b520552faa04a8ef83","1","1","2025-07-16T09:28:21.732Z","","","","","","","","","","","","","","","","","","","","","","","","","","","","","","","","","","","","","","","","","",""
"98729.59999999404","","","","survey-template","3","105703","0.0-2.0-1.0","91","1","2025-07-16 09:28:23","1f75c3e559b7213887762d5229550c2b","84.71.171.94","Mozilla/5.0 (Windows NT 10.0; Win64; x64) AppleWebKit/537.36 (KHTML, like Gecko) Chrome/138.0.0.0 Safari/537.36 Edg/138.0.0.0","WebKit","Edge","138.0.0.0","Windows","10.0","https://app.prolific.com/","en-US,en;q=0.9,en-GB;q=0.8,ar;q=0.7,sq;q=0.6","676578b520552faa04a8ef83","686e379bc37a29ffa5cdc956","687770abca1824d28382de2d","1","1","676578b520552faa04a8ef83","1","1","2025-07-16T09:30:00.469Z","","{""Q01"":""2"",""Q02"":""1"",""Q03"":""3"",""Q04"":""1"",""Q05"":""2"",""Q06"":""1"",""Q07"":""2"",""Q08"":""1"",""Q09"":""4"",""Q10"":""1"",""Q11"":""2"",""Q12"":""2"",""Q13"":""5"",""Q14"":""2"",""Q15"":""2"",""Q16"":""5"",""Q17"":""2"",""Q18"":""1"",""Q19"":""1"",""Q20"":""3"",""Q21"":""4"",""Q22"":""1""}","[0,1,2,3,4,5,6,7,8,9,10,11,12,13,14,15,16,17,18,19,20,21]","[""Q01"",""Q02"",""Q03"",""Q04"",""Q05"",""Q06"",""Q07"",""Q08"",""Q09"",""Q10"",""Q11"",""Q12"",""Q13"",""Q14"",""Q14"",""Q15"",""Q16"",""Q17"",""Q18"",""Q19"",""Q20"",""Q21"",""Q22""]","[2972,4455.5,8824.5,14026.09999999404,15235.699999988079,19473.09999999404,25355.79999998212,27393.09999999404,31010.90000000596,35015,37154.5,40175.29999998212,42445,43999.5,45665,50630.09999999404,53350.5,57638.29999998212,69899.59999999404,75330.79999998212,88960,92308.90000000596,97699.90000000596]","[]","[0.09999999403953552,2972,4455.5,8824.5,12556.59999999404,14026.09999999404,15235.699999988079,19473.09999999404,25355.79999998212,27393.09999999404,31010.90000000596,33811.40000000596,35015,37154.5,40175.29999998212,42445,43999.5,45665,50630.09999999404,53350.5,56634.19999998808,57638.29999998212,69899.59999999404,75330.79999998212,88960,92308.90000000596,97699.90000000596,98724.29999998212]","0.36363636363636365","0.38095238095238093","0","drsp","","","","","","","","","","","","","","","","","","","","","","","","","","","","","","",""
"25457.79999998212","","","","survey-template","4","131165","0.0-2.0-2.0","91","1","2025-07-16 09:28:23","1f75c3e559b7213887762d5229550c2b","84.71.171.94","Mozilla/5.0 (Windows NT 10.0; Win64; x64) AppleWebKit/537.36 (KHTML, like Gecko) Chrome/138.0.0.0 Safari/537.36 Edg/138.0.0.0","WebKit","Edge","138.0.0.0","Windows","10.0","https://app.prolific.com/","en-US,en;q=0.9,en-GB;q=0.8,ar;q=0.7,sq;q=0.6","676578b520552faa04a8ef83","686e379bc37a29ffa5cdc956","687770abca1824d28382de2d","1","1","676578b520552faa04a8ef83","1","1","2025-07-16T09:30:25.931Z","","{""Q01"":""4"",""Q02"":""4"",""Q03"":""1""}","[0,1,2]","[""Q01"",""Q02"",""Q02"",""Q03""]","[6374.199999988079,11105,11933.59999999404,23447.69999998808]","[]","[6374.199999988079,11105,11933.59999999404,23447.69999998808,25456.19999998808]","0.6666666666666666","0","0","stress","","","","","","","","","","","","","","","","","","","","","","","","","","","","","","",""
"6420","","","","instructions","5","137588","0.0-3.0-0.0","91","1","2025-07-16 09:28:23","1f75c3e559b7213887762d5229550c2b","84.71.171.94","Mozilla/5.0 (Windows NT 10.0; Win64; x64) AppleWebKit/537.36 (KHTML, like Gecko) Chrome/138.0.0.0 Safari/537.36 Edg/138.0.0.0","WebKit","Edge","138.0.0.0","Windows","10.0","https://app.prolific.com/","en-US,en;q=0.9,en-GB;q=0.8,ar;q=0.7,sq;q=0.6","676578b520552faa04a8ef83","686e379bc37a29ffa5cdc956","687770abca1824d28382de2d","1","1","676578b520552faa04a8ef83","1","1","","","","","","","","","","","","","[{""page_index"":0,""viewing_time"":6419}]","","","","","","","","","","","","","","","","","","","","","","","","","","","","","",""
"4767","","<p>Before you start with this game please answer the following three questions yourself. </p>
  <p>Through this game, we measure several aspects of your cognitive performance, such as reaction times, multi-tasking capabilities </p>
  <p>and the ability to assess the situation you are in.</p>
  <p></p>
  <p><b>How good do you usually are in such tasks?</b></p>","16","html-slider-response","6","142358","0.0-4.0-0.0","91","1","2025-07-16 09:28:23","1f75c3e559b7213887762d5229550c2b","84.71.171.94","Mozilla/5.0 (Windows NT 10.0; Win64; x64) AppleWebKit/537.36 (KHTML, like Gecko) Chrome/138.0.0.0 Safari/537.36 Edg/138.0.0.0","WebKit","Edge","138.0.0.0","Windows","10.0","https://app.prolific.com/","en-US,en;q=0.9,en-GB;q=0.8,ar;q=0.7,sq;q=0.6","676578b520552faa04a8ef83","686e379bc37a29ffa5cdc956","687770abca1824d28382de2d","1","1","676578b520552faa04a8ef83","1","1","2025-07-16T09:30:37.124Z","","","","","","","","","","","PreSkillQ","","50","","","","","","","","","","","","","","","","","","","","","","","","","","","","",""
"3599","","<div style=""width:500px;"">
  <p>How well do you think you will perform in this task compared to other participants?</p>
  </div>","22","html-slider-response","7","145960","0.0-4.0-1.0","91","1","2025-07-16 09:28:23","1f75c3e559b7213887762d5229550c2b","84.71.171.94","Mozilla/5.0 (Windows NT 10.0; Win64; x64) AppleWebKit/537.36 (KHTML, like Gecko) Chrome/138.0.0.0 Safari/537.36 Edg/138.0.0.0","WebKit","Edge","138.0.0.0","Windows","10.0","https://app.prolific.com/","en-US,en;q=0.9,en-GB;q=0.8,ar;q=0.7,sq;q=0.6","676578b520552faa04a8ef83","686e379bc37a29ffa5cdc956","687770abca1824d28382de2d","1","1","676578b520552faa04a8ef83","1","1","2025-07-16T09:30:40.726Z","","","","","","","","","","","PrePerfQ","","50","","","","","","","","","","","","","","","","","","","","","","","","","","","","",""
"3561","","<div style=""width:500px;"">
  <p>What best describes how you currently feel?</p>
  </div>","28","html-slider-response","8","149522","0.0-4.0-2.0","91","1","2025-07-16 09:28:23","1f75c3e559b7213887762d5229550c2b","84.71.171.94","Mozilla/5.0 (Windows NT 10.0; Win64; x64) AppleWebKit/537.36 (KHTML, like Gecko) Chrome/138.0.0.0 Safari/537.36 Edg/138.0.0.0","WebKit","Edge","138.0.0.0","Windows","10.0","https://app.prolific.com/","en-US,en;q=0.9,en-GB;q=0.8,ar;q=0.7,sq;q=0.6","676578b520552faa04a8ef83","686e379bc37a29ffa5cdc956","687770abca1824d28382de2d","1","1","676578b520552faa04a8ef83","1","1","2025-07-16T09:30:44.289Z","","","","","","","","","","","PreMotivationQ","","50","","","","","","","","","","","","","","","","","","","","","","","","","","","","",""
"","","","","ctl-task-cpt","9","174751","0.0-5.0-0.0","91","1","2025-07-16 09:28:23","1f75c3e559b7213887762d5229550c2b","84.71.171.94","Mozilla/5.0 (Windows NT 10.0; Win64; x64) AppleWebKit/537.36 (KHTML, like Gecko) Chrome/138.0.0.0 Safari/537.36 Edg/138.0.0.0","WebKit","Edge","138.0.0.0","Windows","10.0","https://app.prolific.com/","en-US,en;q=0.9,en-GB;q=0.8,ar;q=0.7,sq;q=0.6","676578b520552faa04a8ef83","686e379bc37a29ffa5cdc956","687770abca1824d28382de2d","1","1","676578b520552faa04a8ef83","1","1","2025-07-16T09:31:09.517Z","","","","","","","","","","","","","","win-only","1","g1:NE,g2:SW","1","1","0","151221.5","1683.8","6691.6","22217","1","4","4","6","2","4","3","3","0","0.022727272727272728","1762.2","3000","1355","[""down"",""left""]","{""num_key_presses"":6,""num_perfect"":5,""num_errors"":1,""num_randdir"":0,""num_randdir_good_moves"":0,""num_whilered"":0,""num_whileblue"":1,""num_blue"":1,""num_good_moves"":6}","[413.57142857142856,410.1808016640799,0.2,413.57142857142856,410.1808016640799,109.4,413.57142857142856,410.1808016640799,216.3,413.57142857142856,410.1808016640799,323.9,413.57142857142856,410.1808016640799,430.7,413.57142857142856,410.1808016640799,530.8,413.57142857142856,410.1808016640799,639.4,413.57142857142856,410.1808016640799,739.4,413.57142857142856,410.1808016640799,839.5,413.57142857142856,410.1808016640799,943.5,421.07142857142856,407.1808016640799,1047.5,26.57142857142857,732.6808016640799,1148.4,-78.42857142857143,824.1808016640799,1254.9,-75.42857142857143,822.6808016640799,1360.3,-3.4285714285714306,786.6808016640799,1468.4,64.07142857142857,755.1808016640799,1575.8,74.57142857142857,750.6808016640799,1676.7,74.57142857142857,750.6808016640799,1783,74.57142857142857,750.6808016640799,1891.8,74.57142857142857,750.6808016640799,1992.5,74.57142857142857,750.6808016640799,2100.5,74.57142857142857,750.6808016640799,2200.6,74.57142857142857,750.6808016640799,2308.8,74.57142857142857,750.6808016640799,2409.1,74.57142857142857,750.6808016640799,2509.6,74.57142857142857,750.6808016640799,2609.8,74.57142857142857,750.6808016640799,2712.4,74.57142857142857,750.6808016640799,2812.6,74.57142857142857,750.6808016640799,2917.7,74.57142857142857,750.6808016640799,3026.5,74.57142857142857,750.6808016640799,3129.6,74.57142857142857,750.6808016640799,3232.5,74.57142857142857,750.6808016640799,3342.1,74.57142857142857,750.6808016640799,3442.5,74.57142857142857,750.6808016640799,3547.3,74.57142857142857,750.6808016640799,3650.3,74.57142857142857,750.6808016640799,3750.8,74.57142857142857,750.6808016640799,3851.1,74.57142857142857,750.6808016640799,3951.3,74.57142857142857,750.6808016640799,4058.5,74.57142857142857,750.6808016640799,4158.8,74.57142857142857,750.6808016640799,4267.8,74.57142857142857,750.6808016640799,4375.7,74.57142857142857,750.6808016640799,4477.3,74.57142857142857,750.6808016640799,4589.4,74.57142857142857,750.6808016640799,4691,74.57142857142857,750.6808016640799,4792.4,74.57142857142857,750.6808016640799,4900.2]","[1600.5,1600.4,1000,0.1,600.4,""smooth"",""down"",""down"",""good_move"",3827.7,2226.6,1803.8,1601.2,422.7,""smooth"",""down"",""down"",""good_move"",6334.1,2506.1,2167.5,3828,338.6,""while_blue"",""down"",""down"",""good_move"",9626.8,3292.3,2897.4,6334.5,394.9,""smooth"",""left"",""left"",""good_move"",12031.2,2404,1979.2,9627.2,424.8,""smooth"",""left"",""left"",""good_move"",15371.4,3340,2928.9,12031.4,411.1,""smooth"",""left"",""left"",""good_move""]","",""
"4876","","<div style=""width:500px;"">
  <p>What determined the result of this run?</p>
  </div>","33","html-slider-response","10","179630","0.0-5.0-1.0","91","1","2025-07-16 09:28:23","1f75c3e559b7213887762d5229550c2b","84.71.171.94","Mozilla/5.0 (Windows NT 10.0; Win64; x64) AppleWebKit/537.36 (KHTML, like Gecko) Chrome/138.0.0.0 Safari/537.36 Edg/138.0.0.0","WebKit","Edge","138.0.0.0","Windows","10.0","https://app.prolific.com/","en-US,en;q=0.9,en-GB;q=0.8,ar;q=0.7,sq;q=0.6","676578b520552faa04a8ef83","686e379bc37a29ffa5cdc956","687770abca1824d28382de2d","1","1","676578b520552faa04a8ef83","1","1","2025-07-16T09:31:14.396Z","","","","","","","","","","","AttribQ","","50","","","","","","","","","","","","","","","","","","","","","","","","","","","","",""
"4490","","<div style=""width:500px;"">
  <p>How much control did you have over the ball?</p>
  </div>","100","html-slider-response","11","184123","0.0-5.0-2.0","91","1","2025-07-16 09:28:23","1f75c3e559b7213887762d5229550c2b","84.71.171.94","Mozilla/5.0 (Windows NT 10.0; Win64; x64) AppleWebKit/537.36 (KHTML, like Gecko) Chrome/138.0.0.0 Safari/537.36 Edg/138.0.0.0","WebKit","Edge","138.0.0.0","Windows","10.0","https://app.prolific.com/","en-US,en;q=0.9,en-GB;q=0.8,ar;q=0.7,sq;q=0.6","676578b520552faa04a8ef83","686e379bc37a29ffa5cdc956","687770abca1824d28382de2d","1","1","676578b520552faa04a8ef83","1","1","2025-07-16T09:31:18.889Z","","","","","","","","","","","ControlQ","","50","","","","","","","","","","","","","","","","","","","","","","","","","","","","",""
"4544","","<div style=""width:500px;"">
  <p>How would you describe your current emotional state?</p>
  </div>","59","html-slider-response","12","188669","0.0-5.0-3.0","91","1","2025-07-16 09:28:23","1f75c3e559b7213887762d5229550c2b","84.71.171.94","Mozilla/5.0 (Windows NT 10.0; Win64; x64) AppleWebKit/537.36 (KHTML, like Gecko) Chrome/138.0.0.0 Safari/537.36 Edg/138.0.0.0","WebKit","Edge","138.0.0.0","Windows","10.0","https://app.prolific.com/","en-US,en;q=0.9,en-GB;q=0.8,ar;q=0.7,sq;q=0.6","676578b520552faa04a8ef83","686e379bc37a29ffa5cdc956","687770abca1824d28382de2d","1","1","676578b520552faa04a8ef83","1","1","2025-07-16T09:31:23.435Z","","","","","","","","","","","StressQ","","50","","","","","","","","","","","","","","","","","","","","","","","","","","","","",""
"4010","","<div style=""width:500px;"">
  <p>What best describes how you currently feel?</p>
  </div>","53","html-slider-response","13","192681","0.0-5.0-4.0","91","1","2025-07-16 09:28:23","1f75c3e559b7213887762d5229550c2b","84.71.171.94","Mozilla/5.0 (Windows NT 10.0; Win64; x64) AppleWebKit/537.36 (KHTML, like Gecko) Chrome/138.0.0.0 Safari/537.36 Edg/138.0.0.0","WebKit","Edge","138.0.0.0","Windows","10.0","https://app.prolific.com/","en-US,en;q=0.9,en-GB;q=0.8,ar;q=0.7,sq;q=0.6","676578b520552faa04a8ef83","686e379bc37a29ffa5cdc956","687770abca1824d28382de2d","1","1","676578b520552faa04a8ef83","1","1","2025-07-16T09:31:27.447Z","","","","","","","","","","","MotivationQ","","50","","","","","","","","","","","","","","","","","","","","","","","","","","","","",""
"","","","","ctl-task-cpt","14","230345","0.0-5.0-0.1","91","1","2025-07-16 09:28:23","1f75c3e559b7213887762d5229550c2b","84.71.171.94","Mozilla/5.0 (Windows NT 10.0; Win64; x64) AppleWebKit/537.36 (KHTML, like Gecko) Chrome/138.0.0.0 Safari/537.36 Edg/138.0.0.0","WebKit","Edge","138.0.0.0","Windows","10.0","https://app.prolific.com/","en-US,en;q=0.9,en-GB;q=0.8,ar;q=0.7,sq;q=0.6","676578b520552faa04a8ef83","686e379bc37a29ffa5cdc956","687770abca1824d28382de2d","1","1","676578b520552faa04a8ef83","1","1","2025-07-16T09:32:05.111Z","","","","","","","","","","","","","","win-only","3","g1:SW,g2:NE","0.9","2","0","194378.1","1659.8","6661","34651.2","1","4","8","6","2","8","6","9","3","0.06818181818181818","2075.3","3000","625","[""up"",""right""]","{""num_key_presses"":10,""num_perfect"":7,""num_errors"":2,""num_randdir"":1,""num_randdir_good_moves"":0,""num_whilered"":0,""num_whileblue"":2,""num_blue"":2,""num_good_moves"":8}","[410.57142857142856,410.1808016640799,0.4,410.57142857142856,410.1808016640799,101.6,410.57142857142856,410.1808016640799,201.7,410.57142857142856,410.1808016640799,301.9,410.57142857142856,410.1808016640799,407.2,410.57142857142856,410.1808016640799,514.6,410.57142857142856,410.1808016640799,616.2,410.57142857142856,410.1808016640799,717.5,410.57142857142856,410.1808016640799,825.4,410.57142857142856,410.1808016640799,930.4,410.57142857142856,410.1808016640799,1032,236.57142857142856,524.1808016640799,1137.4,22.07142857142857,662.1808016640799,1241.4,2.5714285714285694,674.1808016640799,1349.2,194.57142857142856,495.6808016640799,1455.5,617.5714285714286,26.180801664079937,1559.7,668.5714285714286,5.180801664079937,1667.5,680.5714285714286,20.180801664079937,1767.6,740.5714285714286,44.18080166407994,1875.1,752.5714285714286,51.68080166407994,1976.4,752.5714285714286,51.68080166407994,2102.5,752.5714285714286,51.68080166407994,2211.3,752.5714285714286,51.68080166407994,2312,752.5714285714286,51.68080166407994,2419.2,752.5714285714286,51.68080166407994,2523.4,752.5714285714286,51.68080166407994,2626.6,752.5714285714286,51.68080166407994,2726.7,752.5714285714286,51.68080166407994,2834.8,752.5714285714286,51.68080166407994,2940.5,752.5714285714286,51.68080166407994,3043.4,752.5714285714286,51.68080166407994,3150.9,752.5714285714286,51.68080166407994,3253.4,752.5714285714286,51.68080166407994,3357.5,752.5714285714286,51.68080166407994,3466.8,752.5714285714286,51.68080166407994,3566.8,752.5714285714286,51.68080166407994,3666.8,752.5714285714286,51.68080166407994,3777.9,752.5714285714286,51.68080166407994,3879,752.5714285714286,51.68080166407994,3987.1,752.5714285714286,51.68080166407994,4089.1,752.5714285714286,51.68080166407994,4197.1,752.5714285714286,51.68080166407994,4298.1,752.5714285714286,51.68080166407994,4401.1,752.5714285714286,51.68080166407994,4506.6,752.5714285714286,51.68080166407994,4614.1,752.5714285714286,51.68080166407994,4714.1,752.5714285714286,51.68080166407994,4822,752.5714285714286,51.68080166407994,4925.9]","[1578,1578.1,1000,0,578.1,""smooth"",""up"",""up"",""good_move"",4553.1,2974.5,2591.1,1578.6,383.4,""while_blue"",""up"",""up"",""good_move"",7566.5,3013.1,2627.8,4553.4,385.3,""smooth"",""up"",""up"",""good_move"",10646.9,3080.2,2723,7566.8,357.1,""oops"",""right"",""left"",""bad_move"",14069.1,3421.9,3061.1,10647.2,360.8,""smooth"",""right"",""right"",""good_move"",16618.7,2548.8,2154.4,14069.9,394.4,""smooth"",""right"",""right"",""good_move"",19418,2799,2389.4,16619,409.6,""smooth"",""right"",""right"",""good_move"",22496.7,3078.3,2739.9,19418.4,338.4,""while_blue"",""right"",""down"",""bad_move"",25381.5,2884.3,2522.4,22497.2,361.9,""smooth"",""right"",""right"",""good_move"",27880.2,2498.2,2166.7,25382.1,331.4,""smooth"",""up"",""up"",""good_move""]","",""
"4567","","<div style=""width:500px;"">
  <p>What determined the result of this run?</p>
  </div>","30","html-slider-response","15","234913","0.0-5.0-1.1","91","1","2025-07-16 09:28:23","1f75c3e559b7213887762d5229550c2b","84.71.171.94","Mozilla/5.0 (Windows NT 10.0; Win64; x64) AppleWebKit/537.36 (KHTML, like Gecko) Chrome/138.0.0.0 Safari/537.36 Edg/138.0.0.0","WebKit","Edge","138.0.0.0","Windows","10.0","https://app.prolific.com/","en-US,en;q=0.9,en-GB;q=0.8,ar;q=0.7,sq;q=0.6","676578b520552faa04a8ef83","686e379bc37a29ffa5cdc956","687770abca1824d28382de2d","1","1","676578b520552faa04a8ef83","1","1","2025-07-16T09:32:09.679Z","","","","","","","","","","","AttribQ","","50","","","","","","","","","","","","","","","","","","","","","","","","","","","","",""
"2934","","<div style=""width:500px;"">
  <p>How much control did you have over the ball?</p>
  </div>","78","html-slider-response","16","237849","0.0-5.0-2.1","91","1","2025-07-16 09:28:23","1f75c3e559b7213887762d5229550c2b","84.71.171.94","Mozilla/5.0 (Windows NT 10.0; Win64; x64) AppleWebKit/537.36 (KHTML, like Gecko) Chrome/138.0.0.0 Safari/537.36 Edg/138.0.0.0","WebKit","Edge","138.0.0.0","Windows","10.0","https://app.prolific.com/","en-US,en;q=0.9,en-GB;q=0.8,ar;q=0.7,sq;q=0.6","676578b520552faa04a8ef83","686e379bc37a29ffa5cdc956","687770abca1824d28382de2d","1","1","676578b520552faa04a8ef83","1","1","2025-07-16T09:32:12.615Z","","","","","","","","","","","ControlQ","","50","","","","","","","","","","","","","","","","","","","","","","","","","","","","",""
"3425","","<div style=""width:500px;"">
  <p>How would you describe your current emotional state?</p>
  </div>","64","html-slider-response","17","241276","0.0-5.0-3.1","91","1","2025-07-16 09:28:23","1f75c3e559b7213887762d5229550c2b","84.71.171.94","Mozilla/5.0 (Windows NT 10.0; Win64; x64) AppleWebKit/537.36 (KHTML, like Gecko) Chrome/138.0.0.0 Safari/537.36 Edg/138.0.0.0","WebKit","Edge","138.0.0.0","Windows","10.0","https://app.prolific.com/","en-US,en;q=0.9,en-GB;q=0.8,ar;q=0.7,sq;q=0.6","676578b520552faa04a8ef83","686e379bc37a29ffa5cdc956","687770abca1824d28382de2d","1","1","676578b520552faa04a8ef83","1","1","2025-07-16T09:32:16.042Z","","","","","","","","","","","StressQ","","50","","","","","","","","","","","","","","","","","","","","","","","","","","","","",""
"4119","","<div style=""width:500px;"">
  <p>What best describes how you currently feel?</p>
  </div>","32","html-slider-response","18","245397","0.0-5.0-4.1","91","1","2025-07-16 09:28:23","1f75c3e559b7213887762d5229550c2b","84.71.171.94","Mozilla/5.0 (Windows NT 10.0; Win64; x64) AppleWebKit/537.36 (KHTML, like Gecko) Chrome/138.0.0.0 Safari/537.36 Edg/138.0.0.0","WebKit","Edge","138.0.0.0","Windows","10.0","https://app.prolific.com/","en-US,en;q=0.9,en-GB;q=0.8,ar;q=0.7,sq;q=0.6","676578b520552faa04a8ef83","686e379bc37a29ffa5cdc956","687770abca1824d28382de2d","1","1","676578b520552faa04a8ef83","1","1","2025-07-16T09:32:20.163Z","","","","","","","","","","","MotivationQ","","50","","","","","","","","","","","","","","","","","","","","","","","","","","","","",""
"","","","","ctl-task-cpt","19","292785","0.0-5.0-0.2","91","1","2025-07-16 09:28:23","1f75c3e559b7213887762d5229550c2b","84.71.171.94","Mozilla/5.0 (Windows NT 10.0; Win64; x64) AppleWebKit/537.36 (KHTML, like Gecko) Chrome/138.0.0.0 Safari/537.36 Edg/138.0.0.0","WebKit","Edge","138.0.0.0","Windows","10.0","https://app.prolific.com/","en-US,en;q=0.9,en-GB;q=0.8,ar;q=0.7,sq;q=0.6","676578b520552faa04a8ef83","686e379bc37a29ffa5cdc956","687770abca1824d28382de2d","1","1","676578b520552faa04a8ef83","1","1","2025-07-16T09:33:07.551Z","","","","","","","","","","","","","","win-only","2","g1:SE,g2:NW","0.8","3","0","247096","1369.3","6373.9","44371","1","4","4","6","2","4","3","12","9","0.09090909090909091","1833.6","3000","390","[""left"",""up""]","{""num_key_presses"":10,""num_perfect"":7,""num_errors"":1,""num_randdir"":2,""num_randdir_good_moves"":1,""num_whilered"":0,""num_whileblue"":1,""num_blue"":4,""num_good_moves"":8}","[415.07142857142856,410.1808016640799,0.2,415.07142857142856,410.1808016640799,101.6,415.07142857142856,410.1808016640799,207,415.07142857142856,410.1808016640799,311.6,415.07142857142856,410.1808016640799,412.4,415.07142857142856,410.1808016640799,519.2,415.07142857142856,410.1808016640799,627.5,415.07142857142856,410.1808016640799,728.9,415.07142857142856,410.1808016640799,835.6,415.07142857142856,410.1808016640799,941.8,415.07142857142856,410.1808016640799,1044.5,415.07142857142856,410.1808016640799,1144.5,146.57142857142856,131.18080166407992,1246.4,140.57142857142856,98.18080166407994,1349,140.57142857142856,98.18080166407994,1452.5,140.57142857142856,98.18080166407994,1561.1,73.07142857142857,80.18080166407994,1667.9,73.07142857142857,80.18080166407994,1771.7,73.07142857142857,80.18080166407994,1874.5,73.07142857142857,80.18080166407994,1977.4,73.07142857142857,80.18080166407994,2078.4,73.07142857142857,80.18080166407994,2185.3,73.07142857142857,80.18080166407994,2286.1,73.07142857142857,80.18080166407994,2387.6,73.07142857142857,80.18080166407994,2487.7,73.07142857142857,80.18080166407994,2588.4,73.07142857142857,80.18080166407994,2694.8,73.07142857142857,80.18080166407994,2800.2,73.07142857142857,80.18080166407994,2904.6,73.07142857142857,80.18080166407994,3008.9,73.07142857142857,80.18080166407994,3111.5,73.07142857142857,80.18080166407994,3211.7,73.07142857142857,80.18080166407994,3312.3,73.07142857142857,80.18080166407994,3423.1,73.07142857142857,80.18080166407994,3530.1,73.07142857142857,80.18080166407994,3631.4,73.07142857142857,80.18080166407994,3736.8,73.07142857142857,80.18080166407994,3837.1,73.07142857142857,80.18080166407994,3939.4,73.07142857142857,80.18080166407994,4042.6,73.07142857142857,80.18080166407994,4146.6,73.07142857142857,80.18080166407994,4250,73.07142857142857,80.18080166407994,4357.8,73.07142857142857,80.18080166407994,4465.9,73.07142857142857,80.18080166407994,4567.1,73.07142857142857,80.18080166407994,4668.2,73.07142857142857,80.18080166407994,4773.4,73.07142857142857,80.18080166407994,4878.3,73.07142857142857,80.18080166407994,4985.6]","[4260.2,4260.2,1915.9,2005.5,338.8,""smooth"",""up"",""up"",""good_move"",7232.6,2971.6,2582.5,4261,389.1,""smooth"",""up"",""up"",""good_move"",9651.2,2418.3,2014,7232.9,404.4,""smooth"",""up"",""up"",""good_move"",12512.4,2860.9,2500.5,9651.5,360.4,""smooth"",""left"",""left"",""good_move"",15543.6,3030.7,2701.9,12512.9,328.8,""oops"",""left"",""right"",""bad_move"",21108.3,5563.9,2164.3,18567.1,376.9,""smooth"",""left"",""left"",""good_move"",24079.8,2971.2,2558.4,21108.6,412.8,""smooth"",""left"",""left"",""good_move"",27462.9,3382.8,3070.6,24080.1,312.2,""while_blue"",""left"",""right"",""bad_move"",31311,3847.4,3423.2,27463.6,424.3,""smooth"",""left"",""left"",""good_move"",37891.3,6579.9,2429.9,35116.3,345.1,""oops"",""left"",""left"",""good_move""]","",""
"4164","","<div style=""width:500px;"">
  <p>What determined the result of this run?</p>
  </div>","29","html-slider-response","20","296950","0.0-5.0-1.2","91","1","2025-07-16 09:28:23","1f75c3e559b7213887762d5229550c2b","84.71.171.94","Mozilla/5.0 (Windows NT 10.0; Win64; x64) AppleWebKit/537.36 (KHTML, like Gecko) Chrome/138.0.0.0 Safari/537.36 Edg/138.0.0.0","WebKit","Edge","138.0.0.0","Windows","10.0","https://app.prolific.com/","en-US,en;q=0.9,en-GB;q=0.8,ar;q=0.7,sq;q=0.6","676578b520552faa04a8ef83","686e379bc37a29ffa5cdc956","687770abca1824d28382de2d","1","1","676578b520552faa04a8ef83","1","1","2025-07-16T09:33:11.717Z","","","","","","","","","","","AttribQ","","50","","","","","","","","","","","","","","","","","","","","","","","","","","","","",""
"3821","","<div style=""width:500px;"">
  <p>How much control did you have over the ball?</p>
  </div>","73","html-slider-response","21","300772","0.0-5.0-2.2","91","1","2025-07-16 09:28:23","1f75c3e559b7213887762d5229550c2b","84.71.171.94","Mozilla/5.0 (Windows NT 10.0; Win64; x64) AppleWebKit/537.36 (KHTML, like Gecko) Chrome/138.0.0.0 Safari/537.36 Edg/138.0.0.0","WebKit","Edge","138.0.0.0","Windows","10.0","https://app.prolific.com/","en-US,en;q=0.9,en-GB;q=0.8,ar;q=0.7,sq;q=0.6","676578b520552faa04a8ef83","686e379bc37a29ffa5cdc956","687770abca1824d28382de2d","1","1","676578b520552faa04a8ef83","1","1","2025-07-16T09:33:15.539Z","","","","","","","","","","","ControlQ","","50","","","","","","","","","","","","","","","","","","","","","","","","","","","","",""
"20215","","<div style=""width:500px;"">
  <p>How would you describe your current emotional state?</p>
  </div>","62","html-slider-response","22","320989","0.0-5.0-3.2","91","1","2025-07-16 09:28:23","1f75c3e559b7213887762d5229550c2b","84.71.171.94","Mozilla/5.0 (Windows NT 10.0; Win64; x64) AppleWebKit/537.36 (KHTML, like Gecko) Chrome/138.0.0.0 Safari/537.36 Edg/138.0.0.0","WebKit","Edge","138.0.0.0","Windows","10.0","https://app.prolific.com/","en-US,en;q=0.9,en-GB;q=0.8,ar;q=0.7,sq;q=0.6","676578b520552faa04a8ef83","686e379bc37a29ffa5cdc956","687770abca1824d28382de2d","1","1","676578b520552faa04a8ef83","1","1","2025-07-16T09:33:35.755Z","","","","","","","","","","","StressQ","","50","","","","","","","","","","","","","","","","","","","","","","","","","","","","",""
"7039","","<div style=""width:500px;"">
  <p>What best describes how you currently feel?</p>
  </div>","37","html-slider-response","23","328031","0.0-5.0-4.2","91","1","2025-07-16 09:28:23","1f75c3e559b7213887762d5229550c2b","84.71.171.94","Mozilla/5.0 (Windows NT 10.0; Win64; x64) AppleWebKit/537.36 (KHTML, like Gecko) Chrome/138.0.0.0 Safari/537.36 Edg/138.0.0.0","WebKit","Edge","138.0.0.0","Windows","10.0","https://app.prolific.com/","en-US,en;q=0.9,en-GB;q=0.8,ar;q=0.7,sq;q=0.6","676578b520552faa04a8ef83","686e379bc37a29ffa5cdc956","687770abca1824d28382de2d","1","1","676578b520552faa04a8ef83","1","1","2025-07-16T09:33:42.797Z","","","","","","","","","","","MotivationQ","","50","","","","","","","","","","","","","","","","","","","","","","","","","","","","",""
"","","","","ctl-task-cpt","24","372518","0.0-5.0-0.3","91","1","2025-07-16 09:28:23","1f75c3e559b7213887762d5229550c2b","84.71.171.94","Mozilla/5.0 (Windows NT 10.0; Win64; x64) AppleWebKit/537.36 (KHTML, like Gecko) Chrome/138.0.0.0 Safari/537.36 Edg/138.0.0.0","WebKit","Edge","138.0.0.0","Windows","10.0","https://app.prolific.com/","en-US,en;q=0.9,en-GB;q=0.8,ar;q=0.7,sq;q=0.6","676578b520552faa04a8ef83","686e379bc37a29ffa5cdc956","687770abca1824d28382de2d","1","1","676578b520552faa04a8ef83","1","1","2025-07-16T09:34:27.284Z","","","","","","","","","","","","","","win-only","0","g1:NW,g2:SE","0.7","4","0","329730.4","3528.5","8534.5","41480.3","1","4","8","6","2","-8","-8","4","12","0.030303030303030304","1589.9","3000","-2375","[""down"",""right""]","{""num_key_presses"":9,""num_perfect"":6,""num_errors"":0,""num_randdir"":3,""num_randdir_good_moves"":1,""num_whilered"":0,""num_whileblue"":0,""num_blue"":2,""num_good_moves"":7}","[327,320.60937309265137,0.5,327,320.60937309265137,110.2,327,320.60937309265137,211.3,327,320.60937309265137,311.9,327,320.60937309265137,419.8,327,320.60937309265137,520.3,327,320.60937309265137,624.9,327,320.60937309265137,729.6,327,320.60937309265137,834.7,433.5,521.6093730926514,938,531,649.1093730926514,1047.1,556.5,656.6093730926514,1152.3,603,646.1093730926514,1253.8,625.5,625.1093730926514,1357.8,627,620.6093730926514,1459.7,627,620.6093730926514,1566.3,627,620.6093730926514,1672.9,627,620.6093730926514,1776.4,627,620.6093730926514,1877.1,627,620.6093730926514,1977.2,627,620.6093730926514,2080.3,627,620.6093730926514,2180.4,627,620.6093730926514,2282.9,627,620.6093730926514,2386.7,627,620.6093730926514,2488,627,620.6093730926514,2596.1,627,620.6093730926514,2699.3,627,620.6093730926514,2802.7,627,620.6093730926514,2909.6,627,620.6093730926514,3017.7,627,620.6093730926514,3125.7,627,620.6093730926514,3231.4,627,620.6093730926514,3333,627,620.6093730926514,3440.4,627,620.6093730926514,3541.3,627,620.6093730926514,3641.7,627,620.6093730926514,3748,627,620.6093730926514,3857.7,627,620.6093730926514,3962.5,627,620.6093730926514,4063.3,627,620.6093730926514,4165.9,627,620.6093730926514,4268.6,627,620.6093730926514,4373.8,627,620.6093730926514,4481.7,627,620.6093730926514,4588.1,627,620.6093730926514,4691.9,627,620.6093730926514,4792,627,620.6093730926514,4894.2,627,620.6093730926514,4996.1]","[1433.9,1433.9,1000,0,433.9,""smooth"",""down"",""down"",""good_move"",4439.4,3004.8,2522.9,1434.6,481.9,""smooth"",""down"",""down"",""good_move"",10032.7,5593.1,1939,7701.1,392.6,""smooth"",""down"",""down"",""good_move"",12631,2598.1,2083.7,10032.9,514.4,""oops"",""right"",""up"",""bad_move"",15799.9,3168.3,2707.7,12631.6,460.6,""smooth"",""right"",""right"",""good_move"",18768.5,2968.3,2523.1,15800.2,445.2,""smooth"",""right"",""right"",""good_move"",21696.8,2928,2518.8,18768.8,409.2,""oops"",""right"",""left"",""bad_move"",24252.8,2555.6,2140.8,21697.2,414.8,""smooth"",""right"",""right"",""good_move"",26963.8,2710.9,2397.2,24253,313.7,""oops"",""right"",""right"",""good_move""]","",""
"3118","","<div style=""width:500px;"">
  <p>What determined the result of this run?</p>
  </div>","30","html-slider-response","25","375637","0.0-5.0-1.3","91","1","2025-07-16 09:28:23","1f75c3e559b7213887762d5229550c2b","84.71.171.94","Mozilla/5.0 (Windows NT 10.0; Win64; x64) AppleWebKit/537.36 (KHTML, like Gecko) Chrome/138.0.0.0 Safari/537.36 Edg/138.0.0.0","WebKit","Edge","138.0.0.0","Windows","10.0","https://app.prolific.com/","en-US,en;q=0.9,en-GB;q=0.8,ar;q=0.7,sq;q=0.6","676578b520552faa04a8ef83","686e379bc37a29ffa5cdc956","687770abca1824d28382de2d","1","1","676578b520552faa04a8ef83","1","1","2025-07-16T09:34:30.403Z","","","","","","","","","","","AttribQ","","50","","","","","","","","","","","","","","","","","","","","","","","","","","","","",""
"3581","","<div style=""width:500px;"">
  <p>How much control did you have over the ball?</p>
  </div>","63","html-slider-response","26","379220","0.0-5.0-2.3","91","1","2025-07-16 09:28:23","1f75c3e559b7213887762d5229550c2b","84.71.171.94","Mozilla/5.0 (Windows NT 10.0; Win64; x64) AppleWebKit/537.36 (KHTML, like Gecko) Chrome/138.0.0.0 Safari/537.36 Edg/138.0.0.0","WebKit","Edge","138.0.0.0","Windows","10.0","https://app.prolific.com/","en-US,en;q=0.9,en-GB;q=0.8,ar;q=0.7,sq;q=0.6","676578b520552faa04a8ef83","686e379bc37a29ffa5cdc956","687770abca1824d28382de2d","1","1","676578b520552faa04a8ef83","1","1","2025-07-16T09:34:33.987Z","","","","","","","","","","","ControlQ","","50","","","","","","","","","","","","","","","","","","","","","","","","","","","","",""
"3230","","<div style=""width:500px;"">
  <p>How would you describe your current emotional state?</p>
  </div>","33","html-slider-response","27","382452","0.0-5.0-3.3","91","1","2025-07-16 09:28:23","1f75c3e559b7213887762d5229550c2b","84.71.171.94","Mozilla/5.0 (Windows NT 10.0; Win64; x64) AppleWebKit/537.36 (KHTML, like Gecko) Chrome/138.0.0.0 Safari/537.36 Edg/138.0.0.0","WebKit","Edge","138.0.0.0","Windows","10.0","https://app.prolific.com/","en-US,en;q=0.9,en-GB;q=0.8,ar;q=0.7,sq;q=0.6","676578b520552faa04a8ef83","686e379bc37a29ffa5cdc956","687770abca1824d28382de2d","1","1","676578b520552faa04a8ef83","1","1","2025-07-16T09:34:37.219Z","","","","","","","","","","","StressQ","","50","","","","","","","","","","","","","","","","","","","","","","","","","","","","",""
"2714","","<div style=""width:500px;"">
  <p>What best describes how you currently feel?</p>
  </div>","38","html-slider-response","28","385169","0.0-5.0-4.3","91","1","2025-07-16 09:28:23","1f75c3e559b7213887762d5229550c2b","84.71.171.94","Mozilla/5.0 (Windows NT 10.0; Win64; x64) AppleWebKit/537.36 (KHTML, like Gecko) Chrome/138.0.0.0 Safari/537.36 Edg/138.0.0.0","WebKit","Edge","138.0.0.0","Windows","10.0","https://app.prolific.com/","en-US,en;q=0.9,en-GB;q=0.8,ar;q=0.7,sq;q=0.6","676578b520552faa04a8ef83","686e379bc37a29ffa5cdc956","687770abca1824d28382de2d","1","1","676578b520552faa04a8ef83","1","1","2025-07-16T09:34:39.935Z","","","","","","","","","","","MotivationQ","","50","","","","","","","","","","","","","","","","","","","","","","","","","","","","",""
"","","","","ctl-task-cpt","29","413304","0.0-5.0-0.4","91","1","2025-07-16 09:28:23","1f75c3e559b7213887762d5229550c2b","84.71.171.94","Mozilla/5.0 (Windows NT 10.0; Win64; x64) AppleWebKit/537.36 (KHTML, like Gecko) Chrome/138.0.0.0 Safari/537.36 Edg/138.0.0.0","WebKit","Edge","138.0.0.0","Windows","10.0","https://app.prolific.com/","en-US,en;q=0.9,en-GB;q=0.8,ar;q=0.7,sq;q=0.6","676578b520552faa04a8ef83","686e379bc37a29ffa5cdc956","687770abca1824d28382de2d","1","1","676578b520552faa04a8ef83","1","1","2025-07-16T09:35:08.070Z","","","","","","","","","","","","","","win-only","3","g1:SW,g2:NE","0.6","5","0","386866.3","1461.8","6471.4","25117.4","1","4","8","6","2","8","8","12","4","0.09090909090909091","1335.9","3000","980","[""up"",""right""]","{""num_key_presses"":6,""num_perfect"":5,""num_errors"":0,""num_randdir"":1,""num_randdir_good_moves"":1,""num_whilered"":0,""num_whileblue"":0,""num_blue"":1,""num_good_moves"":6}","[319.5,323.60937309265137,0.3,319.5,323.60937309265137,101.2,319.5,323.60937309265137,202.1,319.5,323.60937309265137,308.7,319.5,323.60937309265137,409.8,319.5,323.60937309265137,515.4,319.5,323.60937309265137,622.9,319.5,323.60937309265137,725.6,367.5,266.60937309265137,828.3,561,115.10937309265137,935.3,594,98.60937309265137,1043,594,98.60937309265137,1149.3,594,98.60937309265137,1252.8,594,98.60937309265137,1357.9,594,98.60937309265137,1459.5,594,98.60937309265137,1569.6,594,98.60937309265137,1671.7,594,98.60937309265137,1781.2,594,98.60937309265137,1886.5,594,98.60937309265137,1987.8,594,98.60937309265137,2095.2,594,98.60937309265137,2201,594,98.60937309265137,2301.2,594,98.60937309265137,2406.6,594,98.60937309265137,2509,594,98.60937309265137,2612.4,594,98.60937309265137,2718.6,594,98.60937309265137,2823.5,594,98.60937309265137,2926.2,594,98.60937309265137,3038.4,594,98.60937309265137,3143.6,594,98.60937309265137,3249.7,594,98.60937309265137,3353.8,594,98.60937309265137,3455.4,594,98.60937309265137,3558.2,594,98.60937309265137,3666.7,594,98.60937309265137,3769.2,594,98.60937309265137,3872.4,594,98.60937309265137,3977.7,594,98.60937309265137,4077.7,594,98.60937309265137,4183.7,594,98.60937309265137,4283.7,594,98.60937309265137,4383.7,594,98.60937309265137,4483.8,594,98.60937309265137,4591.4,594,98.60937309265137,4695.3,594,98.60937309265137,4804.8,594,98.60937309265137,4910.8]","[5282.9,5282.9,2861,2008.6,413.3,""smooth"",""up"",""up"",""good_move"",8306,3022.5,2626.7,5283.5,395.8,""smooth"",""up"",""up"",""good_move"",11101.2,2794.8,2376.9,8306.4,417.9,""smooth"",""up"",""up"",""good_move"",13596.1,2494.6,1785.5,11101.5,709.1,""smooth"",""right"",""right"",""good_move"",16259.6,2663,2290.6,13596.6,372.4,""oops"",""right"",""right"",""good_move"",18515.7,2255.6,1660.6,16260.1,595,""smooth"",""right"",""right"",""good_move""]","",""
"3023","","<div style=""width:500px;"">
  <p>What determined the result of this run?</p>
  </div>","10","html-slider-response","30","416331","0.0-5.0-1.4","91","1","2025-07-16 09:28:23","1f75c3e559b7213887762d5229550c2b","84.71.171.94","Mozilla/5.0 (Windows NT 10.0; Win64; x64) AppleWebKit/537.36 (KHTML, like Gecko) Chrome/138.0.0.0 Safari/537.36 Edg/138.0.0.0","WebKit","Edge","138.0.0.0","Windows","10.0","https://app.prolific.com/","en-US,en;q=0.9,en-GB;q=0.8,ar;q=0.7,sq;q=0.6","676578b520552faa04a8ef83","686e379bc37a29ffa5cdc956","687770abca1824d28382de2d","1","1","676578b520552faa04a8ef83","1","1","2025-07-16T09:35:11.097Z","","","","","","","","","","","AttribQ","","50","","","","","","","","","","","","","","","","","","","","","","","","","","","","",""
"3842","","<div style=""width:500px;"">
  <p>How much control did you have over the ball?</p>
  </div>","100","html-slider-response","31","420177","0.0-5.0-2.4","91","1","2025-07-16 09:28:23","1f75c3e559b7213887762d5229550c2b","84.71.171.94","Mozilla/5.0 (Windows NT 10.0; Win64; x64) AppleWebKit/537.36 (KHTML, like Gecko) Chrome/138.0.0.0 Safari/537.36 Edg/138.0.0.0","WebKit","Edge","138.0.0.0","Windows","10.0","https://app.prolific.com/","en-US,en;q=0.9,en-GB;q=0.8,ar;q=0.7,sq;q=0.6","676578b520552faa04a8ef83","686e379bc37a29ffa5cdc956","687770abca1824d28382de2d","1","1","676578b520552faa04a8ef83","1","1","2025-07-16T09:35:14.943Z","","","","","","","","","","","ControlQ","","50","","","","","","","","","","","","","","","","","","","","","","","","","","","","",""
"4122","","<div style=""width:500px;"">
  <p>How would you describe your current emotional state?</p>
  </div>","63","html-slider-response","32","424302","0.0-5.0-3.4","91","1","2025-07-16 09:28:23","1f75c3e559b7213887762d5229550c2b","84.71.171.94","Mozilla/5.0 (Windows NT 10.0; Win64; x64) AppleWebKit/537.36 (KHTML, like Gecko) Chrome/138.0.0.0 Safari/537.36 Edg/138.0.0.0","WebKit","Edge","138.0.0.0","Windows","10.0","https://app.prolific.com/","en-US,en;q=0.9,en-GB;q=0.8,ar;q=0.7,sq;q=0.6","676578b520552faa04a8ef83","686e379bc37a29ffa5cdc956","687770abca1824d28382de2d","1","1","676578b520552faa04a8ef83","1","1","2025-07-16T09:35:19.068Z","","","","","","","","","","","StressQ","","50","","","","","","","","","","","","","","","","","","","","","","","","","","","","",""
"3942","","<div style=""width:500px;"">
  <p>What best describes how you currently feel?</p>
  </div>","35","html-slider-response","33","428246","0.0-5.0-4.4","91","1","2025-07-16 09:28:23","1f75c3e559b7213887762d5229550c2b","84.71.171.94","Mozilla/5.0 (Windows NT 10.0; Win64; x64) AppleWebKit/537.36 (KHTML, like Gecko) Chrome/138.0.0.0 Safari/537.36 Edg/138.0.0.0","WebKit","Edge","138.0.0.0","Windows","10.0","https://app.prolific.com/","en-US,en;q=0.9,en-GB;q=0.8,ar;q=0.7,sq;q=0.6","676578b520552faa04a8ef83","686e379bc37a29ffa5cdc956","687770abca1824d28382de2d","1","1","676578b520552faa04a8ef83","1","1","2025-07-16T09:35:23.012Z","","","","","","","","","","","MotivationQ","","50","","","","","","","","","","","","","","","","","","","","","","","","","","","","",""
"","","","","ctl-task-cpt","34","467688","0.0-5.0-0.5","91","1","2025-07-16 09:28:23","1f75c3e559b7213887762d5229550c2b","84.71.171.94","Mozilla/5.0 (Windows NT 10.0; Win64; x64) AppleWebKit/537.36 (KHTML, like Gecko) Chrome/138.0.0.0 Safari/537.36 Edg/138.0.0.0","WebKit","Edge","138.0.0.0","Windows","10.0","https://app.prolific.com/","en-US,en;q=0.9,en-GB;q=0.8,ar;q=0.7,sq;q=0.6","676578b520552faa04a8ef83","686e379bc37a29ffa5cdc956","687770abca1824d28382de2d","1","1","676578b520552faa04a8ef83","1","1","2025-07-16T09:36:02.455Z","","","","","","","","","","","","","","win-only","2","g1:SE,g2:NW","0.5","6","0","429943.7","1402.7","6404","36431.9","1","4","4","6","2","4","3","15","12","0.11363636363636363","1531.9","3000","220","[""left"",""up""]","{""num_key_presses"":11,""num_perfect"":5,""num_errors"":1,""num_randdir"":5,""num_randdir_good_moves"":3,""num_whilered"":0,""num_whileblue"":0,""num_blue"":0,""num_good_moves"":8}","[321,331.10937309265137,0.2,321,331.10937309265137,105,321,331.10937309265137,211.6,321,331.10937309265137,320.3,321,331.10937309265137,427.6,321,331.10937309265137,528.5,321,331.10937309265137,631.9,321,331.10937309265137,738.9,346.5,370.10937309265137,839.5,385.5,422.60937309265137,943.9,145.5,184.10937309265137,1048.6,51,85.10937309265137,1152.1,37.5,58.10937309265137,1256.1,36,49.10937309265137,1360.8,36,49.10937309265137,1469.2,36,49.10937309265137,1572.5,36,49.10937309265137,1673.2,36,49.10937309265137,1779.4,36,49.10937309265137,1889.1,36,49.10937309265137,1996.4,36,49.10937309265137,2104.6,36,49.10937309265137,2209.2,36,49.10937309265137,2310.8,36,49.10937309265137,2413.2,36,49.10937309265137,2518.2,36,49.10937309265137,2629.6,36,49.10937309265137,2733.1,36,49.10937309265137,2833.3,36,49.10937309265137,2938.3,36,49.10937309265137,3047.9,36,49.10937309265137,3148.8,36,49.10937309265137,3259.2,36,49.10937309265137,3363.5,36,49.10937309265137,3469.2,36,49.10937309265137,3570.2,36,49.10937309265137,3673.8,36,49.10937309265137,3775.9,36,49.10937309265137,3883.8,36,49.10937309265137,3989.2,36,49.10937309265137,4090.4,36,49.10937309265137,4197.1,36,49.10937309265137,4302.5,36,49.10937309265137,4403.1,36,49.10937309265137,4509.7,36,49.10937309265137,4617.1,36,49.10937309265137,4721.6,36,49.10937309265137,4823.7,36,49.10937309265137,4931.5]","[834.7,834.7,1000,0,-165.3,""error"",""-"",""-"",""no_move"",4790.6,3955.7,2583.6,1842.6,364.4,""oops"",""up"",""left"",""good_move"",7209.5,2418.3,2080.5,4791.2,337.8,""smooth"",""up"",""up"",""good_move"",9705.5,2495.3,2156.9,7210.2,338.4,""oops"",""up"",""right"",""bad_move"",12699.8,2993.8,2641.3,9706,352.5,""smooth"",""up"",""up"",""good_move"",15739,3038.8,2569.1,12700.2,469.7,""oops"",""up"",""left"",""good_move"",18750.5,3010.9,2468.8,15739.6,542.1,""smooth"",""up"",""up"",""good_move"",21779.4,3028.6,2662.9,18750.8,365.7,""smooth"",""left"",""left"",""good_move"",24291.5,2511.9,2158.3,21779.6,353.6,""oops"",""left"",""right"",""bad_move"",27221,2929,2552.9,24292,376.1,""smooth"",""left"",""left"",""good_move"",29891,2669.2,2302,27221.8,367.2,""oops"",""left"",""left"",""good_move""]","",""
"6435","","<div style=""width:500px;"">
  <p>What determined the result of this run?</p>
  </div>","22","html-slider-response","35","474125","0.0-5.0-1.5","91","1","2025-07-16 09:28:23","1f75c3e559b7213887762d5229550c2b","84.71.171.94","Mozilla/5.0 (Windows NT 10.0; Win64; x64) AppleWebKit/537.36 (KHTML, like Gecko) Chrome/138.0.0.0 Safari/537.36 Edg/138.0.0.0","WebKit","Edge","138.0.0.0","Windows","10.0","https://app.prolific.com/","en-US,en;q=0.9,en-GB;q=0.8,ar;q=0.7,sq;q=0.6","676578b520552faa04a8ef83","686e379bc37a29ffa5cdc956","687770abca1824d28382de2d","1","1","676578b520552faa04a8ef83","1","1","2025-07-16T09:36:08.891Z","","","","","","","","","","","AttribQ","","50","","","","","","","","","","","","","","","","","","","","","","","","","","","","",""
"5128","","<div style=""width:500px;"">
  <p>How much control did you have over the ball?</p>
  </div>","59","html-slider-response","36","479255","0.0-5.0-2.5","91","1","2025-07-16 09:28:23","1f75c3e559b7213887762d5229550c2b","84.71.171.94","Mozilla/5.0 (Windows NT 10.0; Win64; x64) AppleWebKit/537.36 (KHTML, like Gecko) Chrome/138.0.0.0 Safari/537.36 Edg/138.0.0.0","WebKit","Edge","138.0.0.0","Windows","10.0","https://app.prolific.com/","en-US,en;q=0.9,en-GB;q=0.8,ar;q=0.7,sq;q=0.6","676578b520552faa04a8ef83","686e379bc37a29ffa5cdc956","687770abca1824d28382de2d","1","1","676578b520552faa04a8ef83","1","1","2025-07-16T09:36:14.021Z","","","","","","","","","","","ControlQ","","50","","","","","","","","","","","","","","","","","","","","","","","","","","","","",""
"5090","","<div style=""width:500px;"">
  <p>How would you describe your current emotional state?</p>
  </div>","69","html-slider-response","37","484347","0.0-5.0-3.5","91","1","2025-07-16 09:28:23","1f75c3e559b7213887762d5229550c2b","84.71.171.94","Mozilla/5.0 (Windows NT 10.0; Win64; x64) AppleWebKit/537.36 (KHTML, like Gecko) Chrome/138.0.0.0 Safari/537.36 Edg/138.0.0.0","WebKit","Edge","138.0.0.0","Windows","10.0","https://app.prolific.com/","en-US,en;q=0.9,en-GB;q=0.8,ar;q=0.7,sq;q=0.6","676578b520552faa04a8ef83","686e379bc37a29ffa5cdc956","687770abca1824d28382de2d","1","1","676578b520552faa04a8ef83","1","1","2025-07-16T09:36:19.113Z","","","","","","","","","","","StressQ","","50","","","","","","","","","","","","","","","","","","","","","","","","","","","","",""
"4940","","<div style=""width:500px;"">
  <p>What best describes how you currently feel?</p>
  </div>","32","html-slider-response","38","489290","0.0-5.0-4.5","91","1","2025-07-16 09:28:23","1f75c3e559b7213887762d5229550c2b","84.71.171.94","Mozilla/5.0 (Windows NT 10.0; Win64; x64) AppleWebKit/537.36 (KHTML, like Gecko) Chrome/138.0.0.0 Safari/537.36 Edg/138.0.0.0","WebKit","Edge","138.0.0.0","Windows","10.0","https://app.prolific.com/","en-US,en;q=0.9,en-GB;q=0.8,ar;q=0.7,sq;q=0.6","676578b520552faa04a8ef83","686e379bc37a29ffa5cdc956","687770abca1824d28382de2d","1","1","676578b520552faa04a8ef83","1","1","2025-07-16T09:36:24.056Z","","","","","","","","","","","MotivationQ","","50","","","","","","","","","","","","","","","","","","","","","","","","","","","","",""
"","","","","ctl-task-cpt","39","539374","0.0-5.0-0.6","91","1","2025-07-16 09:28:23","1f75c3e559b7213887762d5229550c2b","84.71.171.94","Mozilla/5.0 (Windows NT 10.0; Win64; x64) AppleWebKit/537.36 (KHTML, like Gecko) Chrome/138.0.0.0 Safari/537.36 Edg/138.0.0.0","WebKit","Edge","138.0.0.0","Windows","10.0","https://app.prolific.com/","en-US,en;q=0.9,en-GB;q=0.8,ar;q=0.7,sq;q=0.6","676578b520552faa04a8ef83","686e379bc37a29ffa5cdc956","687770abca1824d28382de2d","1","1","676578b520552faa04a8ef83","1","1","2025-07-16T09:37:14.140Z","","","","","","","","","","","","","","win-only","0","g1:NW,g2:SE","0.4","7","0","490987.2","2632.4","7634.7","47061","1","4","8","6","2","-8","-8","7","15","0.05303030303030303","1464.1","3000","-2160","[""down"",""right""]","{""num_key_presses"":8,""num_perfect"":4,""num_errors"":0,""num_randdir"":4,""num_randdir_good_moves"":1,""num_whilered"":0,""num_whileblue"":0,""num_blue"":4,""num_good_moves"":5}","[316.5,317.60937309265137,0.2,316.5,317.60937309265137,106,316.5,317.60937309265137,208.4,316.5,317.60937309265137,316.6,316.5,317.60937309265137,418,316.5,317.60937309265137,518.5,316.5,317.60937309265137,625.1,316.5,317.60937309265137,730.6,418.5,446.60937309265137,837,483,527.6093730926514,943.6,510,545.6093730926514,1056.3,571.5,572.6093730926514,1159.2,592.5,581.6093730926514,1260.3,598.5,584.6093730926514,1366.6,598.5,584.6093730926514,1486.3,598.5,584.6093730926514,1596.2,598.5,584.6093730926514,1700.4,598.5,584.6093730926514,1806.5,598.5,584.6093730926514,1910.8,598.5,584.6093730926514,2013.9,598.5,584.6093730926514,2117.3,598.5,584.6093730926514,2218.4,598.5,584.6093730926514,2326.9,598.5,584.6093730926514,2428.9,598.5,584.6093730926514,2532.8,598.5,584.6093730926514,2633.8,598.5,584.6093730926514,2733.8,598.5,584.6093730926514,2836.1,598.5,584.6093730926514,2943.8,598.5,584.6093730926514,3045.5,598.5,584.6093730926514,3150.9,598.5,584.6093730926514,3253.5,598.5,584.6093730926514,3359.9,598.5,584.6093730926514,3461.6,598.5,584.6093730926514,3568.3,598.5,584.6093730926514,3672.4,598.5,584.6093730926514,3773.1,598.5,584.6093730926514,3874.8,598.5,584.6093730926514,3982.4,598.5,584.6093730926514,4083.6,598.5,584.6093730926514,4184.4,598.5,584.6093730926514,4286.9,598.5,584.6093730926514,4392.2,598.5,584.6093730926514,4493.5,598.5,584.6093730926514,4605.4,598.5,584.6093730926514,4714.2,598.5,584.6093730926514,4826.2,598.5,584.6093730926514,4930.8]","[4972.7,4972.7,2551.9,2006.5,414.3,""oops"",""down"",""left"",""bad_move"",8116.8,3143.6,2713.3,4973.2,430.3,""smooth"",""down"",""down"",""good_move"",18929.2,10812,2784.2,15619.4,525.6,""smooth"",""down"",""down"",""good_move"",21640.9,2711.3,1909.5,18929.6,801.8,""oops"",""right"",""left"",""bad_move"",24688.8,3047,2391.2,21641.8,655.8,""oops"",""right"",""down"",""good_move"",31374.6,6685.6,2448.4,28510.7,415.5,""oops"",""right"",""up"",""bad_move"",33971.6,2596.3,2136.3,31375.3,460,""smooth"",""right"",""right"",""good_move"",37337.8,3365.3,2837.2,33972.7,528,""smooth"",""right"",""right"",""good_move""]","",""
"5691","","<div style=""width:500px;"">
  <p>What determined the result of this run?</p>
  </div>","24","html-slider-response","40","545068","0.0-5.0-1.6","91","1","2025-07-16 09:28:23","1f75c3e559b7213887762d5229550c2b","84.71.171.94","Mozilla/5.0 (Windows NT 10.0; Win64; x64) AppleWebKit/537.36 (KHTML, like Gecko) Chrome/138.0.0.0 Safari/537.36 Edg/138.0.0.0","WebKit","Edge","138.0.0.0","Windows","10.0","https://app.prolific.com/","en-US,en;q=0.9,en-GB;q=0.8,ar;q=0.7,sq;q=0.6","676578b520552faa04a8ef83","686e379bc37a29ffa5cdc956","687770abca1824d28382de2d","1","1","676578b520552faa04a8ef83","1","1","2025-07-16T09:37:19.835Z","","","","","","","","","","","AttribQ","","50","","","","","","","","","","","","","","","","","","","","","","","","","","","","",""
"5402","","<div style=""width:500px;"">
  <p>How much control did you have over the ball?</p>
  </div>","36","html-slider-response","41","550475","0.0-5.0-2.6","91","1","2025-07-16 09:28:23","1f75c3e559b7213887762d5229550c2b","84.71.171.94","Mozilla/5.0 (Windows NT 10.0; Win64; x64) AppleWebKit/537.36 (KHTML, like Gecko) Chrome/138.0.0.0 Safari/537.36 Edg/138.0.0.0","WebKit","Edge","138.0.0.0","Windows","10.0","https://app.prolific.com/","en-US,en;q=0.9,en-GB;q=0.8,ar;q=0.7,sq;q=0.6","676578b520552faa04a8ef83","686e379bc37a29ffa5cdc956","687770abca1824d28382de2d","1","1","676578b520552faa04a8ef83","1","1","2025-07-16T09:37:25.241Z","","","","","","","","","","","ControlQ","","50","","","","","","","","","","","","","","","","","","","","","","","","","","","","",""
"3115","","<div style=""width:500px;"">
  <p>How would you describe your current emotional state?</p>
  </div>","60","html-slider-response","42","553592","0.0-5.0-3.6","91","1","2025-07-16 09:28:23","1f75c3e559b7213887762d5229550c2b","84.71.171.94","Mozilla/5.0 (Windows NT 10.0; Win64; x64) AppleWebKit/537.36 (KHTML, like Gecko) Chrome/138.0.0.0 Safari/537.36 Edg/138.0.0.0","WebKit","Edge","138.0.0.0","Windows","10.0","https://app.prolific.com/","en-US,en;q=0.9,en-GB;q=0.8,ar;q=0.7,sq;q=0.6","676578b520552faa04a8ef83","686e379bc37a29ffa5cdc956","687770abca1824d28382de2d","1","1","676578b520552faa04a8ef83","1","1","2025-07-16T09:37:28.358Z","","","","","","","","","","","StressQ","","50","","","","","","","","","","","","","","","","","","","","","","","","","","","","",""
"3431","","<div style=""width:500px;"">
  <p>What best describes how you currently feel?</p>
  </div>","30","html-slider-response","43","557025","0.0-5.0-4.6","91","1","2025-07-16 09:28:23","1f75c3e559b7213887762d5229550c2b","84.71.171.94","Mozilla/5.0 (Windows NT 10.0; Win64; x64) AppleWebKit/537.36 (KHTML, like Gecko) Chrome/138.0.0.0 Safari/537.36 Edg/138.0.0.0","WebKit","Edge","138.0.0.0","Windows","10.0","https://app.prolific.com/","en-US,en;q=0.9,en-GB;q=0.8,ar;q=0.7,sq;q=0.6","676578b520552faa04a8ef83","686e379bc37a29ffa5cdc956","687770abca1824d28382de2d","1","1","676578b520552faa04a8ef83","1","1","2025-07-16T09:37:31.791Z","","","","","","","","","","","MotivationQ","","50","","","","","","","","","","","","","","","","","","","","","","","","","","","","",""
"","","","","ctl-task-cpt","44","586075","0.0-5.0-0.7","91","1","2025-07-16 09:28:23","1f75c3e559b7213887762d5229550c2b","84.71.171.94","Mozilla/5.0 (Windows NT 10.0; Win64; x64) AppleWebKit/537.36 (KHTML, like Gecko) Chrome/138.0.0.0 Safari/537.36 Edg/138.0.0.0","WebKit","Edge","138.0.0.0","Windows","10.0","https://app.prolific.com/","en-US,en;q=0.9,en-GB;q=0.8,ar;q=0.7,sq;q=0.6","676578b520552faa04a8ef83","686e379bc37a29ffa5cdc956","687770abca1824d28382de2d","1","1","676578b520552faa04a8ef83","1","1","2025-07-16T09:38:00.841Z","","","","","","","","","","","","","","win-only","0","g1:NW,g2:SE","0.3","8","0","558721.4","2890.6","7893.3","26037.3","1","4","4","6","1","1","0","7","7","0.05303030303030303","1772.5","3000","1800","[""left"",""up""]","{""num_key_presses"":4,""num_perfect"":3,""num_errors"":1,""num_randdir"":0,""num_randdir_good_moves"":0,""num_whilered"":0,""num_whileblue"":1,""num_blue"":3,""num_good_moves"":4}","[318,323.60937309265137,0.8,318,323.60937309265137,103.5,318,323.60937309265137,212.6,318,323.60937309265137,313.5,318,323.60937309265137,414.8,318,323.60937309265137,519,318,323.60937309265137,625.8,318,323.60937309265137,725.9,415.5,418.10937309265137,837.5,459,481.10937309265137,941.1,450,482.60937309265137,1042.3,264,413.60937309265137,1145.4,114,224.60937309265137,1249.6,79.5,133.10937309265137,1353.8,75,116.60937309265137,1460.9,66,85.10937309265137,1561.2,63,62.60937309265137,1662.3,63,62.60937309265137,1768.1,63,62.60937309265137,1869.5,63,62.60937309265137,1970.9,63,62.60937309265137,2073.3,63,62.60937309265137,2179.4,63,62.60937309265137,2280.9,123,140.60937309265137,2384.8,142.5,163.10937309265137,2488,142.5,163.10937309265137,2588.4,142.5,163.10937309265137,2691,142.5,163.10937309265137,2795.1,142.5,163.10937309265137,2897.5,142.5,163.10937309265137,3006,142.5,163.10937309265137,3114,142.5,163.10937309265137,3214.5,142.5,163.10937309265137,3314.6,142.5,163.10937309265137,3420.3,142.5,163.10937309265137,3522.6,142.5,163.10937309265137,3624.1,142.5,163.10937309265137,3725.3,142.5,163.10937309265137,3829.6,142.5,163.10937309265137,3929.7,142.5,163.10937309265137,4033.5,142.5,163.10937309265137,4136.8,142.5,163.10937309265137,4241.2,142.5,163.10937309265137,4341.5,142.5,163.10937309265137,4449.6,142.5,163.10937309265137,4551.2,142.5,163.10937309265137,4654.7,142.5,163.10937309265137,4761.7,142.5,163.10937309265137,4867.8,142.5,163.10937309265137,4968.9]","[1700.4,1700.3,1000,0.1,700.3,""smooth"",""up"",""up"",""good_move"",4563.5,2862.5,2528.8,1701,333.7,""while_blue"",""up"",""up"",""good_move"",7180.3,2616.6,2019.7,4563.7,596.9,""smooth"",""left"",""left"",""good_move"",18008,10827.2,3012,14482.5,513.5,""smooth"",""left"",""left"",""good_move""]","",""
"4934","","<div style=""width:500px;"">
  <p>What determined the result of this run?</p>
  </div>","36","html-slider-response","45","591011","0.0-5.0-1.7","91","1","2025-07-16 09:28:23","1f75c3e559b7213887762d5229550c2b","84.71.171.94","Mozilla/5.0 (Windows NT 10.0; Win64; x64) AppleWebKit/537.36 (KHTML, like Gecko) Chrome/138.0.0.0 Safari/537.36 Edg/138.0.0.0","WebKit","Edge","138.0.0.0","Windows","10.0","https://app.prolific.com/","en-US,en;q=0.9,en-GB;q=0.8,ar;q=0.7,sq;q=0.6","676578b520552faa04a8ef83","686e379bc37a29ffa5cdc956","687770abca1824d28382de2d","1","1","676578b520552faa04a8ef83","1","1","2025-07-16T09:38:05.777Z","","","","","","","","","","","AttribQ","","50","","","","","","","","","","","","","","","","","","","","","","","","","","","","",""
"4965","","<div style=""width:500px;"">
  <p>How much control did you have over the ball?</p>
  </div>","64","html-slider-response","46","595978","0.0-5.0-2.7","91","1","2025-07-16 09:28:23","1f75c3e559b7213887762d5229550c2b","84.71.171.94","Mozilla/5.0 (Windows NT 10.0; Win64; x64) AppleWebKit/537.36 (KHTML, like Gecko) Chrome/138.0.0.0 Safari/537.36 Edg/138.0.0.0","WebKit","Edge","138.0.0.0","Windows","10.0","https://app.prolific.com/","en-US,en;q=0.9,en-GB;q=0.8,ar;q=0.7,sq;q=0.6","676578b520552faa04a8ef83","686e379bc37a29ffa5cdc956","687770abca1824d28382de2d","1","1","676578b520552faa04a8ef83","1","1","2025-07-16T09:38:10.745Z","","","","","","","","","","","ControlQ","","50","","","","","","","","","","","","","","","","","","","","","","","","","","","","",""
"3275","","<div style=""width:500px;"">
  <p>How would you describe your current emotional state?</p>
  </div>","64","html-slider-response","47","599256","0.0-5.0-3.7","91","1","2025-07-16 09:28:23","1f75c3e559b7213887762d5229550c2b","84.71.171.94","Mozilla/5.0 (Windows NT 10.0; Win64; x64) AppleWebKit/537.36 (KHTML, like Gecko) Chrome/138.0.0.0 Safari/537.36 Edg/138.0.0.0","WebKit","Edge","138.0.0.0","Windows","10.0","https://app.prolific.com/","en-US,en;q=0.9,en-GB;q=0.8,ar;q=0.7,sq;q=0.6","676578b520552faa04a8ef83","686e379bc37a29ffa5cdc956","687770abca1824d28382de2d","1","1","676578b520552faa04a8ef83","1","1","2025-07-16T09:38:14.023Z","","","","","","","","","","","StressQ","","50","","","","","","","","","","","","","","","","","","","","","","","","","","","","",""
"5098","","<div style=""width:500px;"">
  <p>What best describes how you currently feel?</p>
  </div>","39","html-slider-response","48","604357","0.0-5.0-4.7","91","1","2025-07-16 09:28:23","1f75c3e559b7213887762d5229550c2b","84.71.171.94","Mozilla/5.0 (Windows NT 10.0; Win64; x64) AppleWebKit/537.36 (KHTML, like Gecko) Chrome/138.0.0.0 Safari/537.36 Edg/138.0.0.0","WebKit","Edge","138.0.0.0","Windows","10.0","https://app.prolific.com/","en-US,en;q=0.9,en-GB;q=0.8,ar;q=0.7,sq;q=0.6","676578b520552faa04a8ef83","686e379bc37a29ffa5cdc956","687770abca1824d28382de2d","1","1","676578b520552faa04a8ef83","1","1","2025-07-16T09:38:19.123Z","","","","","","","","","","","MotivationQ","","50","","","","","","","","","","","","","","","","","","","","","","","","","","","","",""
"","","","","ctl-task-cpt","49","641806","0.0-5.0-0.8","91","1","2025-07-16 09:28:23","1f75c3e559b7213887762d5229550c2b","84.71.171.94","Mozilla/5.0 (Windows NT 10.0; Win64; x64) AppleWebKit/537.36 (KHTML, like Gecko) Chrome/138.0.0.0 Safari/537.36 Edg/138.0.0.0","WebKit","Edge","138.0.0.0","Windows","10.0","https://app.prolific.com/","en-US,en;q=0.9,en-GB;q=0.8,ar;q=0.7,sq;q=0.6","676578b520552faa04a8ef83","686e379bc37a29ffa5cdc956","687770abca1824d28382de2d","1","1","676578b520552faa04a8ef83","1","1","2025-07-16T09:38:56.572Z","","","","","","","","","","","","","","win-only","1","g1:NE,g2:SW","0.2","9","0","606055.3","1446.4","6451.3","34432.6","1","4","4","6","2","-4","-4","3","7","0.022727272727272728","1604","3000","-2270","[""down"",""left""]","{""num_key_presses"":8,""num_perfect"":1,""num_errors"":0,""num_randdir"":7,""num_randdir_good_moves"":2,""num_whilered"":0,""num_whileblue"":0,""num_blue"":1,""num_good_moves"":3}","[321,320.60937309265137,0.2,321,320.60937309265137,100.5,321,320.60937309265137,209.3,321,320.60937309265137,310.5,321,320.60937309265137,410.9,321,320.60937309265137,515.6,321,320.60937309265137,619.5,321,320.60937309265137,729.6,321,320.60937309265137,836.5,268.5,386.60937309265137,940,85.5,616.1093730926514,1044.4,73.5,623.6093730926514,1144.8,66,613.1093730926514,1248.2,64.5,599.6093730926514,1351.1,64.5,596.6093730926514,1451.9,64.5,596.6093730926514,1555.4,64.5,596.6093730926514,1661,64.5,596.6093730926514,1767.9,64.5,596.6093730926514,1871.3,64.5,596.6093730926514,1977.9,64.5,596.6093730926514,2081.3,165,508.10937309265137,2191,247.5,457.10937309265137,2297.8,247.5,457.10937309265137,2401.9,247.5,457.10937309265137,2512.8,247.5,457.10937309265137,2620.9,247.5,457.10937309265137,2727.9,247.5,457.10937309265137,2829.2,247.5,457.10937309265137,2931.2,247.5,457.10937309265137,3039.8,247.5,457.10937309265137,3143.8,247.5,457.10937309265137,3250.8,247.5,457.10937309265137,3354,247.5,457.10937309265137,3457.8,247.5,457.10937309265137,3559.3,247.5,457.10937309265137,3660,247.5,457.10937309265137,3765,247.5,457.10937309265137,3865.2,247.5,457.10937309265137,3966.2,247.5,457.10937309265137,4076.1,247.5,457.10937309265137,4180.2,247.5,457.10937309265137,4285.6,247.5,457.10937309265137,4388.1,247.5,457.10937309265137,4494.2,247.5,457.10937309265137,4594.9,247.5,457.10937309265137,4698.9,247.5,457.10937309265137,4804.1,247.5,457.10937309265137,4904.5]","[1611.3,1611.3,1000,0,611.3,""oops"",""down"",""right"",""bad_move"",4798.2,3186.5,2647.3,1611.7,539.2,""oops"",""down"",""left"",""good_move"",7576.8,2778.3,2298,4798.5,480.3,""oops"",""down"",""up"",""bad_move"",10864.3,3286.9,2600,7577.5,686.9,""oops"",""down"",""up"",""bad_move"",13549.3,2684.4,2182.1,10864.9,502.3,""oops"",""down"",""right"",""bad_move"",16489,2939.3,2417.7,13549.7,521.6,""oops"",""down"",""right"",""bad_move"",19474.6,2985.2,2631,16489.4,354.2,""smooth"",""down"",""down"",""good_move"",26499.4,7024.4,2937,23143.3,419.1,""oops"",""down"",""down"",""good_move""]","",""
"2974","","<div style=""width:500px;"">
  <p>What determined the result of this run?</p>
  </div>","28","html-slider-response","50","644786","0.0-5.0-1.8","91","1","2025-07-16 09:28:23","1f75c3e559b7213887762d5229550c2b","84.71.171.94","Mozilla/5.0 (Windows NT 10.0; Win64; x64) AppleWebKit/537.36 (KHTML, like Gecko) Chrome/138.0.0.0 Safari/537.36 Edg/138.0.0.0","WebKit","Edge","138.0.0.0","Windows","10.0","https://app.prolific.com/","en-US,en;q=0.9,en-GB;q=0.8,ar;q=0.7,sq;q=0.6","676578b520552faa04a8ef83","686e379bc37a29ffa5cdc956","687770abca1824d28382de2d","1","1","676578b520552faa04a8ef83","1","1","2025-07-16T09:38:59.553Z","","","","","","","","","","","AttribQ","","50","","","","","","","","","","","","","","","","","","","","","","","","","","","","",""
"4012","","<div style=""width:500px;"">
  <p>How much control did you have over the ball?</p>
  </div>","4","html-slider-response","51","648807","0.0-5.0-2.8","91","1","2025-07-16 09:28:23","1f75c3e559b7213887762d5229550c2b","84.71.171.94","Mozilla/5.0 (Windows NT 10.0; Win64; x64) AppleWebKit/537.36 (KHTML, like Gecko) Chrome/138.0.0.0 Safari/537.36 Edg/138.0.0.0","WebKit","Edge","138.0.0.0","Windows","10.0","https://app.prolific.com/","en-US,en;q=0.9,en-GB;q=0.8,ar;q=0.7,sq;q=0.6","676578b520552faa04a8ef83","686e379bc37a29ffa5cdc956","687770abca1824d28382de2d","1","1","676578b520552faa04a8ef83","1","1","2025-07-16T09:39:03.573Z","","","","","","","","","","","ControlQ","","50","","","","","","","","","","","","","","","","","","","","","","","","","","","","",""
"3118","","<div style=""width:500px;"">
  <p>How would you describe your current emotional state?</p>
  </div>","72","html-slider-response","52","651926","0.0-5.0-3.8","91","1","2025-07-16 09:28:23","1f75c3e559b7213887762d5229550c2b","84.71.171.94","Mozilla/5.0 (Windows NT 10.0; Win64; x64) AppleWebKit/537.36 (KHTML, like Gecko) Chrome/138.0.0.0 Safari/537.36 Edg/138.0.0.0","WebKit","Edge","138.0.0.0","Windows","10.0","https://app.prolific.com/","en-US,en;q=0.9,en-GB;q=0.8,ar;q=0.7,sq;q=0.6","676578b520552faa04a8ef83","686e379bc37a29ffa5cdc956","687770abca1824d28382de2d","1","1","676578b520552faa04a8ef83","1","1","2025-07-16T09:39:06.692Z","","","","","","","","","","","StressQ","","50","","","","","","","","","","","","","","","","","","","","","","","","","","","","",""
"2975","","<div style=""width:500px;"">
  <p>What best describes how you currently feel?</p>
  </div>","13","html-slider-response","53","654903","0.0-5.0-4.8","91","1","2025-07-16 09:28:23","1f75c3e559b7213887762d5229550c2b","84.71.171.94","Mozilla/5.0 (Windows NT 10.0; Win64; x64) AppleWebKit/537.36 (KHTML, like Gecko) Chrome/138.0.0.0 Safari/537.36 Edg/138.0.0.0","WebKit","Edge","138.0.0.0","Windows","10.0","https://app.prolific.com/","en-US,en;q=0.9,en-GB;q=0.8,ar;q=0.7,sq;q=0.6","676578b520552faa04a8ef83","686e379bc37a29ffa5cdc956","687770abca1824d28382de2d","1","1","676578b520552faa04a8ef83","1","1","2025-07-16T09:39:09.669Z","","","","","","","","","","","MotivationQ","","50","","","","","","","","","","","","","","","","","","","","","","","","","","","","",""
"","","","","ctl-task-cpt","54","698492","0.0-5.0-0.9","91","1","2025-07-16 09:28:23","1f75c3e559b7213887762d5229550c2b","84.71.171.94","Mozilla/5.0 (Windows NT 10.0; Win64; x64) AppleWebKit/537.36 (KHTML, like Gecko) Chrome/138.0.0.0 Safari/537.36 Edg/138.0.0.0","WebKit","Edge","138.0.0.0","Windows","10.0","https://app.prolific.com/","en-US,en;q=0.9,en-GB;q=0.8,ar;q=0.7,sq;q=0.6","676578b520552faa04a8ef83","686e379bc37a29ffa5cdc956","687770abca1824d28382de2d","1","1","676578b520552faa04a8ef83","1","1","2025-07-16T09:39:53.258Z","","","","","","","","","","","","","","win-only","0","g1:NW,g2:SE","0.4","10","0","656600","1431.5","6436.7","40561.8","1","4","8","6","2","-8","-9","0","3","0","1682.8","3000","-2220","[""down"",""right""]","{""num_key_presses"":10,""num_perfect"":4,""num_errors"":1,""num_randdir"":5,""num_randdir_good_moves"":2,""num_whilered"":0,""num_whileblue"":1,""num_blue"":2,""num_good_moves"":7}","[327,314.60937309265137,0.3,327,314.60937309265137,105.2,327,314.60937309265137,213.8,327,314.60937309265137,321.3,327,314.60937309265137,421.8,327,314.60937309265137,525.7,327,314.60937309265137,631.5,327,314.60937309265137,737.3,327,314.60937309265137,843.2,388.5,371.60937309265137,951,489,487.10937309265137,1054.5,544.5,572.6093730926514,1160,544.5,572.6093730926514,1263.5,544.5,572.6093730926514,1370.5,574.5,589.1093730926514,1477.2,586.5,593.6093730926514,1579.3,586.5,593.6093730926514,1686.4,586.5,593.6093730926514,1797.1,586.5,593.6093730926514,1897.2,586.5,593.6093730926514,1999.5,586.5,593.6093730926514,2104.2,595.5,583.1093730926514,2204.2,708,457.10937309265137,2304.4,733.5,443.60937309265137,2405,733.5,443.60937309265137,2512.1,733.5,443.60937309265137,2612.3,733.5,443.60937309265137,2713.5,733.5,443.60937309265137,2818.5,733.5,443.60937309265137,2919.1,733.5,443.60937309265137,3028.4,733.5,443.60937309265137,3129.9,733.5,443.60937309265137,3232.5,733.5,443.60937309265137,3334.4,733.5,443.60937309265137,3443.6,733.5,443.60937309265137,3550.9,733.5,443.60937309265137,3654.2,733.5,443.60937309265137,3758.2,733.5,443.60937309265137,3860.2,733.5,443.60937309265137,3966.5,733.5,443.60937309265137,4072.9,733.5,443.60937309265137,4173.7,733.5,443.60937309265137,4280.1,733.5,443.60937309265137,4390.7,733.5,443.60937309265137,4499,733.5,443.60937309265137,4608.3,733.5,443.60937309265137,4709.4,733.5,443.60937309265137,4814.4,733.5,443.60937309265137,4918.4]","[1495.1,1495.1,1000,0,495.1,""smooth"",""down"",""down"",""good_move"",4532.3,3036.8,2451.8,1495.5,585,""smooth"",""down"",""down"",""good_move"",7826.7,3293.5,2894.1,4533.2,399.4,""oops"",""down"",""up"",""bad_move"",9993,2165.8,1633.1,7827.2,532.7,""smooth"",""down"",""down"",""good_move"",12460.2,2466.9,2034.9,9993.3,432,""oops"",""down"",""right"",""good_move"",15636,3175.4,2763.5,12460.6,411.9,""oops"",""down"",""up"",""bad_move"",18819.9,3183.6,2765.2,15636.3,418.4,""while_blue"",""down"",""down"",""good_move"",21519.5,2699.2,2336.2,18820.4,363,""oops"",""down"",""up"",""bad_move"",24035.6,2515.6,2113.4,21520,402.3,""oops"",""down"",""right"",""good_move"",31894,7857.7,3431,28059,404,""smooth"",""down"",""down"",""good_move""]","",""
"3251","","<div style=""width:500px;"">
  <p>What determined the result of this run?</p>
  </div>","6","html-slider-response","55","701748","0.0-5.0-1.9","91","1","2025-07-16 09:28:23","1f75c3e559b7213887762d5229550c2b","84.71.171.94","Mozilla/5.0 (Windows NT 10.0; Win64; x64) AppleWebKit/537.36 (KHTML, like Gecko) Chrome/138.0.0.0 Safari/537.36 Edg/138.0.0.0","WebKit","Edge","138.0.0.0","Windows","10.0","https://app.prolific.com/","en-US,en;q=0.9,en-GB;q=0.8,ar;q=0.7,sq;q=0.6","676578b520552faa04a8ef83","686e379bc37a29ffa5cdc956","687770abca1824d28382de2d","1","1","676578b520552faa04a8ef83","1","1","2025-07-16T09:39:56.514Z","","","","","","","","","","","AttribQ","","50","","","","","","","","","","","","","","","","","","","","","","","","","","","","",""
"2827","","<div style=""width:500px;"">
  <p>How much control did you have over the ball?</p>
  </div>","29","html-slider-response","56","704580","0.0-5.0-2.9","91","1","2025-07-16 09:28:23","1f75c3e559b7213887762d5229550c2b","84.71.171.94","Mozilla/5.0 (Windows NT 10.0; Win64; x64) AppleWebKit/537.36 (KHTML, like Gecko) Chrome/138.0.0.0 Safari/537.36 Edg/138.0.0.0","WebKit","Edge","138.0.0.0","Windows","10.0","https://app.prolific.com/","en-US,en;q=0.9,en-GB;q=0.8,ar;q=0.7,sq;q=0.6","676578b520552faa04a8ef83","686e379bc37a29ffa5cdc956","687770abca1824d28382de2d","1","1","676578b520552faa04a8ef83","1","1","2025-07-16T09:39:59.347Z","","","","","","","","","","","ControlQ","","50","","","","","","","","","","","","","","","","","","","","","","","","","","","","",""
"3827","","<div style=""width:500px;"">
  <p>How would you describe your current emotional state?</p>
  </div>","72","html-slider-response","57","708411","0.0-5.0-3.9","91","1","2025-07-16 09:28:23","1f75c3e559b7213887762d5229550c2b","84.71.171.94","Mozilla/5.0 (Windows NT 10.0; Win64; x64) AppleWebKit/537.36 (KHTML, like Gecko) Chrome/138.0.0.0 Safari/537.36 Edg/138.0.0.0","WebKit","Edge","138.0.0.0","Windows","10.0","https://app.prolific.com/","en-US,en;q=0.9,en-GB;q=0.8,ar;q=0.7,sq;q=0.6","676578b520552faa04a8ef83","686e379bc37a29ffa5cdc956","687770abca1824d28382de2d","1","1","676578b520552faa04a8ef83","1","1","2025-07-16T09:40:03.178Z","","","","","","","","","","","StressQ","","50","","","","","","","","","","","","","","","","","","","","","","","","","","","","",""
"3679","","<div style=""width:500px;"">
  <p>What best describes how you currently feel?</p>
  </div>","34","html-slider-response","58","712094","0.0-5.0-4.9","91","1","2025-07-16 09:28:23","1f75c3e559b7213887762d5229550c2b","84.71.171.94","Mozilla/5.0 (Windows NT 10.0; Win64; x64) AppleWebKit/537.36 (KHTML, like Gecko) Chrome/138.0.0.0 Safari/537.36 Edg/138.0.0.0","WebKit","Edge","138.0.0.0","Windows","10.0","https://app.prolific.com/","en-US,en;q=0.9,en-GB;q=0.8,ar;q=0.7,sq;q=0.6","676578b520552faa04a8ef83","686e379bc37a29ffa5cdc956","687770abca1824d28382de2d","1","1","676578b520552faa04a8ef83","1","1","2025-07-16T09:40:06.860Z","","","","","","","","","","","MotivationQ","","50","","","","","","","","","","","","","","","","","","","","","","","","","","","","",""
"","","","","ctl-task-cpt","59","756214","0.0-5.0-0.10","91","1","2025-07-16 09:28:23","1f75c3e559b7213887762d5229550c2b","84.71.171.94","Mozilla/5.0 (Windows NT 10.0; Win64; x64) AppleWebKit/537.36 (KHTML, like Gecko) Chrome/138.0.0.0 Safari/537.36 Edg/138.0.0.0","WebKit","Edge","138.0.0.0","Windows","10.0","https://app.prolific.com/","en-US,en;q=0.9,en-GB;q=0.8,ar;q=0.7,sq;q=0.6","676578b520552faa04a8ef83","686e379bc37a29ffa5cdc956","687770abca1824d28382de2d","1","1","676578b520552faa04a8ef83","1","1","2025-07-16T09:40:50.980Z","","","","","","","","","","","","","","win-only","3","g1:SW,g2:NE","0.5","11","0","713793.1","1346.9","6354.8","41096.2","1","4","4","6","1","1","1","1","0","0.007575757575757576","1471.6","3000","510","[""down"",""left""]","{""num_key_presses"":8,""num_perfect"":4,""num_errors"":0,""num_randdir"":4,""num_randdir_good_moves"":2,""num_whilered"":0,""num_whileblue"":0,""num_blue"":4,""num_good_moves"":6}","[316.5,317.60937309265137,0.4,316.5,317.60937309265137,109.1,316.5,317.60937309265137,215.6,316.5,317.60937309265137,317.6,316.5,317.60937309265137,422.5,316.5,317.60937309265137,524.6,316.5,317.60937309265137,632.5,345,272.60937309265137,736.1,349.5,266.60937309265137,843.5,222,403.10937309265137,948.9,123,482.60937309265137,1052.1,81,527.6093730926514,1157.2,67.5,554.6093730926514,1261.8,66,557.6093730926514,1364.2,66,557.6093730926514,1470.1,66,557.6093730926514,1570.6,66,557.6093730926514,1672.2,66,557.6093730926514,1774.1,66,557.6093730926514,1874.2,66,557.6093730926514,1977.8,66,557.6093730926514,2080.4,66,557.6093730926514,2186,66,557.6093730926514,2295.1,66,557.6093730926514,2395.4,66,557.6093730926514,2498.4,66,557.6093730926514,2605.8,66,557.6093730926514,2706.1,66,557.6093730926514,2813.3,66,557.6093730926514,2914.8,66,557.6093730926514,3015.8,66,557.6093730926514,3123,66,557.6093730926514,3223.3,66,557.6093730926514,3328.3,66,557.6093730926514,3430.4,66,557.6093730926514,3532.2,66,557.6093730926514,3633.5,66,557.6093730926514,3733.9,66,557.6093730926514,3835,66,557.6093730926514,3939.5,66,557.6093730926514,4051.4,66,557.6093730926514,4158.1,66,557.6093730926514,4264.2,66,557.6093730926514,4373,66,557.6093730926514,4478.8,66,557.6093730926514,4579.9,66,557.6093730926514,4680.2,66,557.6093730926514,4782.5,66,557.6093730926514,4882.5,66,557.6093730926514,4982.7]","[8131,8131,2685.1,5028.8,417.1,""smooth"",""down"",""down"",""good_move"",10820.6,2689,2052,8131.7,637,""oops"",""down"",""down"",""good_move"",13184.1,2363.1,1966,10821,397.1,""oops"",""left"",""up"",""bad_move"",16246.8,3062.3,2636.2,13184.5,426.1,""smooth"",""left"",""left"",""good_move"",22020.8,5773.7,1731.2,19783,506.6,""oops"",""left"",""left"",""good_move"",24956.2,2935.3,2494.8,22021,440.5,""oops"",""down"",""right"",""bad_move"",27586.2,2629,2189.8,24957.3,439.2,""smooth"",""down"",""down"",""good_move"",34593.3,7006.4,2806.6,31381.2,405.5,""smooth"",""left"",""left"",""good_move""]","",""
"3274","","<div style=""width:500px;"">
  <p>What determined the result of this run?</p>
  </div>","28","html-slider-response","60","759490","0.0-5.0-1.10","91","1","2025-07-16 09:28:23","1f75c3e559b7213887762d5229550c2b","84.71.171.94","Mozilla/5.0 (Windows NT 10.0; Win64; x64) AppleWebKit/537.36 (KHTML, like Gecko) Chrome/138.0.0.0 Safari/537.36 Edg/138.0.0.0","WebKit","Edge","138.0.0.0","Windows","10.0","https://app.prolific.com/","en-US,en;q=0.9,en-GB;q=0.8,ar;q=0.7,sq;q=0.6","676578b520552faa04a8ef83","686e379bc37a29ffa5cdc956","687770abca1824d28382de2d","1","1","676578b520552faa04a8ef83","1","1","2025-07-16T09:40:54.256Z","","","","","","","","","","","AttribQ","","50","","","","","","","","","","","","","","","","","","","","","","","","","","","","",""
"3792","","<div style=""width:500px;"">
  <p>How much control did you have over the ball?</p>
  </div>","35","html-slider-response","61","763283","0.0-5.0-2.10","91","1","2025-07-16 09:28:23","1f75c3e559b7213887762d5229550c2b","84.71.171.94","Mozilla/5.0 (Windows NT 10.0; Win64; x64) AppleWebKit/537.36 (KHTML, like Gecko) Chrome/138.0.0.0 Safari/537.36 Edg/138.0.0.0","WebKit","Edge","138.0.0.0","Windows","10.0","https://app.prolific.com/","en-US,en;q=0.9,en-GB;q=0.8,ar;q=0.7,sq;q=0.6","676578b520552faa04a8ef83","686e379bc37a29ffa5cdc956","687770abca1824d28382de2d","1","1","676578b520552faa04a8ef83","1","1","2025-07-16T09:40:58.049Z","","","","","","","","","","","ControlQ","","50","","","","","","","","","","","","","","","","","","","","","","","","","","","","",""
"3671","","<div style=""width:500px;"">
  <p>How would you describe your current emotional state?</p>
  </div>","69","html-slider-response","62","766955","0.0-5.0-3.10","91","1","2025-07-16 09:28:23","1f75c3e559b7213887762d5229550c2b","84.71.171.94","Mozilla/5.0 (Windows NT 10.0; Win64; x64) AppleWebKit/537.36 (KHTML, like Gecko) Chrome/138.0.0.0 Safari/537.36 Edg/138.0.0.0","WebKit","Edge","138.0.0.0","Windows","10.0","https://app.prolific.com/","en-US,en;q=0.9,en-GB;q=0.8,ar;q=0.7,sq;q=0.6","676578b520552faa04a8ef83","686e379bc37a29ffa5cdc956","687770abca1824d28382de2d","1","1","676578b520552faa04a8ef83","1","1","2025-07-16T09:41:01.722Z","","","","","","","","","","","StressQ","","50","","","","","","","","","","","","","","","","","","","","","","","","","","","","",""
"3587","","<div style=""width:500px;"">
  <p>What best describes how you currently feel?</p>
  </div>","31","html-slider-response","63","770544","0.0-5.0-4.10","91","1","2025-07-16 09:28:23","1f75c3e559b7213887762d5229550c2b","84.71.171.94","Mozilla/5.0 (Windows NT 10.0; Win64; x64) AppleWebKit/537.36 (KHTML, like Gecko) Chrome/138.0.0.0 Safari/537.36 Edg/138.0.0.0","WebKit","Edge","138.0.0.0","Windows","10.0","https://app.prolific.com/","en-US,en;q=0.9,en-GB;q=0.8,ar;q=0.7,sq;q=0.6","676578b520552faa04a8ef83","686e379bc37a29ffa5cdc956","687770abca1824d28382de2d","1","1","676578b520552faa04a8ef83","1","1","2025-07-16T09:41:05.310Z","","","","","","","","","","","MotivationQ","","50","","","","","","","","","","","","","","","","","","","","","","","","","","","","",""
"","","","","ctl-task-cpt","64","793020","0.0-5.0-0.11","91","1","2025-07-16 09:28:23","1f75c3e559b7213887762d5229550c2b","84.71.171.94","Mozilla/5.0 (Windows NT 10.0; Win64; x64) AppleWebKit/537.36 (KHTML, like Gecko) Chrome/138.0.0.0 Safari/537.36 Edg/138.0.0.0","WebKit","Edge","138.0.0.0","Windows","10.0","https://app.prolific.com/","en-US,en;q=0.9,en-GB;q=0.8,ar;q=0.7,sq;q=0.6","676578b520552faa04a8ef83","686e379bc37a29ffa5cdc956","687770abca1824d28382de2d","1","1","676578b520552faa04a8ef83","1","1","2025-07-16T09:41:27.786Z","","","","","","","","","","","","","","win-only","0","g1:NW,g2:SE","0.6","12","0","772241.7","2581.4","7586.7","19454","1","4","8","6","1","1","1","2","1","0.015151515151515152","1862.6","3000","1510","[""left"",""up""]","{""num_key_presses"":4,""num_perfect"":2,""num_errors"":0,""num_randdir"":2,""num_randdir_good_moves"":2,""num_whilered"":0,""num_whileblue"":0,""num_blue"":0,""num_good_moves"":4}","[325.5,320.60937309265137,0.3,325.5,320.60937309265137,101.6,325.5,320.60937309265137,204.7,325.5,320.60937309265137,326.7,325.5,320.60937309265137,431.6,325.5,320.60937309265137,537.5,325.5,320.60937309265137,641.4,325.5,320.60937309265137,745.8,325.5,320.60937309265137,847.2,325.5,320.60937309265137,957.1,328.5,320.60937309265137,1069.5,328.5,320.60937309265137,1176.8,168,238.10937309265137,1279.6,15,32.60937309265137,1381,12,2.609373092651367,1486.3,13.5,2.609373092651367,1589.3,45,53.60937309265137,1696.1,48,59.60937309265137,1800.5,48,59.60937309265137,1905.7,48,59.60937309265137,2007,48,59.60937309265137,2110.2,48,59.60937309265137,2215.2,48,59.60937309265137,2318.1,48,59.60937309265137,2418.5,48,59.60937309265137,2520.5,48,59.60937309265137,2634.3,48,59.60937309265137,2744.5,48,59.60937309265137,2845.1,48,59.60937309265137,2946.1,48,59.60937309265137,3055,48,59.60937309265137,3161.4,48,59.60937309265137,3264.9,48,59.60937309265137,3365.5,48,59.60937309265137,3472.4,48,59.60937309265137,3577.3,48,59.60937309265137,3679.5,48,59.60937309265137,3782.7,48,59.60937309265137,3886,48,59.60937309265137,3993,48,59.60937309265137,4099.8,48,59.60937309265137,4200,48,59.60937309265137,4302.3,48,59.60937309265137,4403,48,59.60937309265137,4515.6,48,59.60937309265137,4621.4,48,59.60937309265137,4727.3,48,59.60937309265137,4829.1,48,59.60937309265137,4929.8]","[2000.6,2000.6,1000,0,1000.6,""oops"",""up"",""up"",""good_move"",5413.9,3412.8,2974.9,2001.1,437.9,""oops"",""up"",""left"",""good_move"",9115.7,3701.4,3284.9,5414.3,416.5,""smooth"",""up"",""up"",""good_move"",11752.5,2636.3,2227.9,9116.2,408.4,""smooth"",""left"",""left"",""good_move""]","",""
"5575","","<div style=""width:500px;"">
  <p>What determined the result of this run?</p>
  </div>","31","html-slider-response","65","798597","0.0-5.0-1.11","91","1","2025-07-16 09:28:23","1f75c3e559b7213887762d5229550c2b","84.71.171.94","Mozilla/5.0 (Windows NT 10.0; Win64; x64) AppleWebKit/537.36 (KHTML, like Gecko) Chrome/138.0.0.0 Safari/537.36 Edg/138.0.0.0","WebKit","Edge","138.0.0.0","Windows","10.0","https://app.prolific.com/","en-US,en;q=0.9,en-GB;q=0.8,ar;q=0.7,sq;q=0.6","676578b520552faa04a8ef83","686e379bc37a29ffa5cdc956","687770abca1824d28382de2d","1","1","676578b520552faa04a8ef83","1","1","2025-07-16T09:41:33.363Z","","","","","","","","","","","AttribQ","","50","","","","","","","","","","","","","","","","","","","","","","","","","","","","",""
"3347","","<div style=""width:500px;"">
  <p>How much control did you have over the ball?</p>
  </div>","85","html-slider-response","66","801945","0.0-5.0-2.11","91","1","2025-07-16 09:28:23","1f75c3e559b7213887762d5229550c2b","84.71.171.94","Mozilla/5.0 (Windows NT 10.0; Win64; x64) AppleWebKit/537.36 (KHTML, like Gecko) Chrome/138.0.0.0 Safari/537.36 Edg/138.0.0.0","WebKit","Edge","138.0.0.0","Windows","10.0","https://app.prolific.com/","en-US,en;q=0.9,en-GB;q=0.8,ar;q=0.7,sq;q=0.6","676578b520552faa04a8ef83","686e379bc37a29ffa5cdc956","687770abca1824d28382de2d","1","1","676578b520552faa04a8ef83","1","1","2025-07-16T09:41:36.711Z","","","","","","","","","","","ControlQ","","50","","","","","","","","","","","","","","","","","","","","","","","","","","","","",""
"3323","","<div style=""width:500px;"">
  <p>How would you describe your current emotional state?</p>
  </div>","80","html-slider-response","67","805270","0.0-5.0-3.11","91","1","2025-07-16 09:28:23","1f75c3e559b7213887762d5229550c2b","84.71.171.94","Mozilla/5.0 (Windows NT 10.0; Win64; x64) AppleWebKit/537.36 (KHTML, like Gecko) Chrome/138.0.0.0 Safari/537.36 Edg/138.0.0.0","WebKit","Edge","138.0.0.0","Windows","10.0","https://app.prolific.com/","en-US,en;q=0.9,en-GB;q=0.8,ar;q=0.7,sq;q=0.6","676578b520552faa04a8ef83","686e379bc37a29ffa5cdc956","687770abca1824d28382de2d","1","1","676578b520552faa04a8ef83","1","1","2025-07-16T09:41:40.036Z","","","","","","","","","","","StressQ","","50","","","","","","","","","","","","","","","","","","","","","","","","","","","","",""
"4926","","<div style=""width:500px;"">
  <p>What best describes how you currently feel?</p>
  </div>","4","html-slider-response","68","810202","0.0-5.0-4.11","91","1","2025-07-16 09:28:23","1f75c3e559b7213887762d5229550c2b","84.71.171.94","Mozilla/5.0 (Windows NT 10.0; Win64; x64) AppleWebKit/537.36 (KHTML, like Gecko) Chrome/138.0.0.0 Safari/537.36 Edg/138.0.0.0","WebKit","Edge","138.0.0.0","Windows","10.0","https://app.prolific.com/","en-US,en;q=0.9,en-GB;q=0.8,ar;q=0.7,sq;q=0.6","676578b520552faa04a8ef83","686e379bc37a29ffa5cdc956","687770abca1824d28382de2d","1","1","676578b520552faa04a8ef83","1","1","2025-07-16T09:41:44.968Z","","","","","","","","","","","MotivationQ","","50","","","","","","","","","","","","","","","","","","","","","","","","","","","","",""
"","","","","ctl-task-cpt","69","867135","0.0-5.0-0.12","91","1","2025-07-16 09:28:23","1f75c3e559b7213887762d5229550c2b","84.71.171.94","Mozilla/5.0 (Windows NT 10.0; Win64; x64) AppleWebKit/537.36 (KHTML, like Gecko) Chrome/138.0.0.0 Safari/537.36 Edg/138.0.0.0","WebKit","Edge","138.0.0.0","Windows","10.0","https://app.prolific.com/","en-US,en;q=0.9,en-GB;q=0.8,ar;q=0.7,sq;q=0.6","676578b520552faa04a8ef83","686e379bc37a29ffa5cdc956","687770abca1824d28382de2d","1","1","676578b520552faa04a8ef83","1","1","2025-07-16T09:42:41.901Z","","","","","","","","","","","","","","win-only","0","g1:NW,g2:SE","0.7","13","0","811906.4","2254.4","7260.4","53904","1","4","4","6","1","1","1","3","2","0.022727272727272728","1848.2","3000","295","[""left"",""up""]","{""num_key_presses"":8,""num_perfect"":6,""num_errors"":0,""num_randdir"":2,""num_randdir_good_moves"":0,""num_whilered"":0,""num_whileblue"":0,""num_blue"":7,""num_good_moves"":6}","[322.5,317.60937309265137,0.2,322.5,317.60937309265137,101.1,322.5,317.60937309265137,209.8,322.5,317.60937309265137,328.5,322.5,317.60937309265137,432.7,322.5,317.60937309265137,534.1,322.5,317.60937309265137,635.1,322.5,317.60937309265137,744.4,322.5,317.60937309265137,849.4,409.5,407.60937309265137,952.1,433.5,443.60937309265137,1052.1,327,346.10937309265137,1154.9,102,146.60937309265137,1255.4,81,103.10937309265137,1360.5,81,101.60937309265137,1461.7,76.5,97.10937309265137,1567.2,63,83.60937309265137,1674.4,63,83.60937309265137,1782.5,63,83.60937309265137,1892.3,63,83.60937309265137,1994.1,63,83.60937309265137,2095.2,63,83.60937309265137,2200.7,63,83.60937309265137,2305.1,63,83.60937309265137,2406.4,63,83.60937309265137,2515.2,102,167.60937309265137,2619.4,130.5,230.60937309265137,2720,135,238.10937309265137,2825.2,135,238.10937309265137,2939.1,135,238.10937309265137,3046.3,135,238.10937309265137,3146.7,135,238.10937309265137,3253.6,135,238.10937309265137,3363.2,135,238.10937309265137,3472.2,135,238.10937309265137,3577.3,135,238.10937309265137,3680.1,135,238.10937309265137,3786.4,135,238.10937309265137,3890.3,135,238.10937309265137,3993.9,135,238.10937309265137,4100.7,135,238.10937309265137,4203.2,135,238.10937309265137,4305.5,135,238.10937309265137,4406.2,135,238.10937309265137,4513.7,135,238.10937309265137,4613.8,135,238.10937309265137,4714.2,135,238.10937309265137,4820.9,135,238.10937309265137,4921]","[4902.7,4902.7,2466.6,2002.4,433.7,""smooth"",""up"",""up"",""good_move"",7360.3,2456.3,1972.8,4904,483.5,""oops"",""up"",""right"",""bad_move"",10111.9,2751.2,2381.9,7360.7,369.3,""smooth"",""up"",""up"",""good_move"",24307.4,14195.2,2860.2,20996.4,450.8,""smooth"",""left"",""left"",""good_move"",27583,3275.4,2364.7,24307.8,910.6,""smooth"",""left"",""left"",""good_move"",40379.4,12796,2825.9,37063,490.5,""oops"",""left"",""down"",""bad_move"",43647.1,3266.5,2715.3,40380.6,551.2,""smooth"",""left"",""left"",""good_move"",46495.2,2847.6,2329.4,43647.6,518.2,""smooth"",""up"",""up"",""good_move""]","",""
"3246","","<div style=""width:500px;"">
  <p>What determined the result of this run?</p>
  </div>","21","html-slider-response","70","870385","0.0-5.0-1.12","91","1","2025-07-16 09:28:23","1f75c3e559b7213887762d5229550c2b","84.71.171.94","Mozilla/5.0 (Windows NT 10.0; Win64; x64) AppleWebKit/537.36 (KHTML, like Gecko) Chrome/138.0.0.0 Safari/537.36 Edg/138.0.0.0","WebKit","Edge","138.0.0.0","Windows","10.0","https://app.prolific.com/","en-US,en;q=0.9,en-GB;q=0.8,ar;q=0.7,sq;q=0.6","676578b520552faa04a8ef83","686e379bc37a29ffa5cdc956","687770abca1824d28382de2d","1","1","676578b520552faa04a8ef83","1","1","2025-07-16T09:42:45.151Z","","","","","","","","","","","AttribQ","","50","","","","","","","","","","","","","","","","","","","","","","","","","","","","",""
"4599","","<div style=""width:500px;"">
  <p>How much control did you have over the ball?</p>
  </div>","31","html-slider-response","71","874989","0.0-5.0-2.12","91","1","2025-07-16 09:28:23","1f75c3e559b7213887762d5229550c2b","84.71.171.94","Mozilla/5.0 (Windows NT 10.0; Win64; x64) AppleWebKit/537.36 (KHTML, like Gecko) Chrome/138.0.0.0 Safari/537.36 Edg/138.0.0.0","WebKit","Edge","138.0.0.0","Windows","10.0","https://app.prolific.com/","en-US,en;q=0.9,en-GB;q=0.8,ar;q=0.7,sq;q=0.6","676578b520552faa04a8ef83","686e379bc37a29ffa5cdc956","687770abca1824d28382de2d","1","1","676578b520552faa04a8ef83","1","1","2025-07-16T09:42:49.756Z","","","","","","","","","","","ControlQ","","50","","","","","","","","","","","","","","","","","","","","","","","","","","","","",""
"3425","","<div style=""width:500px;"">
  <p>How would you describe your current emotional state?</p>
  </div>","70","html-slider-response","72","878422","0.0-5.0-3.12","91","1","2025-07-16 09:28:23","1f75c3e559b7213887762d5229550c2b","84.71.171.94","Mozilla/5.0 (Windows NT 10.0; Win64; x64) AppleWebKit/537.36 (KHTML, like Gecko) Chrome/138.0.0.0 Safari/537.36 Edg/138.0.0.0","WebKit","Edge","138.0.0.0","Windows","10.0","https://app.prolific.com/","en-US,en;q=0.9,en-GB;q=0.8,ar;q=0.7,sq;q=0.6","676578b520552faa04a8ef83","686e379bc37a29ffa5cdc956","687770abca1824d28382de2d","1","1","676578b520552faa04a8ef83","1","1","2025-07-16T09:42:53.188Z","","","","","","","","","","","StressQ","","50","","","","","","","","","","","","","","","","","","","","","","","","","","","","",""
"3064","","<div style=""width:500px;"">
  <p>What best describes how you currently feel?</p>
  </div>","4","html-slider-response","73","881491","0.0-5.0-4.12","91","1","2025-07-16 09:28:23","1f75c3e559b7213887762d5229550c2b","84.71.171.94","Mozilla/5.0 (Windows NT 10.0; Win64; x64) AppleWebKit/537.36 (KHTML, like Gecko) Chrome/138.0.0.0 Safari/537.36 Edg/138.0.0.0","WebKit","Edge","138.0.0.0","Windows","10.0","https://app.prolific.com/","en-US,en;q=0.9,en-GB;q=0.8,ar;q=0.7,sq;q=0.6","676578b520552faa04a8ef83","686e379bc37a29ffa5cdc956","687770abca1824d28382de2d","1","1","676578b520552faa04a8ef83","1","1","2025-07-16T09:42:56.257Z","","","","","","","","","","","MotivationQ","","50","","","","","","","","","","","","","","","","","","","","","","","","","","","","",""
"","","","","ctl-task-cpt","74","933692","0.0-5.0-0.13","91","1","2025-07-16 09:28:23","1f75c3e559b7213887762d5229550c2b","84.71.171.94","Mozilla/5.0 (Windows NT 10.0; Win64; x64) AppleWebKit/537.36 (KHTML, like Gecko) Chrome/138.0.0.0 Safari/537.36 Edg/138.0.0.0","WebKit","Edge","138.0.0.0","Windows","10.0","https://app.prolific.com/","en-US,en;q=0.9,en-GB;q=0.8,ar;q=0.7,sq;q=0.6","676578b520552faa04a8ef83","686e379bc37a29ffa5cdc956","687770abca1824d28382de2d","1","1","676578b520552faa04a8ef83","1","1","2025-07-16T09:43:48.458Z","","","","","","","","","","","","","","win-only","2","g1:SE,g2:NW","0.8","14","0","883189.1","25422.9","30432","49184.9","1","4","8","6","2","8","8","11","3","0.08333333333333333","1888.8","3000","1355","[""left"",""up""]","{""num_key_presses"":6,""num_perfect"":5,""num_errors"":0,""num_randdir"":1,""num_randdir_good_moves"":1,""num_whilered"":0,""num_whileblue"":0,""num_blue"":1,""num_good_moves"":6}","[333,322.10937309265137,0.3,333,322.10937309265137,102.1,333,322.10937309265137,202.1,333,322.10937309265137,311.6,333,322.10937309265137,414.6,333,322.10937309265137,522.3,333,322.10937309265137,622.8,333,322.10937309265137,728.9,333,322.10937309265137,832.9,333,322.10937309265137,935.9,367.5,454.10937309265137,1044.5,364.5,461.60937309265137,1153.1,180,31.109373092651367,1255.5,85.5,-54.39062690734863,1360.6,66,-39.39062690734863,1471.7,46.5,20.609373092651367,1576.8,48,38.60937309265137,1679.4,48,38.60937309265137,1783.4,48,38.60937309265137,1888.3,48,38.60937309265137,1991.3,48,38.60937309265137,2100.7,48,38.60937309265137,2208.4,48,38.60937309265137,2313.1,48,38.60937309265137,2421.1,48,38.60937309265137,2522.9,190.5,206.60937309265137,2628.6,247.5,230.60937309265137,2732.1,247.5,230.60937309265137,2839.7,247.5,230.60937309265137,2939.7,247.5,230.60937309265137,3043.4,247.5,230.60937309265137,3144.6,247.5,230.60937309265137,3244.6,247.5,230.60937309265137,3345.8,247.5,230.60937309265137,3446,247.5,230.60937309265137,3557.9,247.5,230.60937309265137,3662.6,247.5,230.60937309265137,3768.4,247.5,230.60937309265137,3872.6,247.5,230.60937309265137,3977.3,247.5,230.60937309265137,4077.8,247.5,230.60937309265137,4179.7,247.5,230.60937309265137,4293,247.5,230.60937309265137,4398.4,247.5,230.60937309265137,4499.4,247.5,230.60937309265137,4605.5,247.5,230.60937309265137,4708.1,247.5,230.60937309265137,4808.7,247.5,230.60937309265137,4915.3]","[4950.1,4950.1,2471.8,2015.4,462.9,""smooth"",""up"",""up"",""good_move"",7179.6,2228.6,1779.2,4951.1,449.3,""smooth"",""up"",""up"",""good_move"",9993,2813.2,2356.6,7179.9,456.6,""smooth"",""up"",""up"",""good_move"",12795.8,2802.4,2397.9,9993.4,404.5,""smooth"",""left"",""left"",""good_move"",15692.4,2896,2405.9,12796.4,490.1,""smooth"",""left"",""left"",""good_move"",18609.6,2917.1,2490.1,15692.5,427,""oops"",""left"",""left"",""good_move""]","",""
"2794","","<div style=""width:500px;"">
  <p>What determined the result of this run?</p>
  </div>","6","html-slider-response","75","936489","0.0-5.0-1.13","91","1","2025-07-16 09:28:23","1f75c3e559b7213887762d5229550c2b","84.71.171.94","Mozilla/5.0 (Windows NT 10.0; Win64; x64) AppleWebKit/537.36 (KHTML, like Gecko) Chrome/138.0.0.0 Safari/537.36 Edg/138.0.0.0","WebKit","Edge","138.0.0.0","Windows","10.0","https://app.prolific.com/","en-US,en;q=0.9,en-GB;q=0.8,ar;q=0.7,sq;q=0.6","676578b520552faa04a8ef83","686e379bc37a29ffa5cdc956","687770abca1824d28382de2d","1","1","676578b520552faa04a8ef83","1","1","2025-07-16T09:43:51.255Z","","","","","","","","","","","AttribQ","","50","","","","","","","","","","","","","","","","","","","","","","","","","","","","",""
"5617","","<div style=""width:500px;"">
  <p>How much control did you have over the ball?</p>
  </div>","99","html-slider-response","76","942107","0.0-5.0-2.13","91","1","2025-07-16 09:28:23","1f75c3e559b7213887762d5229550c2b","84.71.171.94","Mozilla/5.0 (Windows NT 10.0; Win64; x64) AppleWebKit/537.36 (KHTML, like Gecko) Chrome/138.0.0.0 Safari/537.36 Edg/138.0.0.0","WebKit","Edge","138.0.0.0","Windows","10.0","https://app.prolific.com/","en-US,en;q=0.9,en-GB;q=0.8,ar;q=0.7,sq;q=0.6","676578b520552faa04a8ef83","686e379bc37a29ffa5cdc956","687770abca1824d28382de2d","1","1","676578b520552faa04a8ef83","1","1","2025-07-16T09:43:56.873Z","","","","","","","","","","","ControlQ","","50","","","","","","","","","","","","","","","","","","","","","","","","","","","","",""
"3890","","<div style=""width:500px;"">
  <p>How would you describe your current emotional state?</p>
  </div>","73","html-slider-response","77","945999","0.0-5.0-3.13","91","1","2025-07-16 09:28:23","1f75c3e559b7213887762d5229550c2b","84.71.171.94","Mozilla/5.0 (Windows NT 10.0; Win64; x64) AppleWebKit/537.36 (KHTML, like Gecko) Chrome/138.0.0.0 Safari/537.36 Edg/138.0.0.0","WebKit","Edge","138.0.0.0","Windows","10.0","https://app.prolific.com/","en-US,en;q=0.9,en-GB;q=0.8,ar;q=0.7,sq;q=0.6","676578b520552faa04a8ef83","686e379bc37a29ffa5cdc956","687770abca1824d28382de2d","1","1","676578b520552faa04a8ef83","1","1","2025-07-16T09:44:00.765Z","","","","","","","","","","","StressQ","","50","","","","","","","","","","","","","","","","","","","","","","","","","","","","",""
"3632","","<div style=""width:500px;"">
  <p>What best describes how you currently feel?</p>
  </div>","21","html-slider-response","78","949635","0.0-5.0-4.13","91","1","2025-07-16 09:28:23","1f75c3e559b7213887762d5229550c2b","84.71.171.94","Mozilla/5.0 (Windows NT 10.0; Win64; x64) AppleWebKit/537.36 (KHTML, like Gecko) Chrome/138.0.0.0 Safari/537.36 Edg/138.0.0.0","WebKit","Edge","138.0.0.0","Windows","10.0","https://app.prolific.com/","en-US,en;q=0.9,en-GB;q=0.8,ar;q=0.7,sq;q=0.6","676578b520552faa04a8ef83","686e379bc37a29ffa5cdc956","687770abca1824d28382de2d","1","1","676578b520552faa04a8ef83","1","1","2025-07-16T09:44:04.402Z","","","","","","","","","","","MotivationQ","","50","","","","","","","","","","","","","","","","","","","","","","","","","","","","",""
"","","","","ctl-task-cpt","79","983713","0.0-5.0-0.14","91","1","2025-07-16 09:28:23","1f75c3e559b7213887762d5229550c2b","84.71.171.94","Mozilla/5.0 (Windows NT 10.0; Win64; x64) AppleWebKit/537.36 (KHTML, like Gecko) Chrome/138.0.0.0 Safari/537.36 Edg/138.0.0.0","WebKit","Edge","138.0.0.0","Windows","10.0","https://app.prolific.com/","en-US,en;q=0.9,en-GB;q=0.8,ar;q=0.7,sq;q=0.6","676578b520552faa04a8ef83","686e379bc37a29ffa5cdc956","687770abca1824d28382de2d","1","1","676578b520552faa04a8ef83","1","1","2025-07-16T09:44:38.479Z","","","","","","","","","","","","","","win-only","2","g1:SE,g2:NW","0.9","15","0","951341.7","8796.2","13798.8","31048.4","1","4","4","6","1","1","1","12","11","0.09090909090909091","2488.7","3000","1640","[""down"",""right""]","{""num_key_presses"":4,""num_perfect"":4,""num_errors"":0,""num_randdir"":0,""num_randdir_good_moves"":0,""num_whilered"":0,""num_whileblue"":0,""num_blue"":2,""num_good_moves"":4}","[324,320.60937309265137,0.6,324,320.60937309265137,104,324,320.60937309265137,206.6,324,320.60937309265137,310.6,324,320.60937309265137,410.9,324,320.60937309265137,515.6,324,320.60937309265137,620.1,324,320.60937309265137,723,315,322.10937309265137,823.8,193.5,304.10937309265137,925.2,84,182.60937309265137,1027.1,69,95.60937309265137,1133.8,60,59.60937309265137,1243.8,25.5,43.10937309265137,1350.7,19.5,43.10937309265137,1456.2,19.5,43.10937309265137,1564.1,19.5,43.10937309265137,1670.5,75,83.60937309265137,1775.3,531,602.6093730926514,1882.5,531,602.6093730926514,1996,531,602.6093730926514,2107.5,549,596.6093730926514,2210.9,610.5,575.6093730926514,2314.1,610.5,575.6093730926514,2423,610.5,575.6093730926514,2526.3,610.5,575.6093730926514,2627.7,610.5,575.6093730926514,2729.5,610.5,575.6093730926514,2837.9,610.5,575.6093730926514,2940.7,610.5,575.6093730926514,3050.4,610.5,575.6093730926514,3150.4,610.5,575.6093730926514,3257.6,610.5,575.6093730926514,3358,573,487.10937309265137,3463.1,567,464.60937309265137,3568,567,464.60937309265137,3670.8,567,464.60937309265137,3783.8,567,464.60937309265137,3886,567,464.60937309265137,3990.9,567,464.60937309265137,4092.8,567,464.60937309265137,4196.7,567,464.60937309265137,4297.6,567,464.60937309265137,4404.8,567,464.60937309265137,4511.4,567,464.60937309265137,4623.9,567,464.60937309265137,4732.8,567,464.60937309265137,4838.7,567,464.60937309265137,4954.7]","[1554.8,1554.8,1000,0,554.8,""smooth"",""down"",""down"",""good_move"",7946.9,6391.2,2303.3,5161.5,482.1,""smooth"",""down"",""down"",""good_move"",10936.1,2988.2,2086.4,7947.9,901.9,""smooth"",""right"",""right"",""good_move"",17107.8,6171.1,2475.3,14213.9,418.6,""smooth"",""right"",""right"",""good_move""]","",""
"4187","","<div style=""width:500px;"">
  <p>What determined the result of this run?</p>
