"rt","response_timestamp","stimulus","response","trial_type","trial_index","time_elapsed","internal_node_id","run_id","condition","recorded_at","source_code_version","ip","user_agent","device","browser","browser_version","platform","platform_version","referer","accept_language","PROLIFIC_PID","STUDY_ID","SESSION_ID","WEEK","BATCH","prolific_id","week","batch","realtime","success","responses","item_order","radio_event_ids","radio_event_times","key_event_times","mouse_event_times","straightlining","zigzagging","honeypot","eventType","view_history","slider_start","which_type","canvas_config","goals_layout","control_level","trial_number","tutorial_trial_number","trial_start_time","phase1_start_time","phase2_start_time","phase3_start_time","goal_1_value","goal_1_distance","goal_2_value","goal_2_distance","goal_selected","outcome","outcome_total","participant_final_score","participant_initial_score","participant_final_score_prop","goal_choice_rt","allocated_time","allocated_time_remaining","goal_direction","counts","mouse_movements","key_presses","question_order","question_id"
"192706","1753253725568","<p style='font-size:40px;line-height:1.25'><strong>Welcome to the experiment!</strong></p><p style='font-size:1.1em;line-height:1.25'>Thank you for participanting in our experiment again! You will be asked to play the Dysfunctional Ball Game again. We will briefly recap the rules before we start.</p><p style='font-size:1.1em;line-height:1.25'>Press <strong>Next</strong> to continue.</p>","0","custom-html-button-response","0","192710","0.0-0.0","164","1","2025-07-23 06:52:11","1f75c3e559b7213887762d5229550c2b","165.165.217.98","Mozilla/5.0 (Windows NT 10.0; Win64; x64) AppleWebKit/537.36 (KHTML, like Gecko) Chrome/138.0.0.0 Safari/537.36","WebKit","Chrome","138.0.0.0","Windows","10.0","https://app.prolific.com/","en-US,en;q=0.9","665f10dc49cd980fdf304c19","683dba2a8a9dda3513610c04","6880867d98e0fcffcc3c7c6a","3","0","665f10dc49cd980fdf304c19","3","0","2025-07-23T06:55:25.569Z","","","","","","","","","","","","","","","","","","","","","","","","","","","","","","","","","","","","","","","","","",""
"4406","","","","fullscreen","1","198124","0.0-1.0","164","1","2025-07-23 06:52:11","1f75c3e559b7213887762d5229550c2b","165.165.217.98","Mozilla/5.0 (Windows NT 10.0; Win64; x64) AppleWebKit/537.36 (KHTML, like Gecko) Chrome/138.0.0.0 Safari/537.36","WebKit","Chrome","138.0.0.0","Windows","10.0","https://app.prolific.com/","en-US,en;q=0.9","665f10dc49cd980fdf304c19","683dba2a8a9dda3513610c04","6880867d98e0fcffcc3c7c6a","3","0","665f10dc49cd980fdf304c19","3","0","","true","","","","","","","","","","","","","","","","","","","","","","","","","","","","","","","","","","","","","","","","",""
"554652","1753254285635","<p style='font-size:1.1em;line-height:1.25'>In the following, we will ask you a few questions relating to your feelings in the last 24 hours.<br></p><p style='font-size:1.1em;line-height:1.25'>Press the <strong>Next</strong> button to continue.</p>","0","custom-html-button-response","2","752777","0.0-2.0-0.0","164","1","2025-07-23 06:52:11","1f75c3e559b7213887762d5229550c2b","165.165.217.98","Mozilla/5.0 (Windows NT 10.0; Win64; x64) AppleWebKit/537.36 (KHTML, like Gecko) Chrome/138.0.0.0 Safari/537.36","WebKit","Chrome","138.0.0.0","Windows","10.0","https://app.prolific.com/","en-US,en;q=0.9","665f10dc49cd980fdf304c19","683dba2a8a9dda3513610c04","6880867d98e0fcffcc3c7c6a","3","0","665f10dc49cd980fdf304c19","3","0","2025-07-23T07:04:45.638Z","","","","","","","","","","","","","","","","","","","","","","","","","","","","","","","","","","","","","","","","","",""
"95555.70000000298","","","","survey-template","3","848357","0.0-2.0-1.0","164","1","2025-07-23 06:52:11","1f75c3e559b7213887762d5229550c2b","165.165.217.98","Mozilla/5.0 (Windows NT 10.0; Win64; x64) AppleWebKit/537.36 (KHTML, like Gecko) Chrome/138.0.0.0 Safari/537.36","WebKit","Chrome","138.0.0.0","Windows","10.0","https://app.prolific.com/","en-US,en;q=0.9","665f10dc49cd980fdf304c19","683dba2a8a9dda3513610c04","6880867d98e0fcffcc3c7c6a","3","0","665f10dc49cd980fdf304c19","3","0","2025-07-23T07:06:21.217Z","","{""Q01"":""1"",""Q02"":""0"",""Q03"":""4"",""Q04"":""3"",""Q05"":""1"",""Q06"":""2"",""Q07"":""1"",""Q08"":""1"",""Q09"":""2"",""Q10"":""1"",""Q11"":""3"",""Q12"":""1"",""Q13"":""5"",""Q14"":""1"",""Q15"":""0"",""Q16"":""1"",""Q17"":""2"",""Q18"":""2"",""Q19"":""0"",""Q20"":""0"",""Q21"":""0"",""Q22"":""1""}","[0,1,2,3,4,5,6,7,8,9,10,11,12,13,14,15,16,17,18,19,20,21]","[""Q01"",""Q02"",""Q03"",""Q04"",""Q05"",""Q06"",""Q07"",""Q08"",""Q09"",""Q10"",""Q11"",""Q12"",""Q13"",""Q14"",""Q15"",""Q16"",""Q17"",""Q18"",""Q19"",""Q20"",""Q21"",""Q22""]","[4389.79999999702,5893.29999999702,7709.20000000298,9360.5,10392.29999999702,13061.59999999404,15341.09999999404,19076.90000000596,68076.90000000596,69348.59999999404,72588.90000000596,74724.70000000298,76285.59999999404,78077.20000000298,79909.09999999404,81389.20000000298,84117.29999999702,85557,87341.20000000298,89500.59999999404,91317.40000000596,94748.79999999702]","[0.5,4389.79999999702,5893.29999999702,7709.20000000298,9360.5,10392.29999999702,13061.59999999404,14164.70000000298,15341.09999999404,19076.90000000596,68076.90000000596,69348.59999999404,72588.90000000596,74724.70000000298,76285.59999999404,78077.20000000298,79909.09999999404,81389.20000000298,84117.29999999702,85557,87341.20000000298,89500.59999999404,91317.40000000596,92229.79999999702,93502.29999999702,94748.79999999702,95541.59999999404]","[]","0.4090909090909091","0.47619047619047616","0","drsp","","","","","","","","","","","","","","","","","","","","","","","","","","","","","","",""
"88381.40000000596","","","","survey-template","4","936750","0.0-2.0-2.0","164","1","2025-07-23 06:52:11","1f75c3e559b7213887762d5229550c2b","165.165.217.98","Mozilla/5.0 (Windows NT 10.0; Win64; x64) AppleWebKit/537.36 (KHTML, like Gecko) Chrome/138.0.0.0 Safari/537.36","WebKit","Chrome","138.0.0.0","Windows","10.0","https://app.prolific.com/","en-US,en;q=0.9","665f10dc49cd980fdf304c19","683dba2a8a9dda3513610c04","6880867d98e0fcffcc3c7c6a","3","0","665f10dc49cd980fdf304c19","3","0","2025-07-23T07:07:49.609Z","","{""Q01"":""1"",""Q02"":""3"",""Q03"":""1""}","[0,1,2]","[""Q01"",""Q02"",""Q03""]","[85105.70000000298,86564.30000001192,87348.70000000298]","[85105.70000000298,86564.30000001192,87348.70000000298,88379.70000000298]","[]","0.6666666666666666","1","0","stress","","","","","","","","","","","","","","","","","","","","","","","","","","","","","","",""
"66254","","","","instructions","5","1003007","0.0-3.0-0.0","164","1","2025-07-23 06:52:11","1f75c3e559b7213887762d5229550c2b","165.165.217.98","Mozilla/5.0 (Windows NT 10.0; Win64; x64) AppleWebKit/537.36 (KHTML, like Gecko) Chrome/138.0.0.0 Safari/537.36","WebKit","Chrome","138.0.0.0","Windows","10.0","https://app.prolific.com/","en-US,en;q=0.9","665f10dc49cd980fdf304c19","683dba2a8a9dda3513610c04","6880867d98e0fcffcc3c7c6a","3","0","665f10dc49cd980fdf304c19","3","0","","","","","","","","","","","","","[{""page_index"":0,""viewing_time"":66253}]","","","","","","","","","","","","","","","","","","","","","","","","","","","","","",""
"2785","","<p>Before you start with this game please answer the following three questions yourself. </p>
  <p>Through this game, we measure several aspects of your cognitive performance, such as reaction times, multi-tasking capabilities </p>
  <p>and the ability to assess the situation you are in.</p>
  <p></p>
  <p><b>How good do you usually are in such tasks?</b></p>","52","html-slider-response","6","1005806","0.0-4.0-0.0","164","1","2025-07-23 06:52:11","1f75c3e559b7213887762d5229550c2b","165.165.217.98","Mozilla/5.0 (Windows NT 10.0; Win64; x64) AppleWebKit/537.36 (KHTML, like Gecko) Chrome/138.0.0.0 Safari/537.36","WebKit","Chrome","138.0.0.0","Windows","10.0","https://app.prolific.com/","en-US,en;q=0.9","665f10dc49cd980fdf304c19","683dba2a8a9dda3513610c04","6880867d98e0fcffcc3c7c6a","3","0","665f10dc49cd980fdf304c19","3","0","2025-07-23T07:08:58.665Z","","","","","","","","","","","PreSkillQ","","50","","","","","","","","","","","","","","","","","","","","","","","","","","","","",""
"3331","","<div style=""width:500px;"">
  <p>How well do you think you will perform in this task compared to other participants?</p>
  </div>","54","html-slider-response","7","1009139","0.0-4.0-1.0","164","1","2025-07-23 06:52:11","1f75c3e559b7213887762d5229550c2b","165.165.217.98","Mozilla/5.0 (Windows NT 10.0; Win64; x64) AppleWebKit/537.36 (KHTML, like Gecko) Chrome/138.0.0.0 Safari/537.36","WebKit","Chrome","138.0.0.0","Windows","10.0","https://app.prolific.com/","en-US,en;q=0.9","665f10dc49cd980fdf304c19","683dba2a8a9dda3513610c04","6880867d98e0fcffcc3c7c6a","3","0","665f10dc49cd980fdf304c19","3","0","2025-07-23T07:09:01.998Z","","","","","","","","","","","PrePerfQ","","50","","","","","","","","","","","","","","","","","","","","","","","","","","","","",""
"2663","","<div style=""width:500px;"">
  <p>What best describes how you currently feel?</p>
  </div>","57","html-slider-response","8","1011803","0.0-4.0-2.0","164","1","2025-07-23 06:52:11","1f75c3e559b7213887762d5229550c2b","165.165.217.98","Mozilla/5.0 (Windows NT 10.0; Win64; x64) AppleWebKit/537.36 (KHTML, like Gecko) Chrome/138.0.0.0 Safari/537.36","WebKit","Chrome","138.0.0.0","Windows","10.0","https://app.prolific.com/","en-US,en;q=0.9","665f10dc49cd980fdf304c19","683dba2a8a9dda3513610c04","6880867d98e0fcffcc3c7c6a","3","0","665f10dc49cd980fdf304c19","3","0","2025-07-23T07:09:04.663Z","","","","","","","","","","","PreMotivationQ","","50","","","","","","","","","","","","","","","","","","","","","","","","","","","","",""
"","","","","ctl-task-cpt","9","1043324","0.0-5.0-0.0","164","1","2025-07-23 06:52:11","1f75c3e559b7213887762d5229550c2b","165.165.217.98","Mozilla/5.0 (Windows NT 10.0; Win64; x64) AppleWebKit/537.36 (KHTML, like Gecko) Chrome/138.0.0.0 Safari/537.36","WebKit","Chrome","138.0.0.0","Windows","10.0","https://app.prolific.com/","en-US,en;q=0.9","665f10dc49cd980fdf304c19","683dba2a8a9dda3513610c04","6880867d98e0fcffcc3c7c6a","3","0","665f10dc49cd980fdf304c19","3","0","2025-07-23T07:09:36.184Z","","","","","","","","","","","","","","win-only","0","g1:NW,g2:SE","1","1","0","1014607.7","1717","6721.4","28496.6","1","4","4","6","2","4","3","3","0","0.022727272727272728","1409.5","3000","390","[""down"",""right""]","{""num_key_presses"":7,""num_perfect"":6,""num_errors"":1,""num_randdir"":0,""num_randdir_good_moves"":0,""num_whilered"":0,""num_whileblue"":0,""num_blue"":1,""num_good_moves"":6}","[359.5,361.90625,3.1,359.5,361.90625,111.4,359.5,361.90625,215.4,482.5,358.90625,316.1,690.5,339.90625,425.1,690.5,339.90625,529,690.5,339.90625,629.3,690.5,339.90625,735.5,693.5,360.90625,840.2,756.5,603.90625,945.9,762.5,701.90625,1049.1,732.5,698.90625,1149.2,694.5,689.90625,1249.3,680.5,680.90625,1354.3,680.5,680.90625,1454.8,680.5,680.90625,1559.5,680.5,680.90625,1668.6,680.5,680.90625,1773.7,680.5,680.90625,1875.8,680.5,680.90625,1980.7,680.5,680.90625,2085.3,680.5,680.90625,2189.2,680.5,680.90625,2289.2,680.5,680.90625,2389.3,680.5,680.90625,2494.2,680.5,680.90625,2594.3,680.5,680.90625,2698.7,680.5,680.90625,2800.6,680.5,680.90625,2904.1,680.5,680.90625,3004.3,680.5,680.90625,3109.4,680.5,680.90625,3209.8,680.5,680.90625,3315.6,680.5,680.90625,3419.1,680.5,680.90625,3519.2,680.5,680.90625,3624.7,680.5,680.90625,3724.7,680.5,680.90625,3829.6,680.5,680.90625,3934,680.5,680.90625,4034.4,680.5,680.90625,4134.7,680.5,680.90625,4235,680.5,680.90625,4339.3,680.5,680.90625,4447,680.5,680.90625,4549.7,680.5,680.90625,4650,680.5,680.90625,4754,680.5,680.90625,4859.7,680.5,680.90625,4959.7]","[481.9,481.7,1000,0.3,-518.3,""error"",""-"",""-"",""no_move"",4843.6,4361.1,2623,1485.6,735,""smooth"",""down"",""down"",""good_move"",10989.7,6145.7,2191.1,8335,463.7,""smooth"",""down"",""down"",""good_move"",13172,2181.9,1647.4,10990.2,534.5,""smooth"",""right"",""right"",""good_move"",16218.3,3045,2644.6,13173.3,400.4,""smooth"",""right"",""right"",""good_move"",19163.4,2944.8,2538.7,16218.6,406.1,""smooth"",""right"",""right"",""good_move"",21683.5,2519.7,2206.9,19163.8,312.8,""smooth"",""down"",""down"",""good_move""]","",""
"3850","","<div style=""width:500px;"">
  <p>What determined the result of this run?</p>
  </div>","83","html-slider-response","10","1047179","0.0-5.0-1.0","164","1","2025-07-23 06:52:11","1f75c3e559b7213887762d5229550c2b","165.165.217.98","Mozilla/5.0 (Windows NT 10.0; Win64; x64) AppleWebKit/537.36 (KHTML, like Gecko) Chrome/138.0.0.0 Safari/537.36","WebKit","Chrome","138.0.0.0","Windows","10.0","https://app.prolific.com/","en-US,en;q=0.9","665f10dc49cd980fdf304c19","683dba2a8a9dda3513610c04","6880867d98e0fcffcc3c7c6a","3","0","665f10dc49cd980fdf304c19","3","0","2025-07-23T07:09:40.038Z","","","","","","","","","","","AttribQ","","50","","","","","","","","","","","","","","","","","","","","","","","","","","","","",""
"57344","","<div style=""width:500px;"">
  <p>How much control did you have over the ball?</p>
  </div>","100","html-slider-response","11","1104525","0.0-5.0-2.0","164","1","2025-07-23 06:52:11","1f75c3e559b7213887762d5229550c2b","165.165.217.98","Mozilla/5.0 (Windows NT 10.0; Win64; x64) AppleWebKit/537.36 (KHTML, like Gecko) Chrome/138.0.0.0 Safari/537.36","WebKit","Chrome","138.0.0.0","Windows","10.0","https://app.prolific.com/","en-US,en;q=0.9","665f10dc49cd980fdf304c19","683dba2a8a9dda3513610c04","6880867d98e0fcffcc3c7c6a","3","0","665f10dc49cd980fdf304c19","3","0","2025-07-23T07:10:37.384Z","","","","","","","","","","","ControlQ","","50","","","","","","","","","","","","","","","","","","","","","","","","","","","","",""
"15553","","<div style=""width:500px;"">
  <p>How would you describe your current emotional state?</p>
  </div>","40","html-slider-response","12","1120083","0.0-5.0-3.0","164","1","2025-07-23 06:52:11","1f75c3e559b7213887762d5229550c2b","165.165.217.98","Mozilla/5.0 (Windows NT 10.0; Win64; x64) AppleWebKit/537.36 (KHTML, like Gecko) Chrome/138.0.0.0 Safari/537.36","WebKit","Chrome","138.0.0.0","Windows","10.0","https://app.prolific.com/","en-US,en;q=0.9","665f10dc49cd980fdf304c19","683dba2a8a9dda3513610c04","6880867d98e0fcffcc3c7c6a","3","0","665f10dc49cd980fdf304c19","3","0","2025-07-23T07:10:52.942Z","","","","","","","","","","","StressQ","","50","","","","","","","","","","","","","","","","","","","","","","","","","","","","",""
"5063","","<div style=""width:500px;"">
  <p>What best describes how you currently feel?</p>
  </div>","68","html-slider-response","13","1125147","0.0-5.0-4.0","164","1","2025-07-23 06:52:11","1f75c3e559b7213887762d5229550c2b","165.165.217.98","Mozilla/5.0 (Windows NT 10.0; Win64; x64) AppleWebKit/537.36 (KHTML, like Gecko) Chrome/138.0.0.0 Safari/537.36","WebKit","Chrome","138.0.0.0","Windows","10.0","https://app.prolific.com/","en-US,en;q=0.9","665f10dc49cd980fdf304c19","683dba2a8a9dda3513610c04","6880867d98e0fcffcc3c7c6a","3","0","665f10dc49cd980fdf304c19","3","0","2025-07-23T07:10:58.006Z","","","","","","","","","","","MotivationQ","","50","","","","","","","","","","","","","","","","","","","","","","","","","","","","",""
"","","","","ctl-task-cpt","14","1162226","0.0-5.0-0.1","164","1","2025-07-23 06:52:11","1f75c3e559b7213887762d5229550c2b","165.165.217.98","Mozilla/5.0 (Windows NT 10.0; Win64; x64) AppleWebKit/537.36 (KHTML, like Gecko) Chrome/138.0.0.0 Safari/537.36","WebKit","Chrome","138.0.0.0","Windows","10.0","https://app.prolific.com/","en-US,en;q=0.9","665f10dc49cd980fdf304c19","683dba2a8a9dda3513610c04","6880867d98e0fcffcc3c7c6a","3","0","665f10dc49cd980fdf304c19","3","0","2025-07-23T07:11:35.085Z","","","","","","","","","","","","","","win-only","1","g1:NE,g2:SW","0.9","2","0","1127935.2","1244.9","6246.1","34067.8","1","4","8","6","2","-8","-9","0","3","0","1568.2","3000","-2830","[""down"",""left""]","{""num_key_presses"":7,""num_perfect"":6,""num_errors"":1,""num_randdir"":0,""num_randdir_good_moves"":0,""num_whilered"":0,""num_whileblue"":1,""num_blue"":3,""num_good_moves"":6}","[362.5,363.90625,0.3,362.5,363.90625,103.2,362.5,363.90625,206.2,362.5,363.90625,310.8,362.5,363.90625,410.9,363.5,366.90625,511.4,363.5,369.90625,616.4,363.5,371.90625,720.7,363.5,372.90625,822.2,364.5,373.90625,925.4,327.5,441.90625,1030.9,160.5,589.90625,1131.2,115.5,609.90625,1231.3,72.5,633.90625,1341.5,72.5,636.90625,1442.3,72.5,637.90625,1543,72.5,637.90625,1647,94.5,625.90625,1747.3,469.5,471.90625,1852.8,746.5,311.90625,1954.2,740.5,300.90625,2057.2,740.5,300.90625,2161.9,740.5,300.90625,2267.3,740.5,300.90625,2371.7,740.5,300.90625,2472.5,740.5,300.90625,2576.8,740.5,300.90625,2677.8,740.5,300.90625,2781.3,740.5,300.90625,2881.8,740.5,300.90625,2986.2,740.5,300.90625,3093.3,740.5,300.90625,3195.5,740.5,300.90625,3296.7,740.5,300.90625,3397.2,740.5,300.90625,3500.7,740.5,300.90625,3601,740.5,300.90625,3701,740.5,300.90625,3801.8,740.5,300.90625,3912.5,740.5,300.90625,4013.4,740.5,300.90625,4116.2,740.5,300.90625,4221.3,740.5,300.90625,4321.4,740.5,300.90625,4423.3,740.5,300.90625,4528.2,740.5,300.90625,4634.7,740.5,300.90625,4736.2,740.5,300.90625,4836.7,740.5,300.90625,4942]","[1606.5,1606.5,1000,0,606.5,""smooth"",""down"",""down"",""good_move"",4406.2,2798.9,2386.5,1607.3,412.4,""smooth"",""down"",""down"",""good_move"",7305.5,2899.2,2475.7,4406.4,423.5,""smooth"",""down"",""down"",""good_move"",9485.8,2179.9,1776.3,7305.9,403.6,""while_blue"",""left"",""right"",""bad_move"",15744.5,6258.2,2526.2,12765.3,453.1,""smooth"",""left"",""left"",""good_move"",22702.3,6957.2,3147.2,19105.8,449.3,""smooth"",""left"",""left"",""good_move"",25542.9,2839.4,2181.6,22703.5,657.8,""smooth"",""left"",""left"",""good_move""]","",""
"5936","","<div style=""width:500px;"">
  <p>What determined the result of this run?</p>
  </div>","85","html-slider-response","15","1168163","0.0-5.0-1.1","164","1","2025-07-23 06:52:11","1f75c3e559b7213887762d5229550c2b","165.165.217.98","Mozilla/5.0 (Windows NT 10.0; Win64; x64) AppleWebKit/537.36 (KHTML, like Gecko) Chrome/138.0.0.0 Safari/537.36","WebKit","Chrome","138.0.0.0","Windows","10.0","https://app.prolific.com/","en-US,en;q=0.9","665f10dc49cd980fdf304c19","683dba2a8a9dda3513610c04","6880867d98e0fcffcc3c7c6a","3","0","665f10dc49cd980fdf304c19","3","0","2025-07-23T07:11:41.022Z","","","","","","","","","","","AttribQ","","50","","","","","","","","","","","","","","","","","","","","","","","","","","","","",""
"86287","","<div style=""width:500px;"">
  <p>How much control did you have over the ball?</p>
  </div>","76","html-slider-response","16","1254451","0.0-5.0-2.1","164","1","2025-07-23 06:52:11","1f75c3e559b7213887762d5229550c2b","165.165.217.98","Mozilla/5.0 (Windows NT 10.0; Win64; x64) AppleWebKit/537.36 (KHTML, like Gecko) Chrome/138.0.0.0 Safari/537.36","WebKit","Chrome","138.0.0.0","Windows","10.0","https://app.prolific.com/","en-US,en;q=0.9","665f10dc49cd980fdf304c19","683dba2a8a9dda3513610c04","6880867d98e0fcffcc3c7c6a","3","0","665f10dc49cd980fdf304c19","3","0","2025-07-23T07:13:07.310Z","","","","","","","","","","","ControlQ","","50","","","","","","","","","","","","","","","","","","","","","","","","","","","","",""
"45605","","<div style=""width:500px;"">
  <p>How would you describe your current emotional state?</p>
  </div>","60","html-slider-response","17","1300059","0.0-5.0-3.1","164","1","2025-07-23 06:52:11","1f75c3e559b7213887762d5229550c2b","165.165.217.98","Mozilla/5.0 (Windows NT 10.0; Win64; x64) AppleWebKit/537.36 (KHTML, like Gecko) Chrome/138.0.0.0 Safari/537.36","WebKit","Chrome","138.0.0.0","Windows","10.0","https://app.prolific.com/","en-US,en;q=0.9","665f10dc49cd980fdf304c19","683dba2a8a9dda3513610c04","6880867d98e0fcffcc3c7c6a","3","0","665f10dc49cd980fdf304c19","3","0","2025-07-23T07:13:52.918Z","","","","","","","","","","","StressQ","","50","","","","","","","","","","","","","","","","","","","","","","","","","","","","",""
"2069","","<div style=""width:500px;"">
  <p>What best describes how you currently feel?</p>
  </div>","68","html-slider-response","18","1302130","0.0-5.0-4.1","164","1","2025-07-23 06:52:11","1f75c3e559b7213887762d5229550c2b","165.165.217.98","Mozilla/5.0 (Windows NT 10.0; Win64; x64) AppleWebKit/537.36 (KHTML, like Gecko) Chrome/138.0.0.0 Safari/537.36","WebKit","Chrome","138.0.0.0","Windows","10.0","https://app.prolific.com/","en-US,en;q=0.9","665f10dc49cd980fdf304c19","683dba2a8a9dda3513610c04","6880867d98e0fcffcc3c7c6a","3","0","665f10dc49cd980fdf304c19","3","0","2025-07-23T07:13:54.990Z","","","","","","","","","","","MotivationQ","","50","","","","","","","","","","","","","","","","","","","","","","","","","","","","",""
"","","","","ctl-task-cpt","19","1332829","0.0-5.0-0.2","164","1","2025-07-23 06:52:11","1f75c3e559b7213887762d5229550c2b","165.165.217.98","Mozilla/5.0 (Windows NT 10.0; Win64; x64) AppleWebKit/537.36 (KHTML, like Gecko) Chrome/138.0.0.0 Safari/537.36","WebKit","Chrome","138.0.0.0","Windows","10.0","https://app.prolific.com/","en-US,en;q=0.9","665f10dc49cd980fdf304c19","683dba2a8a9dda3513610c04","6880867d98e0fcffcc3c7c6a","3","0","665f10dc49cd980fdf304c19","3","0","2025-07-23T07:14:25.688Z","","","","","","","","","","","","","","win-only","1","g1:NE,g2:SW","0.8","3","0","1304916.7","1110.6","6113.2","27681","1","4","8","6","2","8","7","7","0","0.05303030303030303","1732","3000","40","[""down"",""left""]","{""num_key_presses"":8,""num_perfect"":6,""num_errors"":1,""num_randdir"":1,""num_randdir_good_moves"":1,""num_whilered"":0,""num_whileblue"":1,""num_blue"":1,""num_good_moves"":7}","[369.5,360.90625,0.3,369.5,360.90625,105.6,369.5,360.90625,205.8,369.5,360.90625,309,369.5,360.90625,411.7,369.5,360.90625,515.9,369.5,360.90625,621.1,367.5,365.90625,729.9,359.5,382.90625,831.3,389.5,372.90625,937.2,597.5,239.90625,1052.4,597.5,233.90625,1157.9,133.5,620.90625,1263.7,81.5,654.90625,1367.4,64.5,667.90625,1472.1,59.5,679.90625,1572.3,65.5,667.90625,1672.9,65.5,667.90625,1775.3,69.5,667.90625,1881.9,213.5,620.90625,1983.6,783.5,466.90625,2085.3,796.5,460.90625,2185.3,796.5,460.90625,2286.7,796.5,460.90625,2392.1,796.5,460.90625,2500.4,796.5,460.90625,2611.3,796.5,460.90625,2717.1,796.5,460.90625,2817.6,796.5,460.90625,2920.8,796.5,460.90625,3026.2,796.5,460.90625,3131.7,796.5,460.90625,3232.3,796.5,460.90625,3337.1,796.5,460.90625,3442.5,796.5,460.90625,3543.7,796.5,460.90625,3646.7,796.5,460.90625,3750.2,796.5,460.90625,3853.6,796.5,460.90625,3959.3,796.5,460.90625,4061,796.5,460.90625,4165.9,796.5,460.90625,4266.3,796.5,460.90625,4373,796.5,460.90625,4483.1,796.5,460.90625,4593.1,796.5,460.90625,4703.4,796.5,460.90625,4806.5,796.5,460.90625,4912.6]","[1502.7,1502.7,1000,0,502.7,""smooth"",""down"",""down"",""good_move"",4848.2,3344.9,2861.1,1503.4,483.7,""smooth"",""down"",""down"",""good_move"",8312.7,3464,2630.6,4848.9,833.3,""smooth"",""down"",""down"",""good_move"",11258.8,2945.1,2512.1,8313.8,432.9,""while_blue"",""left"",""right"",""bad_move"",14125.6,2865.9,2035.9,11259.9,829.9,""smooth"",""left"",""left"",""good_move"",16076.7,1950.2,1501,14126.5,449.2,""smooth"",""left"",""left"",""good_move"",19390.7,3313.5,2890.5,16077.2,423,""smooth"",""left"",""left"",""good_move"",21468,2076.6,1736.1,19391.4,340.5,""oops"",""left"",""left"",""good_move""]","",""
"123603","","<div style=""width:500px;"">
  <p>What determined the result of this run?</p>
  </div>","63","html-slider-response","20","1456435","0.0-5.0-1.2","164","1","2025-07-23 06:52:11","1f75c3e559b7213887762d5229550c2b","165.165.217.98","Mozilla/5.0 (Windows NT 10.0; Win64; x64) AppleWebKit/537.36 (KHTML, like Gecko) Chrome/138.0.0.0 Safari/537.36","WebKit","Chrome","138.0.0.0","Windows","10.0","https://app.prolific.com/","en-US,en;q=0.9","665f10dc49cd980fdf304c19","683dba2a8a9dda3513610c04","6880867d98e0fcffcc3c7c6a","3","0","665f10dc49cd980fdf304c19","3","0","2025-07-23T07:16:29.294Z","","","","","","","","","","","AttribQ","","50","","","","","","","","","","","","","","","","","","","","","","","","","","","","",""
"19746","","<div style=""width:500px;"">
  <p>How much control did you have over the ball?</p>
  </div>","93","html-slider-response","21","1476183","0.0-5.0-2.2","164","1","2025-07-23 06:52:11","1f75c3e559b7213887762d5229550c2b","165.165.217.98","Mozilla/5.0 (Windows NT 10.0; Win64; x64) AppleWebKit/537.36 (KHTML, like Gecko) Chrome/138.0.0.0 Safari/537.36","WebKit","Chrome","138.0.0.0","Windows","10.0","https://app.prolific.com/","en-US,en;q=0.9","665f10dc49cd980fdf304c19","683dba2a8a9dda3513610c04","6880867d98e0fcffcc3c7c6a","3","0","665f10dc49cd980fdf304c19","3","0","2025-07-23T07:16:49.043Z","","","","","","","","","","","ControlQ","","50","","","","","","","","","","","","","","","","","","","","","","","","","","","","",""
"63487","","<div style=""width:500px;"">
  <p>How would you describe your current emotional state?</p>
  </div>","65","html-slider-response","22","1539675","0.0-5.0-3.2","164","1","2025-07-23 06:52:11","1f75c3e559b7213887762d5229550c2b","165.165.217.98","Mozilla/5.0 (Windows NT 10.0; Win64; x64) AppleWebKit/537.36 (KHTML, like Gecko) Chrome/138.0.0.0 Safari/537.36","WebKit","Chrome","138.0.0.0","Windows","10.0","https://app.prolific.com/","en-US,en;q=0.9","665f10dc49cd980fdf304c19","683dba2a8a9dda3513610c04","6880867d98e0fcffcc3c7c6a","3","0","665f10dc49cd980fdf304c19","3","0","2025-07-23T07:17:52.534Z","","","","","","","","","","","StressQ","","50","","","","","","","","","","","","","","","","","","","","","","","","","","","","",""
"59142","","<div style=""width:500px;"">
  <p>What best describes how you currently feel?</p>
  </div>","67","html-slider-response","23","1598819","0.0-5.0-4.2","164","1","2025-07-23 06:52:11","1f75c3e559b7213887762d5229550c2b","165.165.217.98","Mozilla/5.0 (Windows NT 10.0; Win64; x64) AppleWebKit/537.36 (KHTML, like Gecko) Chrome/138.0.0.0 Safari/537.36","WebKit","Chrome","138.0.0.0","Windows","10.0","https://app.prolific.com/","en-US,en;q=0.9","665f10dc49cd980fdf304c19","683dba2a8a9dda3513610c04","6880867d98e0fcffcc3c7c6a","3","0","665f10dc49cd980fdf304c19","3","0","2025-07-23T07:18:51.678Z","","","","","","","","","","","MotivationQ","","50","","","","","","","","","","","","","","","","","","","","","","","","","","","","",""
"","","","","ctl-task-cpt","24","1625324","0.0-5.0-0.3","164","1","2025-07-23 06:52:11","1f75c3e559b7213887762d5229550c2b","165.165.217.98","Mozilla/5.0 (Windows NT 10.0; Win64; x64) AppleWebKit/537.36 (KHTML, like Gecko) Chrome/138.0.0.0 Safari/537.36","WebKit","Chrome","138.0.0.0","Windows","10.0","https://app.prolific.com/","en-US,en;q=0.9","665f10dc49cd980fdf304c19","683dba2a8a9dda3513610c04","6880867d98e0fcffcc3c7c6a","3","0","665f10dc49cd980fdf304c19","3","0","2025-07-23T07:19:18.183Z","","","","","","","","","","","","","","win-only","2","g1:SE,g2:NW","0.7","4","0","1601605.9","1047.1","6047.8","23480.3","1","4","4","6","1","1","1","8","7","0.06060606060606061","1615.5","3000","1765","[""down"",""right""]","{""num_key_presses"":4,""num_perfect"":4,""num_errors"":0,""num_randdir"":0,""num_randdir_good_moves"":0,""num_whilered"":0,""num_whileblue"":0,""num_blue"":2,""num_good_moves"":4}","[367.5,355.90625,0.5,367.5,355.90625,104.4,367.5,355.90625,207.5,367.5,355.90625,313.1,367.5,355.90625,415.1,365.5,359.90625,519.8,369.5,383.90625,619.8,413.5,444.90625,721,554.5,553.90625,826.4,660.5,595.90625,938.5,679.5,612.90625,1057,685.5,616.90625,1159.5,685.5,620.90625,1274.9,685.5,645.90625,1375.7,684.5,645.90625,1481.4,682.5,640.90625,1581.6,682.5,640.90625,1682.2,682.5,640.90625,1785.7,688.5,617.90625,1898.1,688.5,617.90625,1999.3,688.5,617.90625,2113,688.5,617.90625,2217.1,688.5,617.90625,2320,688.5,617.90625,2430.7,688.5,617.90625,2534.7,688.5,617.90625,2636.6,688.5,617.90625,2741.7,688.5,617.90625,2844.8,688.5,617.90625,2948.3,688.5,617.90625,3050.8,688.5,617.90625,3151.6,688.5,617.90625,3256.1,688.5,617.90625,3369.2,688.5,617.90625,3474.4,688.5,617.90625,3576.8,688.5,617.90625,3677.5,688.5,617.90625,3780.2,688.5,617.90625,3883.9,688.5,617.90625,3987.8,688.5,617.90625,4089.7,688.5,617.90625,4190.6,688.5,617.90625,4294.8,688.5,617.90625,4410.1,688.5,617.90625,4510.6,688.5,617.90625,4615.9,688.5,617.90625,4720.1,688.5,617.90625,4838.3,688.5,617.90625,4939.7]","[1548.6,1548.6,1000,0,548.6,""smooth"",""down"",""down"",""good_move"",4050.1,2501,2064.2,1549.1,436.8,""smooth"",""right"",""right"",""good_move"",7287.1,3235.9,2743.6,4051.2,492.3,""smooth"",""right"",""right"",""good_move"",17309.9,10021.8,2091,14679.8,539.1,""smooth"",""down"",""down"",""good_move""]","",""
"45627","","<div style=""width:500px;"">
  <p>What determined the result of this run?</p>
  </div>","77","html-slider-response","25","1670954","0.0-5.0-1.3","164","1","2025-07-23 06:52:11","1f75c3e559b7213887762d5229550c2b","165.165.217.98","Mozilla/5.0 (Windows NT 10.0; Win64; x64) AppleWebKit/537.36 (KHTML, like Gecko) Chrome/138.0.0.0 Safari/537.36","WebKit","Chrome","138.0.0.0","Windows","10.0","https://app.prolific.com/","en-US,en;q=0.9","665f10dc49cd980fdf304c19","683dba2a8a9dda3513610c04","6880867d98e0fcffcc3c7c6a","3","0","665f10dc49cd980fdf304c19","3","0","2025-07-23T07:20:03.813Z","","","","","","","","","","","AttribQ","","50","","","","","","","","","","","","","","","","","","","","","","","","","","","","",""
"4471","","<div style=""width:500px;"">
  <p>How much control did you have over the ball?</p>
  </div>","92","html-slider-response","26","1675427","0.0-5.0-2.3","164","1","2025-07-23 06:52:11","1f75c3e559b7213887762d5229550c2b","165.165.217.98","Mozilla/5.0 (Windows NT 10.0; Win64; x64) AppleWebKit/537.36 (KHTML, like Gecko) Chrome/138.0.0.0 Safari/537.36","WebKit","Chrome","138.0.0.0","Windows","10.0","https://app.prolific.com/","en-US,en;q=0.9","665f10dc49cd980fdf304c19","683dba2a8a9dda3513610c04","6880867d98e0fcffcc3c7c6a","3","0","665f10dc49cd980fdf304c19","3","0","2025-07-23T07:20:08.286Z","","","","","","","","","","","ControlQ","","50","","","","","","","","","","","","","","","","","","","","","","","","","","","","",""
"2877","","<div style=""width:500px;"">
  <p>How would you describe your current emotional state?</p>
  </div>","75","html-slider-response","27","1678308","0.0-5.0-3.3","164","1","2025-07-23 06:52:11","1f75c3e559b7213887762d5229550c2b","165.165.217.98","Mozilla/5.0 (Windows NT 10.0; Win64; x64) AppleWebKit/537.36 (KHTML, like Gecko) Chrome/138.0.0.0 Safari/537.36","WebKit","Chrome","138.0.0.0","Windows","10.0","https://app.prolific.com/","en-US,en;q=0.9","665f10dc49cd980fdf304c19","683dba2a8a9dda3513610c04","6880867d98e0fcffcc3c7c6a","3","0","665f10dc49cd980fdf304c19","3","0","2025-07-23T07:20:11.167Z","","","","","","","","","","","StressQ","","50","","","","","","","","","","","","","","","","","","","","","","","","","","","","",""
"2579","","<div style=""width:500px;"">
  <p>What best describes how you currently feel?</p>
  </div>","70","html-slider-response","28","1680890","0.0-5.0-4.3","164","1","2025-07-23 06:52:11","1f75c3e559b7213887762d5229550c2b","165.165.217.98","Mozilla/5.0 (Windows NT 10.0; Win64; x64) AppleWebKit/537.36 (KHTML, like Gecko) Chrome/138.0.0.0 Safari/537.36","WebKit","Chrome","138.0.0.0","Windows","10.0","https://app.prolific.com/","en-US,en;q=0.9","665f10dc49cd980fdf304c19","683dba2a8a9dda3513610c04","6880867d98e0fcffcc3c7c6a","3","0","665f10dc49cd980fdf304c19","3","0","2025-07-23T07:20:13.749Z","","","","","","","","","","","MotivationQ","","50","","","","","","","","","","","","","","","","","","","","","","","","","","","","",""
"","","","","ctl-task-cpt","29","1715101","0.0-5.0-0.4","164","1","2025-07-23 06:52:11","1f75c3e559b7213887762d5229550c2b","165.165.217.98","Mozilla/5.0 (Windows NT 10.0; Win64; x64) AppleWebKit/537.36 (KHTML, like Gecko) Chrome/138.0.0.0 Safari/537.36","WebKit","Chrome","138.0.0.0","Windows","10.0","https://app.prolific.com/","en-US,en;q=0.9","665f10dc49cd980fdf304c19","683dba2a8a9dda3513610c04","6880867d98e0fcffcc3c7c6a","3","0","665f10dc49cd980fdf304c19","3","0","2025-07-23T07:20:47.961Z","","","","","","","","","","","","","","win-only","2","g1:SE,g2:NW","0.6","5","0","1683676.2","1509.9","6511.8","31174.3","1","4","8","6","1","1","-2","6","8","0.045454545454545456","1405.5","3000","505","[""down"",""right""]","{""num_key_presses"":9,""num_perfect"":4,""num_errors"":3,""num_randdir"":2,""num_randdir_good_moves"":1,""num_whilered"":0,""num_whileblue"":0,""num_blue"":0,""num_good_moves"":5}","[366.5,360.90625,0.9,366.5,360.90625,101.4,366.5,364.90625,209.6,366.5,364.90625,314.2,369.5,374.90625,421.2,373.5,391.90625,527,384.5,404.90625,633.1,391.5,408.90625,738.1,449.5,480.90625,838.1,645.5,644.90625,945.7,681.5,707.90625,1064.4,690.5,710.90625,1165.3,685.5,700.90625,1273.3,676.5,683.90625,1379.1,676.5,683.90625,1487.5,676.5,683.90625,1587.6,676.5,683.90625,1687.7,676.5,680.90625,1794.7,672.5,680.90625,1896.2,672.5,680.90625,2005,672.5,680.90625,2111.1,672.5,680.90625,2223.2,672.5,680.90625,2323.2,672.5,680.90625,2424.7,672.5,680.90625,2528.9,672.5,680.90625,2631.8,672.5,680.90625,2733.3,672.5,680.90625,2844.7,672.5,680.90625,2951.6,672.5,680.90625,3053.3,672.5,680.90625,3154.6,672.5,680.90625,3270.7,672.5,680.90625,3371.5,672.5,680.90625,3482.2,672.5,680.90625,3585.4,672.5,680.90625,3688.3,672.5,680.90625,3790.3,672.5,680.90625,3896.5,672.5,680.90625,4003.2,672.5,680.90625,4108.4,672.5,680.90625,4222.9,672.5,680.90625,4324.2,672.5,680.90625,4429.4,672.5,680.90625,4532,672.5,680.90625,4632.9,672.5,680.90625,4737.6,672.5,680.90625,4851.3,672.5,680.90625,4951.4]","[1465.6,1465.6,1000,0,465.6,""oops"",""right"",""left"",""bad_move"",5105,3638.5,2904.1,1466.6,734.4,""smooth"",""right"",""right"",""good_move"",8038.7,2932.3,2495.1,5106.4,437.2,""smooth"",""right"",""right"",""good_move"",10945.5,2906,2289.6,8039.5,616.4,""smooth"",""down"",""down"",""good_move"",11074.4,128,2028.1,10946.4,-1900.1,""error"",""-"",""-"",""no_move"",13176.1,2099.1,2767.6,12077.5,-1668.6,""error"",""-"",""-"",""no_move"",16703.9,3527.1,2539.3,14183.9,-19.3,""error"",""-"",""-"",""no_move"",20992.9,4288.6,2420.7,17712.6,859.6,""oops"",""down"",""down"",""good_move"",24521.1,3527.4,2246.3,20993.8,1281,""smooth"",""right"",""right"",""good_move""]","",""
"77746","","<div style=""width:500px;"">
  <p>What determined the result of this run?</p>
  </div>","74","html-slider-response","30","1792850","0.0-5.0-1.4","164","1","2025-07-23 06:52:11","1f75c3e559b7213887762d5229550c2b","165.165.217.98","Mozilla/5.0 (Windows NT 10.0; Win64; x64) AppleWebKit/537.36 (KHTML, like Gecko) Chrome/138.0.0.0 Safari/537.36","WebKit","Chrome","138.0.0.0","Windows","10.0","https://app.prolific.com/","en-US,en;q=0.9","665f10dc49cd980fdf304c19","683dba2a8a9dda3513610c04","6880867d98e0fcffcc3c7c6a","3","0","665f10dc49cd980fdf304c19","3","0","2025-07-23T07:22:05.709Z","","","","","","","","","","","AttribQ","","50","","","","","","","","","","","","","","","","","","","","","","","","","","","","",""
"30175","","<div style=""width:500px;"">
  <p>How much control did you have over the ball?</p>
  </div>","42","html-slider-response","31","1823026","0.0-5.0-2.4","164","1","2025-07-23 06:52:11","1f75c3e559b7213887762d5229550c2b","165.165.217.98","Mozilla/5.0 (Windows NT 10.0; Win64; x64) AppleWebKit/537.36 (KHTML, like Gecko) Chrome/138.0.0.0 Safari/537.36","WebKit","Chrome","138.0.0.0","Windows","10.0","https://app.prolific.com/","en-US,en;q=0.9","665f10dc49cd980fdf304c19","683dba2a8a9dda3513610c04","6880867d98e0fcffcc3c7c6a","3","0","665f10dc49cd980fdf304c19","3","0","2025-07-23T07:22:35.886Z","","","","","","","","","","","ControlQ","","50","","","","","","","","","","","","","","","","","","","","","","","","","","","","",""
"3390","","<div style=""width:500px;"">
  <p>How would you describe your current emotional state?</p>
  </div>","70","html-slider-response","32","1826418","0.0-5.0-3.4","164","1","2025-07-23 06:52:11","1f75c3e559b7213887762d5229550c2b","165.165.217.98","Mozilla/5.0 (Windows NT 10.0; Win64; x64) AppleWebKit/537.36 (KHTML, like Gecko) Chrome/138.0.0.0 Safari/537.36","WebKit","Chrome","138.0.0.0","Windows","10.0","https://app.prolific.com/","en-US,en;q=0.9","665f10dc49cd980fdf304c19","683dba2a8a9dda3513610c04","6880867d98e0fcffcc3c7c6a","3","0","665f10dc49cd980fdf304c19","3","0","2025-07-23T07:22:39.278Z","","","","","","","","","","","StressQ","","50","","","","","","","","","","","","","","","","","","","","","","","","","","","","",""
"2110","","<div style=""width:500px;"">
  <p>What best describes how you currently feel?</p>
  </div>","75","html-slider-response","33","1828533","0.0-5.0-4.4","164","1","2025-07-23 06:52:11","1f75c3e559b7213887762d5229550c2b","165.165.217.98","Mozilla/5.0 (Windows NT 10.0; Win64; x64) AppleWebKit/537.36 (KHTML, like Gecko) Chrome/138.0.0.0 Safari/537.36","WebKit","Chrome","138.0.0.0","Windows","10.0","https://app.prolific.com/","en-US,en;q=0.9","665f10dc49cd980fdf304c19","683dba2a8a9dda3513610c04","6880867d98e0fcffcc3c7c6a","3","0","665f10dc49cd980fdf304c19","3","0","2025-07-23T07:22:41.393Z","","","","","","","","","","","MotivationQ","","50","","","","","","","","","","","","","","","","","","","","","","","","","","","","",""
"","","","","ctl-task-cpt","34","1858361","0.0-5.0-0.5","164","1","2025-07-23 06:52:11","1f75c3e559b7213887762d5229550c2b","165.165.217.98","Mozilla/5.0 (Windows NT 10.0; Win64; x64) AppleWebKit/537.36 (KHTML, like Gecko) Chrome/138.0.0.0 Safari/537.36","WebKit","Chrome","138.0.0.0","Windows","10.0","https://app.prolific.com/","en-US,en;q=0.9","665f10dc49cd980fdf304c19","683dba2a8a9dda3513610c04","6880867d98e0fcffcc3c7c6a","3","0","665f10dc49cd980fdf304c19","3","0","2025-07-23T07:23:11.220Z","","","","","","","","","","","","","","win-only","1","g1:NE,g2:SW","0.5","6","0","1831324.2","854.3","5856","26748.4","1","4","4","6","1","1","1","7","6","0.05303030303030303","1195.1","3000","1145","[""up"",""right""]","{""num_key_presses"":6,""num_perfect"":4,""num_errors"":0,""num_randdir"":2,""num_randdir_good_moves"":1,""num_whilered"":0,""num_whileblue"":0,""num_blue"":1,""num_good_moves"":5}","[367.5,356.90625,1.3,367.5,356.90625,105.2,367.5,356.90625,216.1,367.5,356.90625,320.4,367.5,356.90625,428.1,367.5,364.90625,534.6,367.5,368.90625,638.2,498.5,245.90625,742.6,676.5,79.90625,847.1,669.5,76.90625,948.9,668.5,70.90625,1059.8,671.5,62.90625,1160.9,671.5,62.90625,1262.3,671.5,62.90625,1371.2,671.5,62.90625,1474.6,671.5,62.90625,1575.8,671.5,62.90625,1676.7,671.5,62.90625,1790.3,671.5,62.90625,1895.1,671.5,62.90625,2000.4,671.5,62.90625,2105.2,671.5,62.90625,2220.8,671.5,62.90625,2325.6,671.5,62.90625,2428.7,671.5,62.90625,2531.7,671.5,62.90625,2634,671.5,62.90625,2737.3,671.5,62.90625,2837.4,671.5,62.90625,2955.8,671.5,62.90625,3060.1,671.5,62.90625,3162.2,671.5,62.90625,3263.5,671.5,62.90625,3368.4,671.5,62.90625,3471.1,671.5,62.90625,3590.4,671.5,62.90625,3695,671.5,62.90625,3796.3,671.5,62.90625,3905.7,671.5,62.90625,4022.5,671.5,62.90625,4123.7,671.5,62.90625,4224.2,671.5,62.90625,4327.2,671.5,62.90625,4438.5,671.5,62.90625,4539,671.5,62.90625,4656.2,671.5,62.90625,4773.2,671.5,62.90625,4878.8,671.5,62.90625,4980.2]","[1562.1,1562.1,1000,0,562.1,""smooth"",""up"",""up"",""good_move"",7480.3,5917.7,1991.9,5000.7,487.7,""smooth"",""up"",""up"",""good_move"",11215,3734.4,2546.5,7480.7,1187.9,""oops"",""right"",""left"",""bad_move"",14767.5,3551.6,2886.7,11215.9,664.9,""oops"",""right"",""right"",""good_move"",17425.7,2657.4,2083.7,14768.3,573.7,""smooth"",""right"",""right"",""good_move"",20690,3262.7,2779,17427.3,483.8,""smooth"",""right"",""right"",""good_move""]","",""
"12613","","<div style=""width:500px;"">
  <p>What determined the result of this run?</p>
  </div>","75","html-slider-response","35","1870980","0.0-5.0-1.5","164","1","2025-07-23 06:52:11","1f75c3e559b7213887762d5229550c2b","165.165.217.98","Mozilla/5.0 (Windows NT 10.0; Win64; x64) AppleWebKit/537.36 (KHTML, like Gecko) Chrome/138.0.0.0 Safari/537.36","WebKit","Chrome","138.0.0.0","Windows","10.0","https://app.prolific.com/","en-US,en;q=0.9","665f10dc49cd980fdf304c19","683dba2a8a9dda3513610c04","6880867d98e0fcffcc3c7c6a","3","0","665f10dc49cd980fdf304c19","3","0","2025-07-23T07:23:23.839Z","","","","","","","","","","","AttribQ","","50","","","","","","","","","","","","","","","","","","","","","","","","","","","","",""
"1491","","<div style=""width:500px;"">
  <p>How much control did you have over the ball?</p>
  </div>","69","html-slider-response","36","1872477","0.0-5.0-2.5","164","1","2025-07-23 06:52:11","1f75c3e559b7213887762d5229550c2b","165.165.217.98","Mozilla/5.0 (Windows NT 10.0; Win64; x64) AppleWebKit/537.36 (KHTML, like Gecko) Chrome/138.0.0.0 Safari/537.36","WebKit","Chrome","138.0.0.0","Windows","10.0","https://app.prolific.com/","en-US,en;q=0.9","665f10dc49cd980fdf304c19","683dba2a8a9dda3513610c04","6880867d98e0fcffcc3c7c6a","3","0","665f10dc49cd980fdf304c19","3","0","2025-07-23T07:23:25.336Z","","","","","","","","","","","ControlQ","","50","","","","","","","","","","","","","","","","","","","","","","","","","","","","",""
"3240","","<div style=""width:500px;"">
  <p>How would you describe your current emotional state?</p>
  </div>","44","html-slider-response","37","1875720","0.0-5.0-3.5","164","1","2025-07-23 06:52:11","1f75c3e559b7213887762d5229550c2b","165.165.217.98","Mozilla/5.0 (Windows NT 10.0; Win64; x64) AppleWebKit/537.36 (KHTML, like Gecko) Chrome/138.0.0.0 Safari/537.36","WebKit","Chrome","138.0.0.0","Windows","10.0","https://app.prolific.com/","en-US,en;q=0.9","665f10dc49cd980fdf304c19","683dba2a8a9dda3513610c04","6880867d98e0fcffcc3c7c6a","3","0","665f10dc49cd980fdf304c19","3","0","2025-07-23T07:23:28.579Z","","","","","","","","","","","StressQ","","50","","","","","","","","","","","","","","","","","","","","","","","","","","","","",""
"1642","","<div style=""width:500px;"">
  <p>What best describes how you currently feel?</p>
  </div>","66","html-slider-response","38","1877364","0.0-5.0-4.5","164","1","2025-07-23 06:52:11","1f75c3e559b7213887762d5229550c2b","165.165.217.98","Mozilla/5.0 (Windows NT 10.0; Win64; x64) AppleWebKit/537.36 (KHTML, like Gecko) Chrome/138.0.0.0 Safari/537.36","WebKit","Chrome","138.0.0.0","Windows","10.0","https://app.prolific.com/","en-US,en;q=0.9","665f10dc49cd980fdf304c19","683dba2a8a9dda3513610c04","6880867d98e0fcffcc3c7c6a","3","0","665f10dc49cd980fdf304c19","3","0","2025-07-23T07:23:30.223Z","","","","","","","","","","","MotivationQ","","50","","","","","","","","","","","","","","","","","","","","","","","","","","","","",""
"","","","","ctl-task-cpt","39","1903626","0.0-5.0-0.6","164","1","2025-07-23 06:52:11","1f75c3e559b7213887762d5229550c2b","165.165.217.98","Mozilla/5.0 (Windows NT 10.0; Win64; x64) AppleWebKit/537.36 (KHTML, like Gecko) Chrome/138.0.0.0 Safari/537.36","WebKit","Chrome","138.0.0.0","Windows","10.0","https://app.prolific.com/","en-US,en;q=0.9","665f10dc49cd980fdf304c19","683dba2a8a9dda3513610c04","6880867d98e0fcffcc3c7c6a","3","0","665f10dc49cd980fdf304c19","3","0","2025-07-23T07:23:56.485Z","","","","","","","","","","","","","","win-only","1","g1:NE,g2:SW","0.4","7","0","1880153.2","1094","6099.6","23246.7","1","4","4","6","1","1","1","8","7","0.06060606060606061","1829.9","3000","1470","[""up"",""right""]","{""num_key_presses"":6,""num_perfect"":4,""num_errors"":0,""num_randdir"":2,""num_randdir_good_moves"":1,""num_whilered"":0,""num_whileblue"":0,""num_blue"":0,""num_good_moves"":5}","[363.5,366.90625,0.6,363.5,366.90625,114.5,363.5,366.90625,220.9,363.5,366.90625,324.6,371.5,367.90625,425.8,407.5,367.90625,552.4,444.5,355.90625,669.9,480.5,329.90625,778.5,481.5,328.90625,878.6,491.5,302.90625,985.8,527.5,193.90625,1087.5,583.5,92.90625,1188,596.5,76.90625,1299.3,602.5,75.90625,1403,624.5,72.90625,1511.4,628.5,71.90625,1614.7,649.5,70.90625,1716.1,650.5,70.90625,1818.1,650.5,70.90625,1922.7,656.5,73.90625,2025,658.5,75.90625,2126.9,658.5,75.90625,2229,658.5,75.90625,2334.8,658.5,75.90625,2436.6,658.5,75.90625,2537.3,658.5,75.90625,2645.2,658.5,75.90625,2752.2,658.5,75.90625,2852.5,658.5,75.90625,2953.4,658.5,75.90625,3054.2,658.5,75.90625,3172.9,658.5,75.90625,3283.4,658.5,75.90625,3384.1,658.5,75.90625,3505.3,658.5,75.90625,3609.2,658.5,75.90625,3710.1,658.5,75.90625,3815,658.5,75.90625,3915.6,658.5,75.90625,4017.2,658.5,75.90625,4117.8,658.5,75.90625,4240,658.5,75.90625,4348.7,658.5,75.90625,4449.6,658.5,75.90625,4562.8,658.5,75.90625,4664,658.5,75.90625,4767.4,658.5,75.90625,4874.3,658.5,75.90625,4975.3]","[1558.4,1558.4,1000,0,558.4,""oops"",""up"",""down"",""bad_move"",5041.6,3482.1,2877.9,1559.5,604.2,""smooth"",""up"",""up"",""good_move"",7854.1,2811.4,1859.8,5042.8,951.5,""oops"",""up"",""up"",""good_move"",10674.6,2819.3,2250.6,7855.4,568.6,""smooth"",""up"",""up"",""good_move"",13973.8,3298.5,2797.7,10675.4,500.7,""smooth"",""right"",""right"",""good_move"",16952,2977.6,2432.7,13974.5,544.9,""smooth"",""right"",""right"",""good_move""]","",""
"3056","","<div style=""width:500px;"">
  <p>What determined the result of this run?</p>
  </div>","80","html-slider-response","40","1906687","0.0-5.0-1.6","164","1","2025-07-23 06:52:11","1f75c3e559b7213887762d5229550c2b","165.165.217.98","Mozilla/5.0 (Windows NT 10.0; Win64; x64) AppleWebKit/537.36 (KHTML, like Gecko) Chrome/138.0.0.0 Safari/537.36","WebKit","Chrome","138.0.0.0","Windows","10.0","https://app.prolific.com/","en-US,en;q=0.9","665f10dc49cd980fdf304c19","683dba2a8a9dda3513610c04","6880867d98e0fcffcc3c7c6a","3","0","665f10dc49cd980fdf304c19","3","0","2025-07-23T07:23:59.546Z","","","","","","","","","","","AttribQ","","50","","","","","","","","","","","","","","","","","","","","","","","","","","","","",""
"2050","","<div style=""width:500px;"">
  <p>How much control did you have over the ball?</p>
  </div>","68","html-slider-response","41","1908739","0.0-5.0-2.6","164","1","2025-07-23 06:52:11","1f75c3e559b7213887762d5229550c2b","165.165.217.98","Mozilla/5.0 (Windows NT 10.0; Win64; x64) AppleWebKit/537.36 (KHTML, like Gecko) Chrome/138.0.0.0 Safari/537.36","WebKit","Chrome","138.0.0.0","Windows","10.0","https://app.prolific.com/","en-US,en;q=0.9","665f10dc49cd980fdf304c19","683dba2a8a9dda3513610c04","6880867d98e0fcffcc3c7c6a","3","0","665f10dc49cd980fdf304c19","3","0","2025-07-23T07:24:01.599Z","","","","","","","","","","","ControlQ","","50","","","","","","","","","","","","","","","","","","","","","","","","","","","","",""
"88064","","<div style=""width:500px;"">
  <p>How would you describe your current emotional state?</p>
  </div>","60","html-slider-response","42","1996808","0.0-5.0-3.6","164","1","2025-07-23 06:52:11","1f75c3e559b7213887762d5229550c2b","165.165.217.98","Mozilla/5.0 (Windows NT 10.0; Win64; x64) AppleWebKit/537.36 (KHTML, like Gecko) Chrome/138.0.0.0 Safari/537.36","WebKit","Chrome","138.0.0.0","Windows","10.0","https://app.prolific.com/","en-US,en;q=0.9","665f10dc49cd980fdf304c19","683dba2a8a9dda3513610c04","6880867d98e0fcffcc3c7c6a","3","0","665f10dc49cd980fdf304c19","3","0","2025-07-23T07:25:29.668Z","","","","","","","","","","","StressQ","","50","","","","","","","","","","","","","","","","","","","","","","","","","","","","",""
"8710","","<div style=""width:500px;"">
  <p>What best describes how you currently feel?</p>
  </div>","72","html-slider-response","43","2005523","0.0-5.0-4.6","164","1","2025-07-23 06:52:11","1f75c3e559b7213887762d5229550c2b","165.165.217.98","Mozilla/5.0 (Windows NT 10.0; Win64; x64) AppleWebKit/537.36 (KHTML, like Gecko) Chrome/138.0.0.0 Safari/537.36","WebKit","Chrome","138.0.0.0","Windows","10.0","https://app.prolific.com/","en-US,en;q=0.9","665f10dc49cd980fdf304c19","683dba2a8a9dda3513610c04","6880867d98e0fcffcc3c7c6a","3","0","665f10dc49cd980fdf304c19","3","0","2025-07-23T07:25:38.383Z","","","","","","","","","","","MotivationQ","","50","","","","","","","","","","","","","","","","","","","","","","","","","","","","",""
"","","","","ctl-task-cpt","44","2049712","0.0-5.0-0.7","164","1","2025-07-23 06:52:11","1f75c3e559b7213887762d5229550c2b","165.165.217.98","Mozilla/5.0 (Windows NT 10.0; Win64; x64) AppleWebKit/537.36 (KHTML, like Gecko) Chrome/138.0.0.0 Safari/537.36","WebKit","Chrome","138.0.0.0","Windows","10.0","https://app.prolific.com/","en-US,en;q=0.9","665f10dc49cd980fdf304c19","683dba2a8a9dda3513610c04","6880867d98e0fcffcc3c7c6a","3","0","665f10dc49cd980fdf304c19","3","0","2025-07-23T07:26:22.572Z","","","","","","","","","","","","","","win-only","3","g1:SW,g2:NE","0.3","8","0","2008315.9","1027.3","6033.5","41111.5","1","4","8","6","1","1","1","9","8","0.06818181818181818","1075.2","3000","1625","[""down"",""left""]","{""num_key_presses"":6,""num_perfect"":3,""num_errors"":0,""num_randdir"":3,""num_randdir_good_moves"":2,""num_whilered"":0,""num_whileblue"":0,""num_blue"":2,""num_good_moves"":5}","[368.5,356.90625,0.7,368.5,356.90625,118.5,368.5,356.90625,228.9,368.5,356.90625,335.7,368.5,356.90625,461.2,368.5,356.90625,572.7,167.5,591.90625,683,112.5,699.90625,788.1,107.5,693.90625,920.5,93.5,668.90625,1041,93.5,668.90625,1147.6,138.5,652.90625,1263.2,874.5,390.90625,1372.1,1174.5,287.90625,1474.9,1174.5,287.90625,1584.5,1174.5,287.90625,1696.6,1174.5,287.90625,1807.2,1174.5,287.90625,1911,1174.5,287.90625,2015.2,1174.5,287.90625,2128.7,1174.5,287.90625,2242,1174.5,287.90625,2357.9,1174.5,287.90625,2464.1,1174.5,287.90625,2573,1174.5,287.90625,2695.3,1174.5,287.90625,2811.1,1174.5,287.90625,2920.2,1174.5,287.90625,3048,1174.5,287.90625,3163.7,1174.5,287.90625,3273.6,1174.5,287.90625,3391.1,1174.5,287.90625,3501.3,1174.5,287.90625,3602.7,1174.5,287.90625,3707.5,1174.5,287.90625,3813.7,1174.5,287.90625,3924.1,1174.5,287.90625,4029.1,1174.5,287.90625,4150.3,1174.5,287.90625,4268.7,1174.5,287.90625,4382.8,1174.5,287.90625,4486,1174.5,287.90625,4614.8,1174.5,287.90625,4742.2,1174.5,287.90625,4860.5,1174.5,287.90625,4961.4]","[8028.3,8028.3,2366.5,5148.3,513.5,""smooth"",""down"",""down"",""good_move"",12221.4,4192.4,2568.2,8029,1624.2,""smooth"",""down"",""down"",""good_move"",18822.9,6601.2,2793.6,12221.7,3807.6,""oops"",""left"",""up"",""bad_move"",26598.7,7775.1,2898.9,18823.7,4876.2,""oops"",""down"",""down"",""good_move"",29826,3226.6,2296,26599.5,930.5,""oops"",""left"",""left"",""good_move"",34646.3,4817.8,2592.4,29828.6,2225.4,""smooth"",""left"",""left"",""good_move""]","",""
"25506","","<div style=""width:500px;"">
  <p>What determined the result of this run?</p>
  </div>","96","html-slider-response","45","2075235","0.0-5.0-1.7","164","1","2025-07-23 06:52:11","1f75c3e559b7213887762d5229550c2b","165.165.217.98","Mozilla/5.0 (Windows NT 10.0; Win64; x64) AppleWebKit/537.36 (KHTML, like Gecko) Chrome/138.0.0.0 Safari/537.36","WebKit","Chrome","138.0.0.0","Windows","10.0","https://app.prolific.com/","en-US,en;q=0.9","665f10dc49cd980fdf304c19","683dba2a8a9dda3513610c04","6880867d98e0fcffcc3c7c6a","3","0","665f10dc49cd980fdf304c19","3","0","2025-07-23T07:26:48.095Z","","","","","","","","","","","AttribQ","","50","","","","","","","","","","","","","","","","","","","","","","","","","","","","",""
"2340","","<div style=""width:500px;"">
  <p>How much control did you have over the ball?</p>
  </div>","44","html-slider-response","46","2077578","0.0-5.0-2.7","164","1","2025-07-23 06:52:11","1f75c3e559b7213887762d5229550c2b","165.165.217.98","Mozilla/5.0 (Windows NT 10.0; Win64; x64) AppleWebKit/537.36 (KHTML, like Gecko) Chrome/138.0.0.0 Safari/537.36","WebKit","Chrome","138.0.0.0","Windows","10.0","https://app.prolific.com/","en-US,en;q=0.9","665f10dc49cd980fdf304c19","683dba2a8a9dda3513610c04","6880867d98e0fcffcc3c7c6a","3","0","665f10dc49cd980fdf304c19","3","0","2025-07-23T07:26:50.437Z","","","","","","","","","","","ControlQ","","50","","","","","","","","","","","","","","","","","","","","","","","","","","","","",""
"10728","","<div style=""width:500px;"">
  <p>How would you describe your current emotional state?</p>
  </div>","62","html-slider-response","47","2088309","0.0-5.0-3.7","164","1","2025-07-23 06:52:11","1f75c3e559b7213887762d5229550c2b","165.165.217.98","Mozilla/5.0 (Windows NT 10.0; Win64; x64) AppleWebKit/537.36 (KHTML, like Gecko) Chrome/138.0.0.0 Safari/537.36","WebKit","Chrome","138.0.0.0","Windows","10.0","https://app.prolific.com/","en-US,en;q=0.9","665f10dc49cd980fdf304c19","683dba2a8a9dda3513610c04","6880867d98e0fcffcc3c7c6a","3","0","665f10dc49cd980fdf304c19","3","0","2025-07-23T07:27:01.168Z","","","","","","","","","","","StressQ","","50","","","","","","","","","","","","","","","","","","","","","","","","","","","","",""
"21196","","<div style=""width:500px;"">
  <p>What best describes how you currently feel?</p>
  </div>","63","html-slider-response","48","2109508","0.0-5.0-4.7","164","1","2025-07-23 06:52:11","1f75c3e559b7213887762d5229550c2b","165.165.217.98","Mozilla/5.0 (Windows NT 10.0; Win64; x64) AppleWebKit/537.36 (KHTML, like Gecko) Chrome/138.0.0.0 Safari/537.36","WebKit","Chrome","138.0.0.0","Windows","10.0","https://app.prolific.com/","en-US,en;q=0.9","665f10dc49cd980fdf304c19","683dba2a8a9dda3513610c04","6880867d98e0fcffcc3c7c6a","3","0","665f10dc49cd980fdf304c19","3","0","2025-07-23T07:27:22.368Z","","","","","","","","","","","MotivationQ","","50","","","","","","","","","","","","","","","","","","","","","","","","","","","","",""
"","","","","ctl-task-cpt","49","2166238","0.0-5.0-0.8","164","1","2025-07-23 06:52:11","1f75c3e559b7213887762d5229550c2b","165.165.217.98","Mozilla/5.0 (Windows NT 10.0; Win64; x64) AppleWebKit/537.36 (KHTML, like Gecko) Chrome/138.0.0.0 Safari/537.36","WebKit","Chrome","138.0.0.0","Windows","10.0","https://app.prolific.com/","en-US,en;q=0.9","665f10dc49cd980fdf304c19","683dba2a8a9dda3513610c04","6880867d98e0fcffcc3c7c6a","3","0","665f10dc49cd980fdf304c19","3","0","2025-07-23T07:28:19.097Z","","","","","","","","","","","","","","win-only","1","g1:NE,g2:SW","0.2","9","0","2112297.8","16447.7","21464.7","53694.3","1","4","4","6","1","1","1","10","9","0.07575757575757576","2998.7","3000","1965","[""up"",""right""]","{""num_key_presses"":6,""num_perfect"":1,""num_errors"":0,""num_randdir"":5,""num_randdir_good_moves"":4,""num_whilered"":0,""num_whileblue"":0,""num_blue"":4,""num_good_moves"":5}","[364.5,365.90625,1.5,364.5,365.90625,110,364.5,365.90625,211.8,364.5,365.90625,324.1,364.5,365.90625,427.4,364.5,365.90625,536.8,364.5,365.90625,645.2,364.5,365.90625,758.9,364.5,365.90625,859.4,364.5,365.90625,966.2,364.5,365.90625,1078.6,364.5,365.90625,1186.5,364.5,365.90625,1288.6,364.5,365.90625,1400.5,364.5,365.90625,1515.3,364.5,365.90625,1627.4,364.5,365.90625,1743.7,364.5,365.90625,1848.5,373.5,360.90625,1959.9,442.5,323.90625,2064,615.5,204.90625,2165.5,763.5,72.90625,2285.3,813.5,13.90625,2388.5,813.5,10.90625,2488.5,775.5,28.90625,2598.4,714.5,36.90625,2704.7,690.5,47.90625,2818.8,670.5,55.90625,2935.7,670.5,55.90625,3041.7,670.5,55.90625,3142.6,670.5,55.90625,3261.5,670.5,55.90625,3369.3,670.5,55.90625,3480.9,670.5,55.90625,3596,670.5,55.90625,3697.1,670.5,55.90625,3807.1,670.5,55.90625,3922.5,670.5,55.90625,4033.4,670.5,55.90625,4154.5,670.5,55.90625,4269.5,670.5,55.90625,4385.4,670.5,55.90625,4487,670.5,55.90625,4603.9,670.5,55.90625,4722.5,670.5,55.90625,4825,670.5,55.90625,4938.3]","[5064.9,5064.9,2583.3,2028.1,453.5,""oops"",""up"",""up"",""good_move"",12408.3,7342.5,3010,8942.6,455.7,""oops"",""up"",""down"",""bad_move"",15705.2,3295.7,2570.6,12409.5,725.1,""oops"",""up"",""right"",""good_move"",18680.4,2974.1,2009.3,15706.4,964.8,""oops"",""up"",""right"",""good_move"",21626.4,2945,2060.5,18681.4,884.5,""oops"",""up"",""up"",""good_move"",31947.4,10319.7,2639.2,28760.1,548.1,""smooth"",""up"",""up"",""good_move""]","",""
"22049","","<div style=""width:500px;"">
  <p>What determined the result of this run?</p>
  </div>","65","html-slider-response","50","2188291","0.0-5.0-1.8","164","1","2025-07-23 06:52:11","1f75c3e559b7213887762d5229550c2b","165.165.217.98","Mozilla/5.0 (Windows NT 10.0; Win64; x64) AppleWebKit/537.36 (KHTML, like Gecko) Chrome/138.0.0.0 Safari/537.36","WebKit","Chrome","138.0.0.0","Windows","10.0","https://app.prolific.com/","en-US,en;q=0.9","665f10dc49cd980fdf304c19","683dba2a8a9dda3513610c04","6880867d98e0fcffcc3c7c6a","3","0","665f10dc49cd980fdf304c19","3","0","2025-07-23T07:28:41.151Z","","","","","","","","","","","AttribQ","","50","","","","","","","","","","","","","","","","","","","","","","","","","","","","",""
"9212","","<div style=""width:500px;"">
  <p>How much control did you have over the ball?</p>
  </div>","42","html-slider-response","51","2197508","0.0-5.0-2.8","164","1","2025-07-23 06:52:11","1f75c3e559b7213887762d5229550c2b","165.165.217.98","Mozilla/5.0 (Windows NT 10.0; Win64; x64) AppleWebKit/537.36 (KHTML, like Gecko) Chrome/138.0.0.0 Safari/537.36","WebKit","Chrome","138.0.0.0","Windows","10.0","https://app.prolific.com/","en-US,en;q=0.9","665f10dc49cd980fdf304c19","683dba2a8a9dda3513610c04","6880867d98e0fcffcc3c7c6a","3","0","665f10dc49cd980fdf304c19","3","0","2025-07-23T07:28:50.368Z","","","","","","","","","","","ControlQ","","50","","","","","","","","","","","","","","","","","","","","","","","","","","","","",""
"134461","","<div style=""width:500px;"">
  <p>How would you describe your current emotional state?</p>
  </div>","57","html-slider-response","52","2331974","0.0-5.0-3.8","164","1","2025-07-23 06:52:11","1f75c3e559b7213887762d5229550c2b","165.165.217.98","Mozilla/5.0 (Windows NT 10.0; Win64; x64) AppleWebKit/537.36 (KHTML, like Gecko) Chrome/138.0.0.0 Safari/537.36","WebKit","Chrome","138.0.0.0","Windows","10.0","https://app.prolific.com/","en-US,en;q=0.9","665f10dc49cd980fdf304c19","683dba2a8a9dda3513610c04","6880867d98e0fcffcc3c7c6a","3","0","665f10dc49cd980fdf304c19","3","0","2025-07-23T07:31:04.833Z","","","","","","","","","","","StressQ","","50","","","","","","","","","","","","","","","","","","","","","","","","","","","","",""
"3321","","<div style=""width:500px;"">
  <p>What best describes how you currently feel?</p>
  </div>","62","html-slider-response","53","2335299","0.0-5.0-4.8","164","1","2025-07-23 06:52:11","1f75c3e559b7213887762d5229550c2b","165.165.217.98","Mozilla/5.0 (Windows NT 10.0; Win64; x64) AppleWebKit/537.36 (KHTML, like Gecko) Chrome/138.0.0.0 Safari/537.36","WebKit","Chrome","138.0.0.0","Windows","10.0","https://app.prolific.com/","en-US,en;q=0.9","665f10dc49cd980fdf304c19","683dba2a8a9dda3513610c04","6880867d98e0fcffcc3c7c6a","3","0","665f10dc49cd980fdf304c19","3","0","2025-07-23T07:31:08.158Z","","","","","","","","","","","MotivationQ","","50","","","","","","","","","","","","","","","","","","","","","","","","","","","","",""
"","","","","ctl-task-cpt","54","2363472","0.0-5.0-0.9","164","1","2025-07-23 06:52:11","1f75c3e559b7213887762d5229550c2b","165.165.217.98","Mozilla/5.0 (Windows NT 10.0; Win64; x64) AppleWebKit/537.36 (KHTML, like Gecko) Chrome/138.0.0.0 Safari/537.36","WebKit","Chrome","138.0.0.0","Windows","10.0","https://app.prolific.com/","en-US,en;q=0.9","665f10dc49cd980fdf304c19","683dba2a8a9dda3513610c04","6880867d98e0fcffcc3c7c6a","3","0","665f10dc49cd980fdf304c19","3","0","2025-07-23T07:31:36.331Z","","","","","","","","","","","","","","win-only","2","g1:SE,g2:NW","0.4","10","0","2338086.5","6202.5","11217.3","25143.5","1","4","8","6","1","1","1","11","10","0.08333333333333333","1603.7","3000","2080","[""down"",""right""]","{""num_key_presses"":4,""num_perfect"":2,""num_errors"":0,""num_randdir"":2,""num_randdir_good_moves"":2,""num_whilered"":0,""num_whileblue"":0,""num_blue"":1,""num_good_moves"":4}","[361.5,365.90625,0.6,362.5,365.90625,113.6,364.5,365.90625,235.3,364.5,365.90625,352.6,364.5,365.90625,455.8,365.5,366.90625,559,369.5,376.90625,661.8,395.5,386.90625,775,395.5,386.90625,881.3,417.5,416.90625,984.1,535.5,583.90625,1088.6,681.5,757.90625,1200.1,685.5,759.90625,1300.4,683.5,735.90625,1405.4,687.5,695.90625,1508.7,686.5,692.90625,1615.2,686.5,692.90625,1724.8,686.5,692.90625,1834.5,687.5,660.90625,1941.7,691.5,619.90625,2048.4,702.5,567.90625,2149.9,709.5,538.90625,2250.5,714.5,492.90625,2358.5,714.5,492.90625,2463.1,714.5,492.90625,2568.7,714.5,492.90625,2674.3,714.5,492.90625,2777,714.5,492.90625,2889.4,714.5,492.90625,2992.1,714.5,492.90625,3096.5,714.5,492.90625,3196.5,714.5,492.90625,3297.7,714.5,492.90625,3402.8,714.5,492.90625,3507.1,714.5,492.90625,3615.8,714.5,492.90625,3726,714.5,492.90625,3833.5,714.5,492.90625,3938.9,714.5,492.90625,4053.5,714.5,492.90625,4163.6,714.5,492.90625,4271.5,714.5,492.90625,4375.1,714.5,492.90625,4475.5,714.5,492.90625,4578.2,714.5,492.90625,4686,714.5,492.90625,4791.2,714.5,492.90625,4892.7,714.5,492.90625,4996.5]","[1546.4,1546.4,1000,0,546.4,""oops"",""down"",""down"",""good_move"",8082.6,6535.6,2554.7,4994.2,533.8,""smooth"",""down"",""down"",""good_move"",10891.7,2808.2,2197.9,8083.5,610.3,""smooth"",""right"",""right"",""good_move"",13667.2,2774.4,2225.4,10892.8,549,""oops"",""right"",""right"",""good_move""]","",""
"3336","","<div style=""width:500px;"">
  <p>What determined the result of this run?</p>
  </div>","76","html-slider-response","55","2366811","0.0-5.0-1.9","164","1","2025-07-23 06:52:11","1f75c3e559b7213887762d5229550c2b","165.165.217.98","Mozilla/5.0 (Windows NT 10.0; Win64; x64) AppleWebKit/537.36 (KHTML, like Gecko) Chrome/138.0.0.0 Safari/537.36","WebKit","Chrome","138.0.0.0","Windows","10.0","https://app.prolific.com/","en-US,en;q=0.9","665f10dc49cd980fdf304c19","683dba2a8a9dda3513610c04","6880867d98e0fcffcc3c7c6a","3","0","665f10dc49cd980fdf304c19","3","0","2025-07-23T07:31:39.671Z","","","","","","","","","","","AttribQ","","50","","","","","","","","","","","","","","","","","","","","","","","","","","","","",""
"1668","","<div style=""width:500px;"">
  <p>How much control did you have over the ball?</p>
  </div>","90","html-slider-response","56","2368483","0.0-5.0-2.9","164","1","2025-07-23 06:52:11","1f75c3e559b7213887762d5229550c2b","165.165.217.98","Mozilla/5.0 (Windows NT 10.0; Win64; x64) AppleWebKit/537.36 (KHTML, like Gecko) Chrome/138.0.0.0 Safari/537.36","WebKit","Chrome","138.0.0.0","Windows","10.0","https://app.prolific.com/","en-US,en;q=0.9","665f10dc49cd980fdf304c19","683dba2a8a9dda3513610c04","6880867d98e0fcffcc3c7c6a","3","0","665f10dc49cd980fdf304c19","3","0","2025-07-23T07:31:41.343Z","","","","","","","","","","","ControlQ","","50","","","","","","","","","","","","","","","","","","","","","","","","","","","","",""
"3401","","<div style=""width:500px;"">
  <p>How would you describe your current emotional state?</p>
  </div>","31","html-slider-response","57","2371887","0.0-5.0-3.9","164","1","2025-07-23 06:52:11","1f75c3e559b7213887762d5229550c2b","165.165.217.98","Mozilla/5.0 (Windows NT 10.0; Win64; x64) AppleWebKit/537.36 (KHTML, like Gecko) Chrome/138.0.0.0 Safari/537.36","WebKit","Chrome","138.0.0.0","Windows","10.0","https://app.prolific.com/","en-US,en;q=0.9","665f10dc49cd980fdf304c19","683dba2a8a9dda3513610c04","6880867d98e0fcffcc3c7c6a","3","0","665f10dc49cd980fdf304c19","3","0","2025-07-23T07:31:44.746Z","","","","","","","","","","","StressQ","","50","","","","","","","","","","","","","","","","","","","","","","","","","","","","",""
"43706","","<div style=""width:500px;"">
  <p>What best describes how you currently feel?</p>
  </div>","68","html-slider-response","58","2415596","0.0-5.0-4.9","164","1","2025-07-23 06:52:11","1f75c3e559b7213887762d5229550c2b","165.165.217.98","Mozilla/5.0 (Windows NT 10.0; Win64; x64) AppleWebKit/537.36 (KHTML, like Gecko) Chrome/138.0.0.0 Safari/537.36","WebKit","Chrome","138.0.0.0","Windows","10.0","https://app.prolific.com/","en-US,en;q=0.9","665f10dc49cd980fdf304c19","683dba2a8a9dda3513610c04","6880867d98e0fcffcc3c7c6a","3","0","665f10dc49cd980fdf304c19","3","0","2025-07-23T07:32:28.455Z","","","","","","","","","","","MotivationQ","","50","","","","","","","","","","","","","","","","","","","","","","","","","","","","",""
"","","","","ctl-task-cpt","59","2445012","0.0-5.0-0.10","164","1","2025-07-23 06:52:11","1f75c3e559b7213887762d5229550c2b","165.165.217.98","Mozilla/5.0 (Windows NT 10.0; Win64; x64) AppleWebKit/537.36 (KHTML, like Gecko) Chrome/138.0.0.0 Safari/537.36","WebKit","Chrome","138.0.0.0","Windows","10.0","https://app.prolific.com/","en-US,en;q=0.9","665f10dc49cd980fdf304c19","683dba2a8a9dda3513610c04","6880867d98e0fcffcc3c7c6a","3","0","665f10dc49cd980fdf304c19","3","0","2025-07-23T07:32:57.872Z","","","","","","","","","","","","","","win-only","1","g1:NE,g2:SW","0.5","11","0","2418385","1310.3","6330.6","26391.8","1","4","8","6","1","1","1","12","11","0.09090909090909091","1659.2","3000","1975","[""up"",""right""]","{""num_key_presses"":6,""num_perfect"":4,""num_errors"":0,""num_randdir"":2,""num_randdir_good_moves"":1,""num_whilered"":0,""num_whileblue"":0,""num_blue"":0,""num_good_moves"":5}","[366.5,361.90625,0.2,366.5,361.90625,108.1,366.5,361.90625,216.3,366.5,361.90625,323.1,366.5,361.90625,429.4,366.5,361.90625,541.7,366.5,361.90625,644.8,366.5,361.90625,746.3,388.5,343.90625,854.5,517.5,235.90625,965.9,583.5,171.90625,1070.4,650.5,108.90625,1178.4,677.5,83.90625,1286.9,677.5,83.90625,1396.1,677.5,76.90625,1512.3,677.5,76.90625,1613.5,677.5,76.90625,1734.5,677.5,76.90625,1837,677.5,76.90625,1939.8,677.5,76.90625,2045.6,677.5,76.90625,2147.4,677.5,76.90625,2248.2,677.5,76.90625,2348.2,677.5,76.90625,2459.7,677.5,76.90625,2564.7,677.5,76.90625,2666.5,677.5,76.90625,2771.6,677.5,76.90625,2882.8,677.5,76.90625,2999.9,677.5,76.90625,3101.5,677.5,76.90625,3205.3,677.5,76.90625,3320.3,677.5,76.90625,3432.3,677.5,76.90625,3538.6,677.5,76.90625,3648.8,677.5,76.90625,3754.4,677.5,76.90625,3858.3,677.5,76.90625,3967.6,677.5,76.90625,4083.3,677.5,76.90625,4198.8,677.5,76.90625,4301.5,677.5,76.90625,4412.3,677.5,76.90625,4524.4,677.5,76.90625,4633.5,677.5,76.90625,4736.2,677.5,76.90625,4847.8,677.5,76.90625,4955]","[2031.8,2031.8,1000,0,1031.8,""oops"",""up"",""left"",""bad_move"",5340.6,3305.4,2648.4,2035.3,657,""smooth"",""up"",""up"",""good_move"",9206.8,3865.2,3176.8,5341.6,688.4,""smooth"",""up"",""up"",""good_move"",13165.8,3958.4,2377.9,9207.4,1580.5,""smooth"",""right"",""right"",""good_move"",16215.5,3048.9,2550.3,13166.6,498.6,""smooth"",""right"",""right"",""good_move"",19809.1,3592.9,3005.3,16216.2,587.6,""oops"",""right"",""right"",""good_move""]","",""
"9898","","<div style=""width:500px;"">
  <p>What determined the result of this run?</p>
  </div>","89","html-slider-response","60","2454915","0.0-5.0-1.10","164","1","2025-07-23 06:52:11","1f75c3e559b7213887762d5229550c2b","165.165.217.98","Mozilla/5.0 (Windows NT 10.0; Win64; x64) AppleWebKit/537.36 (KHTML, like Gecko) Chrome/138.0.0.0 Safari/537.36","WebKit","Chrome","138.0.0.0","Windows","10.0","https://app.prolific.com/","en-US,en;q=0.9","665f10dc49cd980fdf304c19","683dba2a8a9dda3513610c04","6880867d98e0fcffcc3c7c6a","3","0","665f10dc49cd980fdf304c19","3","0","2025-07-23T07:33:07.774Z","","","","","","","","","","","AttribQ","","50","","","","","","","","","","","","","","","","","","","","","","","","","","","","",""
"2381","","<div style=""width:500px;"">
  <p>How much control did you have over the ball?</p>
  </div>","61","html-slider-response","61","2457298","0.0-5.0-2.10","164","1","2025-07-23 06:52:11","1f75c3e559b7213887762d5229550c2b","165.165.217.98","Mozilla/5.0 (Windows NT 10.0; Win64; x64) AppleWebKit/537.36 (KHTML, like Gecko) Chrome/138.0.0.0 Safari/537.36","WebKit","Chrome","138.0.0.0","Windows","10.0","https://app.prolific.com/","en-US,en;q=0.9","665f10dc49cd980fdf304c19","683dba2a8a9dda3513610c04","6880867d98e0fcffcc3c7c6a","3","0","665f10dc49cd980fdf304c19","3","0","2025-07-23T07:33:10.157Z","","","","","","","","","","","ControlQ","","50","","","","","","","","","","","","","","","","","","","","","","","","","","","","",""
"23727","","<div style=""width:500px;"">
  <p>How would you describe your current emotional state?</p>
  </div>","34","html-slider-response","62","2481029","0.0-5.0-3.10","164","1","2025-07-23 06:52:11","1f75c3e559b7213887762d5229550c2b","165.165.217.98","Mozilla/5.0 (Windows NT 10.0; Win64; x64) AppleWebKit/537.36 (KHTML, like Gecko) Chrome/138.0.0.0 Safari/537.36","WebKit","Chrome","138.0.0.0","Windows","10.0","https://app.prolific.com/","en-US,en;q=0.9","665f10dc49cd980fdf304c19","683dba2a8a9dda3513610c04","6880867d98e0fcffcc3c7c6a","3","0","665f10dc49cd980fdf304c19","3","0","2025-07-23T07:33:33.888Z","","","","","","","","","","","StressQ","","50","","","","","","","","","","","","","","","","","","","","","","","","","","","","",""
"5802","","<div style=""width:500px;"">
  <p>What best describes how you currently feel?</p>
  </div>","70","html-slider-response","63","2486837","0.0-5.0-4.10","164","1","2025-07-23 06:52:11","1f75c3e559b7213887762d5229550c2b","165.165.217.98","Mozilla/5.0 (Windows NT 10.0; Win64; x64) AppleWebKit/537.36 (KHTML, like Gecko) Chrome/138.0.0.0 Safari/537.36","WebKit","Chrome","138.0.0.0","Windows","10.0","https://app.prolific.com/","en-US,en;q=0.9","665f10dc49cd980fdf304c19","683dba2a8a9dda3513610c04","6880867d98e0fcffcc3c7c6a","3","0","665f10dc49cd980fdf304c19","3","0","2025-07-23T07:33:39.696Z","","","","","","","","","","","MotivationQ","","50","","","","","","","","","","","","","","","","","","","","","","","","","","","","",""
"","","","","ctl-task-cpt","64","2525404","0.0-5.0-0.11","164","1","2025-07-23 06:52:11","1f75c3e559b7213887762d5229550c2b","165.165.217.98","Mozilla/5.0 (Windows NT 10.0; Win64; x64) AppleWebKit/537.36 (KHTML, like Gecko) Chrome/138.0.0.0 Safari/537.36","WebKit","Chrome","138.0.0.0","Windows","10.0","https://app.prolific.com/","en-US,en;q=0.9","665f10dc49cd980fdf304c19","683dba2a8a9dda3513610c04","6880867d98e0fcffcc3c7c6a","3","0","665f10dc49cd980fdf304c19","3","0","2025-07-23T07:34:18.264Z","","","","","","","","","","","","","","win-only","3","g1:SW,g2:NE","0.6","12","0","2489627.5","1059","6071.5","35520.9","1","4","4","6","1","1","1","13","12","0.09848484848484848","2271.9","3000","1845","[""down"",""left""]","{""num_key_presses"":6,""num_perfect"":4,""num_errors"":0,""num_randdir"":2,""num_randdir_good_moves"":1,""num_whilered"":0,""num_whileblue"":0,""num_blue"":3,""num_good_moves"":5}","[361.5,365.90625,1,361.5,365.90625,109.8,361.5,365.90625,216.9,361.5,365.90625,322.7,361.5,365.90625,442,361.5,365.90625,559.3,361.5,365.90625,659.9,377.5,359.90625,766,375.5,359.90625,876.5,375.5,359.90625,976.5,375.5,359.90625,1079.4,360.5,373.90625,1189,240.5,493.90625,1311.2,100.5,581.90625,1420.7,64.5,597.90625,1524.7,51.5,627.90625,1638.6,34.5,673.90625,1742.8,34.5,673.90625,1846.9,34.5,670.90625,1960,34.5,670.90625,2073.3,34.5,670.90625,2195.6,34.5,670.90625,2323.4,33.5,670.90625,2436.8,106.5,654.90625,2558.3,1191.5,395.90625,2678.3,1191.5,395.90625,2781.1,1191.5,395.90625,2896,1191.5,395.90625,3000.5,1191.5,395.90625,3103.2,1191.5,395.90625,3203.8,1191.5,395.90625,3327.3,1191.5,395.90625,3445.5,1191.5,395.90625,3548,1191.5,395.90625,3660.7,1191.5,395.90625,3769.1,1191.5,395.90625,3876.9,1191.5,395.90625,3991.3,1191.5,395.90625,4104.9,1191.5,395.90625,4209.8,1191.5,395.90625,4323.8,1191.5,395.90625,4436,1191.5,395.90625,4549,1191.5,395.90625,4653.7,1191.5,395.90625,4775,1191.5,395.90625,4894.7,1191.5,395.90625,4994.8]","[5111.5,5111.5,2521.8,2012.9,576.8,""smooth"",""down"",""down"",""good_move"",11127,6014.3,2272.4,8324.7,530,""smooth"",""down"",""down"",""good_move"",15343,4215.5,2593.8,11127.5,1621.7,""oops"",""left"",""up"",""bad_move"",18474,3129.4,1949.7,15344.7,1179.7,""smooth"",""left"",""left"",""good_move"",24951.1,6476.2,2427.2,21961.2,562.7,""smooth"",""left"",""left"",""good_move"",29073.2,4121.7,2466.7,24951.5,1655,""oops"",""down"",""down"",""good_move""]","",""
"43072","","<div style=""width:500px;"">
  <p>What determined the result of this run?</p>
  </div>","59","html-slider-response","65","2568482","0.0-5.0-1.11","164","1","2025-07-23 06:52:11","1f75c3e559b7213887762d5229550c2b","165.165.217.98","Mozilla/5.0 (Windows NT 10.0; Win64; x64) AppleWebKit/537.36 (KHTML, like Gecko) Chrome/138.0.0.0 Safari/537.36","WebKit","Chrome","138.0.0.0","Windows","10.0","https://app.prolific.com/","en-US,en;q=0.9","665f10dc49cd980fdf304c19","683dba2a8a9dda3513610c04","6880867d98e0fcffcc3c7c6a","3","0","665f10dc49cd980fdf304c19","3","0","2025-07-23T07:35:01.342Z","","","","","","","","","","","AttribQ","","50","","","","","","","","","","","","","","","","","","","","","","","","","","","","",""
"6414","","<div style=""width:500px;"">
  <p>How much control did you have over the ball?</p>
  </div>","69","html-slider-response","66","2574901","0.0-5.0-2.11","164","1","2025-07-23 06:52:11","1f75c3e559b7213887762d5229550c2b","165.165.217.98","Mozilla/5.0 (Windows NT 10.0; Win64; x64) AppleWebKit/537.36 (KHTML, like Gecko) Chrome/138.0.0.0 Safari/537.36","WebKit","Chrome","138.0.0.0","Windows","10.0","https://app.prolific.com/","en-US,en;q=0.9","665f10dc49cd980fdf304c19","683dba2a8a9dda3513610c04","6880867d98e0fcffcc3c7c6a","3","0","665f10dc49cd980fdf304c19","3","0","2025-07-23T07:35:07.760Z","","","","","","","","","","","ControlQ","","50","","","","","","","","","","","","","","","","","","","","","","","","","","","","",""
"10112","","<div style=""width:500px;"">
  <p>How would you describe your current emotional state?</p>
  </div>","36","html-slider-response","67","2585017","0.0-5.0-3.11","164","1","2025-07-23 06:52:11","1f75c3e559b7213887762d5229550c2b","165.165.217.98","Mozilla/5.0 (Windows NT 10.0; Win64; x64) AppleWebKit/537.36 (KHTML, like Gecko) Chrome/138.0.0.0 Safari/537.36","WebKit","Chrome","138.0.0.0","Windows","10.0","https://app.prolific.com/","en-US,en;q=0.9","665f10dc49cd980fdf304c19","683dba2a8a9dda3513610c04","6880867d98e0fcffcc3c7c6a","3","0","665f10dc49cd980fdf304c19","3","0","2025-07-23T07:35:17.877Z","","","","","","","","","","","StressQ","","50","","","","","","","","","","","","","","","","","","","","","","","","","","","","",""
"17825","","<div style=""width:500px;"">
  <p>What best describes how you currently feel?</p>
  </div>","68","html-slider-response","68","2602845","0.0-5.0-4.11","164","1","2025-07-23 06:52:11","1f75c3e559b7213887762d5229550c2b","165.165.217.98","Mozilla/5.0 (Windows NT 10.0; Win64; x64) AppleWebKit/537.36 (KHTML, like Gecko) Chrome/138.0.0.0 Safari/537.36","WebKit","Chrome","138.0.0.0","Windows","10.0","https://app.prolific.com/","en-US,en;q=0.9","665f10dc49cd980fdf304c19","683dba2a8a9dda3513610c04","6880867d98e0fcffcc3c7c6a","3","0","665f10dc49cd980fdf304c19","3","0","2025-07-23T07:35:35.704Z","","","","","","","","","","","MotivationQ","","50","","","","","","","","","","","","","","","","","","","","","","","","","","","","",""
"","","","","ctl-task-cpt","69","2629688","0.0-5.0-0.12","164","1","2025-07-23 06:52:11","1f75c3e559b7213887762d5229550c2b","165.165.217.98","Mozilla/5.0 (Windows NT 10.0; Win64; x64) AppleWebKit/537.36 (KHTML, like Gecko) Chrome/138.0.0.0 Safari/537.36","WebKit","Chrome","138.0.0.0","Windows","10.0","https://app.prolific.com/","en-US,en;q=0.9","665f10dc49cd980fdf304c19","683dba2a8a9dda3513610c04","6880867d98e0fcffcc3c7c6a","3","0","665f10dc49cd980fdf304c19","3","0","2025-07-23T07:36:02.547Z","","","","","","","","","","","","","","win-only","2","g1:SE,g2:NW","0.7","13","0","2605631.1","4584.1","9619.2","23808.3","1","4","8","6","1","1","1","14","13","0.10606060606060606","1605.3","3000","2095","[""down"",""right""]","{""num_key_presses"":4,""num_perfect"":2,""num_errors"":0,""num_randdir"":2,""num_randdir_good_moves"":2,""num_whilered"":0,""num_whileblue"":0,""num_blue"":0,""num_good_moves"":4}","[356.5,355.90625,1.1,356.5,355.90625,134.8,356.5,355.90625,253.4,356.5,355.90625,370.5,356.5,355.90625,471.8,356.5,355.90625,578.4,356.5,355.90625,691.5,356.5,355.90625,821.1,364.5,362.90625,929.2,476.5,515.90625,1046.8,570.5,597.90625,1162,641.5,653.90625,1291.1,659.5,661.90625,1402.5,670.5,660.90625,1511.7,671.5,659.90625,1629.2,671.5,659.90625,1734.5,671.5,659.90625,1845.9,671.5,659.90625,1956.2,671.5,659.90625,2072.8,864.5,637.90625,2195.5,1274.5,588.90625,2304.7,1274.5,588.90625,2414.3,1274.5,588.90625,2523,1274.5,588.90625,2635.2,1274.5,588.90625,2740.6,1274.5,588.90625,2849.2,1274.5,588.90625,2968,1274.5,588.90625,3098.7,1274.5,588.90625,3202.2,1274.5,588.90625,3314.3,1274.5,588.90625,3415.4,1274.5,588.90625,3525.3,1274.5,588.90625,3632.3,1274.5,588.90625,3738.1,1274.5,588.90625,3856.6,1274.5,588.90625,3966.1,1274.5,588.90625,4088.6,1274.5,588.90625,4191.8,1274.5,588.90625,4299.6,1274.5,588.90625,4417.7,1274.5,588.90625,4530,1274.5,588.90625,4635.1,1274.5,588.90625,4754.5,1274.5,588.90625,4897.7]","[4616.6,4616.6,1000,0,3616.6,""smooth"",""down"",""down"",""good_move"",7410,2791.9,2008.4,4618.3,783.4,""smooth"",""down"",""down"",""good_move"",10957.1,3545.4,2943.2,7411.7,602.2,""oops"",""right"",""right"",""good_move"",13728.4,2770.6,2357.2,10957.9,413.4,""oops"",""right"",""right"",""good_move""]","",""
"3301","","<div style=""width:500px;"">
  <p>What determined the result of this run?</p>
  </div>","84","html-slider-response","70","2632995","0.0-5.0-1.12","164","1","2025-07-23 06:52:11","1f75c3e559b7213887762d5229550c2b","165.165.217.98","Mozilla/5.0 (Windows NT 10.0; Win64; x64) AppleWebKit/537.36 (KHTML, like Gecko) Chrome/138.0.0.0 Safari/537.36","WebKit","Chrome","138.0.0.0","Windows","10.0","https://app.prolific.com/","en-US,en;q=0.9","665f10dc49cd980fdf304c19","683dba2a8a9dda3513610c04","6880867d98e0fcffcc3c7c6a","3","0","665f10dc49cd980fdf304c19","3","0","2025-07-23T07:36:05.854Z","","","","","","","","","","","AttribQ","","50","","","","","","","","","","","","","","","","","","","","","","","","","","","","",""
"1826","","<div style=""width:500px;"">
  <p>How much control did you have over the ball?</p>
  </div>","72","html-slider-response","71","2634824","0.0-5.0-2.12","164","1","2025-07-23 06:52:11","1f75c3e559b7213887762d5229550c2b","165.165.217.98","Mozilla/5.0 (Windows NT 10.0; Win64; x64) AppleWebKit/537.36 (KHTML, like Gecko) Chrome/138.0.0.0 Safari/537.36","WebKit","Chrome","138.0.0.0","Windows","10.0","https://app.prolific.com/","en-US,en;q=0.9","665f10dc49cd980fdf304c19","683dba2a8a9dda3513610c04","6880867d98e0fcffcc3c7c6a","3","0","665f10dc49cd980fdf304c19","3","0","2025-07-23T07:36:07.683Z","","","","","","","","","","","ControlQ","","50","","","","","","","","","","","","","","","","","","","","","","","","","","","","",""
"3353","","<div style=""width:500px;"">
  <p>How would you describe your current emotional state?</p>
  </div>","25","html-slider-response","72","2638180","0.0-5.0-3.12","164","1","2025-07-23 06:52:11","1f75c3e559b7213887762d5229550c2b","165.165.217.98","Mozilla/5.0 (Windows NT 10.0; Win64; x64) AppleWebKit/537.36 (KHTML, like Gecko) Chrome/138.0.0.0 Safari/537.36","WebKit","Chrome","138.0.0.0","Windows","10.0","https://app.prolific.com/","en-US,en;q=0.9","665f10dc49cd980fdf304c19","683dba2a8a9dda3513610c04","6880867d98e0fcffcc3c7c6a","3","0","665f10dc49cd980fdf304c19","3","0","2025-07-23T07:36:11.040Z","","","","","","","","","","","StressQ","","50","","","","","","","","","","","","","","","","","","","","","","","","","","","","",""
"2694","","<div style=""width:500px;"">
  <p>What best describes how you currently feel?</p>
  </div>","63","html-slider-response","73","2640877","0.0-5.0-4.12","164","1","2025-07-23 06:52:11","1f75c3e559b7213887762d5229550c2b","165.165.217.98","Mozilla/5.0 (Windows NT 10.0; Win64; x64) AppleWebKit/537.36 (KHTML, like Gecko) Chrome/138.0.0.0 Safari/537.36","WebKit","Chrome","138.0.0.0","Windows","10.0","https://app.prolific.com/","en-US,en;q=0.9","665f10dc49cd980fdf304c19","683dba2a8a9dda3513610c04","6880867d98e0fcffcc3c7c6a","3","0","665f10dc49cd980fdf304c19","3","0","2025-07-23T07:36:13.736Z","","","","","","","","","","","MotivationQ","","50","","","","","","","","","","","","","","","","","","","","","","","","","","","","",""
"","","","","ctl-task-cpt","74","2668715","0.0-5.0-0.13","164","1","2025-07-23 06:52:11","1f75c3e559b7213887762d5229550c2b","165.165.217.98","Mozilla/5.0 (Windows NT 10.0; Win64; x64) AppleWebKit/537.36 (KHTML, like Gecko) Chrome/138.0.0.0 Safari/537.36","WebKit","Chrome","138.0.0.0","Windows","10.0","https://app.prolific.com/","en-US,en;q=0.9","665f10dc49cd980fdf304c19","683dba2a8a9dda3513610c04","6880867d98e0fcffcc3c7c6a","3","0","665f10dc49cd980fdf304c19","3","0","2025-07-23T07:36:41.574Z","","","","","","","","","","","","","","win-only","2","g1:SE,g2:NW","0.8","14","0","2643663.2","1843.1","6863.2","24807.2","1","4","4","6","1","1","1","15","14","0.11363636363636363","1353.1","3000","2320","[""down"",""right""]","{""num_key_presses"":4,""num_perfect"":4,""num_errors"":0,""num_randdir"":0,""num_randdir_good_moves"":0,""num_whilered"":0,""num_whileblue"":0,""num_blue"":2,""num_good_moves"":4}","[365.5,366.90625,0.7,365.5,366.90625,107.4,365.5,366.90625,211.7,365.5,366.90625,329,365.5,366.90625,452.9,365.5,369.90625,562.6,367.5,376.90625,671.7,392.5,418.90625,784.8,513.5,557.90625,888.1,598.5,646.90625,989.4,598.5,646.90625,1090.1,661.5,644.90625,1201.2,670.5,644.90625,1311.6,670.5,644.90625,1422.1,670.5,644.90625,1533.6,670.5,644.90625,1640.5,670.5,644.90625,1758.3,670.5,644.90625,1863.5,670.5,644.90625,1985.8,670.5,644.90625,2094.5,670.5,644.90625,2210.1,670.5,644.90625,2311.5,670.5,644.90625,2420.6,670.5,644.90625,2529.8,670.5,644.90625,2648.7,670.5,644.90625,2766,670.5,644.90625,2878.4,670.5,644.90625,2992.6,670.5,644.90625,3095.8,670.5,644.90625,3209.7,670.5,644.90625,3312.1,670.5,644.90625,3421.2,670.5,644.90625,3525,670.5,644.90625,3625.3,670.5,644.90625,3726.9,670.5,644.90625,3833.8,670.5,644.90625,3953,670.5,644.90625,4058.8,670.5,644.90625,4176.2,670.5,644.90625,4279.5,670.5,644.90625,4379.7,670.5,644.90625,4483.5,670.5,644.90625,4597.1,670.5,644.90625,4710.9,670.5,644.90625,4814.1,670.5,644.90625,4923.4]","[1619,1619,1000,0,619,""smooth"",""right"",""right"",""good_move"",5180.4,3560.5,2861.1,1620,699.4,""smooth"",""right"",""right"",""good_move"",7899.6,2718.3,2282.5,5181.3,435.8,""smooth"",""down"",""down"",""good_move"",17746.6,9846.4,2291.2,15032.2,423.2,""smooth"",""down"",""down"",""good_move""]","",""
"3579","","<div style=""width:500px;"">
  <p>What determined the result of this run?</p>
  </div>","95","html-slider-response","75","2672298","0.0-5.0-1.13","164","1","2025-07-23 06:52:11","1f75c3e559b7213887762d5229550c2b","165.165.217.98","Mozilla/5.0 (Windows NT 10.0; Win64; x64) AppleWebKit/537.36 (KHTML, like Gecko) Chrome/138.0.0.0 Safari/537.36","WebKit","Chrome","138.0.0.0","Windows","10.0","https://app.prolific.com/","en-US,en;q=0.9","665f10dc49cd980fdf304c19","683dba2a8a9dda3513610c04","6880867d98e0fcffcc3c7c6a","3","0","665f10dc49cd980fdf304c19","3","0","2025-07-23T07:36:45.157Z","","","","","","","","","","","AttribQ","","50","","","","","","","","","","","","","","","","","","","","","","","","","","","","",""
"127639","","<div style=""width:500px;"">
  <p>How much control did you have over the ball?</p>
  </div>","74","html-slider-response","76","2799939","0.0-5.0-2.13","164","1","2025-07-23 06:52:11","1f75c3e559b7213887762d5229550c2b","165.165.217.98","Mozilla/5.0 (Windows NT 10.0; Win64; x64) AppleWebKit/537.36 (KHTML, like Gecko) Chrome/138.0.0.0 Safari/537.36","WebKit","Chrome","138.0.0.0","Windows","10.0","https://app.prolific.com/","en-US,en;q=0.9","665f10dc49cd980fdf304c19","683dba2a8a9dda3513610c04","6880867d98e0fcffcc3c7c6a","3","0","665f10dc49cd980fdf304c19","3","0","2025-07-23T07:38:52.799Z","","","","","","","","","","","ControlQ","","50","","","","","","","","","","","","","","","","","","","","","","","","","","","","",""
"2660","","<div style=""width:500px;"">
  <p>How would you describe your current emotional state?</p>
  </div>","34","html-slider-response","77","2802603","0.0-5.0-3.13","164","1","2025-07-23 06:52:11","1f75c3e559b7213887762d5229550c2b","165.165.217.98","Mozilla/5.0 (Windows NT 10.0; Win64; x64) AppleWebKit/537.36 (KHTML, like Gecko) Chrome/138.0.0.0 Safari/537.36","WebKit","Chrome","138.0.0.0","Windows","10.0","https://app.prolific.com/","en-US,en;q=0.9","665f10dc49cd980fdf304c19","683dba2a8a9dda3513610c04","6880867d98e0fcffcc3c7c6a","3","0","665f10dc49cd980fdf304c19","3","0","2025-07-23T07:38:55.462Z","","","","","","","","","","","StressQ","","50","","","","","","","","","","","","","","","","","","","","","","","","","","","","",""
"1970","","<div style=""width:500px;"">
  <p>What best describes how you currently feel?</p>
  </div>","67","html-slider-response","78","2804574","0.0-5.0-4.13","164","1","2025-07-23 06:52:11","1f75c3e559b7213887762d5229550c2b","165.165.217.98","Mozilla/5.0 (Windows NT 10.0; Win64; x64) AppleWebKit/537.36 (KHTML, like Gecko) Chrome/138.0.0.0 Safari/537.36","WebKit","Chrome","138.0.0.0","Windows","10.0","https://app.prolific.com/","en-US,en;q=0.9","665f10dc49cd980fdf304c19","683dba2a8a9dda3513610c04","6880867d98e0fcffcc3c7c6a","3","0","665f10dc49cd980fdf304c19","3","0","2025-07-23T07:38:57.434Z","","","","","","","","","","","MotivationQ","","50","","","","","","","","","","","","","","","","","","","","","","","","","","","","",""
"","","","","ctl-task-cpt","79","2833765","0.0-5.0-0.14","164","1","2025-07-23 06:52:11","1f75c3e559b7213887762d5229550c2b","165.165.217.98","Mozilla/5.0 (Windows NT 10.0; Win64; x64) AppleWebKit/537.36 (KHTML, like Gecko) Chrome/138.0.0.0 Safari/537.36","WebKit","Chrome","138.0.0.0","Windows","10.0","https://app.prolific.com/","en-US,en;q=0.9","665f10dc49cd980fdf304c19","683dba2a8a9dda3513610c04","6880867d98e0fcffcc3c7c6a","3","0","665f10dc49cd980fdf304c19","3","0","2025-07-23T07:39:26.624Z","","","","","","","","","","","","","","win-only","3","g1:SW,g2:NE","0.9","15","0","2807369.8","1479.2","6487.6","26160.3","1","4","8","6","1","1","1","16","15","0.12121212121212122","1125.2","3000","2160","[""down"",""left""]","{""num_key_presses"":4,""num_perfect"":4,""num_errors"":0,""num_randdir"":0,""num_randdir_good_moves"":0,""num_whilered"":0,""num_whileblue"":0,""num_blue"":2,""num_good_moves"":4}","[365.5,361.90625,0.4,365.5,361.90625,113.3,364.5,361.90625,216.3,364.5,361.90625,338.5,364.5,361.90625,438.6,363.5,362.90625,553.9,348.5,385.90625,670.6,120.5,595.90625,785.9,82.5,613.90625,897.8,52.5,626.90625,1001.3,46.5,633.90625,1107.2,47.5,633.90625,1236.7,140.5,615.90625,1350.2,351.5,555.90625,1456.5,414.5,522.90625,1578,419.5,517.90625,1688.1,419.5,517.90625,1795,419.5,517.90625,1913.5,419.5,517.90625,2025.9,419.5,517.90625,2126.5,419.5,517.90625,2239.3,419.5,517.90625,2355.4,419.5,517.90625,2457,419.5,517.90625,2558.9,419.5,517.90625,2661.2,419.5,517.90625,2773.5,419.5,517.90625,2879.2,419.5,517.90625,2984.7,419.5,517.90625,3087,419.5,517.90625,3189.6,419.5,517.90625,3300,419.5,517.90625,3424.1,419.5,517.90625,3536.4,419.5,517.90625,3639.9,419.5,517.90625,3740.4,419.5,517.90625,3850,419.5,517.90625,3957.7,419.5,517.90625,4068.1,419.5,517.90625,4173.2,419.5,517.90625,4284.5,419.5,517.90625,4391.3,419.5,517.90625,4496.5,419.5,517.90625,4597.4,419.5,517.90625,4704.3,419.5,517.90625,4807.4,419.5,517.90625,4920.6]","[8379,8379,2854.6,5044.5,479.9,""smooth"",""down"",""down"",""good_move"",11751.3,3371.5,2530.8,8379.9,840.6,""smooth"",""left"",""left"",""good_move"",16032.3,4280.4,2936.9,11751.9,1343.5,""smooth"",""left"",""left"",""good_move"",19360.1,3327.6,2680.2,16032.5,647.4,""smooth"",""down"",""down"",""good_move""]","",""
"17421","","<div style=""width:500px;"">
  <p>What determined the result of this run?</p>
  </div>","69","html-slider-response","80","2851194","0.0-5.0-1.14","164","1","2025-07-23 06:52:11","1f75c3e559b7213887762d5229550c2b","165.165.217.98","Mozilla/5.0 (Windows NT 10.0; Win64; x64) AppleWebKit/537.36 (KHTML, like Gecko) Chrome/138.0.0.0 Safari/537.36","WebKit","Chrome","138.0.0.0","Windows","10.0","https://app.prolific.com/","en-US,en;q=0.9","665f10dc49cd980fdf304c19","683dba2a8a9dda3513610c04","6880867d98e0fcffcc3c7c6a","3","0","665f10dc49cd980fdf304c19","3","0","2025-07-23T07:39:44.053Z","","","","","","","","","","","AttribQ","","50","","","","","","","","","","","","","","","","","","","","","","","","","","","","",""
"46373","","<div style=""width:500px;"">
  <p>How much control did you have over the ball?</p>
  </div>","58","html-slider-response","81","2897569","0.0-5.0-2.14","164","1","2025-07-23 06:52:11","1f75c3e559b7213887762d5229550c2b","165.165.217.98","Mozilla/5.0 (Windows NT 10.0; Win64; x64) AppleWebKit/537.36 (KHTML, like Gecko) Chrome/138.0.0.0 Safari/537.36","WebKit","Chrome","138.0.0.0","Windows","10.0","https://app.prolific.com/","en-US,en;q=0.9","665f10dc49cd980fdf304c19","683dba2a8a9dda3513610c04","6880867d98e0fcffcc3c7c6a","3","0","665f10dc49cd980fdf304c19","3","0","2025-07-23T07:40:30.428Z","","","","","","","","","","","ControlQ","","50","","","","","","","","","","","","","","","","","","","","","","","","","","","","",""
"20262","","<div style=""width:500px;"">
  <p>How would you describe your current emotional state?</p>
  </div>","38","html-slider-response","82","2917838","0.0-5.0-3.14","164","1","2025-07-23 06:52:11","1f75c3e559b7213887762d5229550c2b","165.165.217.98","Mozilla/5.0 (Windows NT 10.0; Win64; x64) AppleWebKit/537.36 (KHTML, like Gecko) Chrome/138.0.0.0 Safari/537.36","WebKit","Chrome","138.0.0.0","Windows","10.0","https://app.prolific.com/","en-US,en;q=0.9","665f10dc49cd980fdf304c19","683dba2a8a9dda3513610c04","6880867d98e0fcffcc3c7c6a","3","0","665f10dc49cd980fdf304c19","3","0","2025-07-23T07:40:50.697Z","","","","","","","","","","","StressQ","","50","","","","","","","","","","","","","","","","","","","","","","","","","","","","",""
"3733","","<div style=""width:500px;"">
  <p>What best describes how you currently feel?</p>
  </div>","78","html-slider-response","83","2921577","0.0-5.0-4.14","164","1","2025-07-23 06:52:11","1f75c3e559b7213887762d5229550c2b","165.165.217.98","Mozilla/5.0 (Windows NT 10.0; Win64; x64) AppleWebKit/537.36 (KHTML, like Gecko) Chrome/138.0.0.0 Safari/537.36","WebKit","Chrome","138.0.0.0","Windows","10.0","https://app.prolific.com/","en-US,en;q=0.9","665f10dc49cd980fdf304c19","683dba2a8a9dda3513610c04","6880867d98e0fcffcc3c7c6a","3","0","665f10dc49cd980fdf304c19","3","0","2025-07-23T07:40:54.437Z","","","","","","","","","","","MotivationQ","","50","","","","","","","","","","","","","","","","","","","","","","","","","","","","",""
"","","","","ctl-task-cpt","84","2961339","0.0-5.0-0.15","164","1","2025-07-23 06:52:11","1f75c3e559b7213887762d5229550c2b","165.165.217.98","Mozilla/5.0 (Windows NT 10.0; Win64; x64) AppleWebKit/537.36 (KHTML, like Gecko) Chrome/138.0.0.0 Safari/537.36","WebKit","Chrome","138.0.0.0","Windows","10.0","https://app.prolific.com/","en-US,en;q=0.9","665f10dc49cd980fdf304c19","683dba2a8a9dda3513610c04","6880867d98e0fcffcc3c7c6a","3","0","665f10dc49cd980fdf304c19","3","0","2025-07-23T07:41:34.198Z","","","","","","","","","","","","","","win-only","0","g1:NW,g2:SE","0.8","16","0","2924367.8","1822.8","6846.5","36740","1","4","4","6","2","4","4","20","16","0.15151515151515152","2421.9","3000","2010","[""down"",""right""]","{""num_key_presses"":6,""num_perfect"":5,""num_errors"":0,""num_randdir"":1,""num_randdir_good_moves"":1,""num_whilered"":0,""num_whileblue"":0,""num_blue"":3,""num_good_moves"":6}","[366.5,359.90625,0.8,366.5,359.90625,108.8,366.5,359.90625,233,366.5,359.90625,334.1,366.5,359.90625,465.5,366.5,359.90625,575.3,366.5,359.90625,701.5,366.5,359.90625,804,366.5,359.90625,906.3,366.5,359.90625,1009.1,356.5,359.90625,1128.1,289.5,318.90625,1253.4,86.5,113.90625,1373.3,65.5,81.90625,1481.5,58.5,67.90625,1603.3,120.5,156.90625,1720.5,567.5,573.90625,1828.6,640.5,627.90625,1947.7,706.5,685.90625,2070,705.5,683.90625,2173.3,679.5,660.90625,2301.7,677.5,658.90625,2418.8,677.5,658.90625,2558.9,705.5,654.90625,2668.9,755.5,640.90625,2804.4,755.5,640.90625,2957.2,755.5,640.90625,3102.9,755.5,640.90625,3214.3,755.5,640.90625,3347.2,755.5,640.90625,3483.1,755.5,640.90625,3585.9,755.5,640.90625,3726.3,755.5,640.90625,3828.4,755.5,640.90625,3947.4,755.5,640.90625,4047.9,755.5,640.90625,4164.7,755.5,640.90625,4283.3,755.5,640.90625,4402.6,755.5,640.90625,4517.1,755.5,640.90625,4631.2,755.5,640.90625,4742.8,755.5,640.90625,4846.8,755.5,640.90625,4964.9]","[1511.9,1511.9,1000,0,511.9,""oops"",""down"",""right"",""good_move"",4654.8,3140.4,2441,1514.5,699.3,""smooth"",""down"",""down"",""good_move"",7801.7,3146.1,2688.2,4655.6,457.9,""smooth"",""down"",""down"",""good_move"",14812.6,7010.6,2653.5,11718.7,440.4,""smooth"",""down"",""down"",""good_move"",17788.2,2975.3,2379,14812.9,596.4,""smooth"",""right"",""right"",""good_move"",29451.1,11662.3,2570.4,26341.8,538.9,""smooth"",""right"",""right"",""good_move""]","",""
"5759","","<div style=""width:500px;"">
  <p>What determined the result of this run?</p>
  </div>","77","html-slider-response","85","2967102","0.0-5.0-1.15","164","1","2025-07-23 06:52:11","1f75c3e559b7213887762d5229550c2b","165.165.217.98","Mozilla/5.0 (Windows NT 10.0; Win64; x64) AppleWebKit/537.36 (KHTML, like Gecko) Chrome/138.0.0.0 Safari/537.36","WebKit","Chrome","138.0.0.0","Windows","10.0","https://app.prolific.com/","en-US,en;q=0.9","665f10dc49cd980fdf304c19","683dba2a8a9dda3513610c04","6880867d98e0fcffcc3c7c6a","3","0","665f10dc49cd980fdf304c19","3","0","2025-07-23T07:41:39.962Z","","","","","","","","","","","AttribQ","","50","","","","","","","","","","","","","","","","","","","","","","","","","","","","",""
"1618","","<div style=""width:500px;"">
  <p>How much control did you have over the ball?</p>
  </div>","60","html-slider-response","86","2968724","0.0-5.0-2.15","164","1","2025-07-23 06:52:11","1f75c3e559b7213887762d5229550c2b","165.165.217.98","Mozilla/5.0 (Windows NT 10.0; Win64; x64) AppleWebKit/537.36 (KHTML, like Gecko) Chrome/138.0.0.0 Safari/537.36","WebKit","Chrome","138.0.0.0","Windows","10.0","https://app.prolific.com/","en-US,en;q=0.9","665f10dc49cd980fdf304c19","683dba2a8a9dda3513610c04","6880867d98e0fcffcc3c7c6a","3","0","665f10dc49cd980fdf304c19","3","0","2025-07-23T07:41:41.583Z","","","","","","","","","","","ControlQ","","50","","","","","","","","","","","","","","","","","","","","","","","","","","","","",""
"1921","","<div style=""width:500px;"">
  <p>How would you describe your current emotional state?</p>
  </div>","31","html-slider-response","87","2970650","0.0-5.0-3.15","164","1","2025-07-23 06:52:11","1f75c3e559b7213887762d5229550c2b","165.165.217.98","Mozilla/5.0 (Windows NT 10.0; Win64; x64) AppleWebKit/537.36 (KHTML, like Gecko) Chrome/138.0.0.0 Safari/537.36","WebKit","Chrome","138.0.0.0","Windows","10.0","https://app.prolific.com/","en-US,en;q=0.9","665f10dc49cd980fdf304c19","683dba2a8a9dda3513610c04","6880867d98e0fcffcc3c7c6a","3","0","665f10dc49cd980fdf304c19","3","0","2025-07-23T07:41:43.509Z","","","","","","","","","","","StressQ","","50","","","","","","","","","","","","","","","","","","","","","","","","","","","","",""
"1855","","<div style=""width:500px;"">
  <p>What best describes how you currently feel?</p>
  </div>","70","html-slider-response","88","2972506","0.0-5.0-4.15","164","1","2025-07-23 06:52:11","1f75c3e559b7213887762d5229550c2b","165.165.217.98","Mozilla/5.0 (Windows NT 10.0; Win64; x64) AppleWebKit/537.36 (KHTML, like Gecko) Chrome/138.0.0.0 Safari/537.36","WebKit","Chrome","138.0.0.0","Windows","10.0","https://app.prolific.com/","en-US,en;q=0.9","665f10dc49cd980fdf304c19","683dba2a8a9dda3513610c04","6880867d98e0fcffcc3c7c6a","3","0","665f10dc49cd980fdf304c19","3","0","2025-07-23T07:41:45.365Z","","","","","","","","","","","MotivationQ","","50","","","","","","","","","","","","","","","","","","","","","","","","","","","","",""
"","","","","ctl-task-cpt","89","3010056","0.0-5.0-0.16","164","1","2025-07-23 06:52:11","1f75c3e559b7213887762d5229550c2b","165.165.217.98","Mozilla/5.0 (Windows NT 10.0; Win64; x64) AppleWebKit/537.36 (KHTML, like Gecko) Chrome/138.0.0.0 Safari/537.36","WebKit","Chrome","138.0.0.0","Windows","10.0","https://app.prolific.com/","en-US,en;q=0.9","665f10dc49cd980fdf304c19","683dba2a8a9dda3513610c04","6880867d98e0fcffcc3c7c6a","3","0","665f10dc49cd980fdf304c19","3","0","2025-07-23T07:42:22.915Z","","","","","","","","","","","","","","win-only","2","g1:SE,g2:NW","0.6","17","0","2975294.9","1794.9","6809.4","34517.4","1","4","4","6","1","1","1","21","20","0.1590909090909091","1615.5","3000","1830","[""down"",""right""]","{""num_key_presses"":8,""num_perfect"":5,""num_errors"":0,""num_randdir"":3,""num_randdir_good_moves"":1,""num_whilered"":0,""num_whileblue"":0,""num_blue"":2,""num_good_moves"":6}","[364.5,359.90625,0.5,364.5,359.90625,107.9,364.5,359.90625,212.2,364.5,359.90625,328,364.5,359.90625,448.4,367.5,366.90625,562.3,386.5,394.90625,679.5,541.5,560.90625,783.7,721.5,677.90625,895.8,748.5,685.90625,1011.1,733.5,684.90625,1115.7,701.5,676.90625,1227.9,700.5,675.90625,1327.9,698.5,673.90625,1432.3,694.5,670.90625,1535.3,694.5,670.90625,1647.1,694.5,670.90625,1751.6,694.5,670.90625,1852.6,696.5,610.90625,1970.5,719.5,486.90625,2075.3,723.5,466.90625,2176.9,723.5,466.90625,2297.7,723.5,466.90625,2399.9,723.5,466.90625,2510.7,723.5,466.90625,2617.1,723.5,466.90625,2722.7,723.5,466.90625,2824.6,723.5,466.90625,2940.9,723.5,466.90625,3042.1,723.5,466.90625,3143,723.5,466.90625,3258.2,723.5,466.90625,3374.9,723.5,466.90625,3494.6,723.5,466.90625,3612.8,723.5,466.90625,3714.9,723.5,466.90625,3822.8,723.5,466.90625,3940.1,723.5,466.90625,4055.5,723.5,466.90625,4168.1,723.5,466.90625,4275.5,723.5,466.90625,4381.5,723.5,466.90625,4493.9,723.5,466.90625,4616.2,723.5,466.90625,4732.9,723.5,466.90625,4842.4,723.5,466.90625,4953.8]","[1650.3,1650.3,1000,0,650.3,""oops"",""right"",""up"",""bad_move"",4889.6,3238.6,2825.8,1651,412.8,""smooth"",""right"",""right"",""good_move"",8178.2,3286.3,2797.4,4891.9,488.9,""smooth"",""right"",""right"",""good_move"",10588,2409.5,1942.8,8178.5,466.7,""smooth"",""down"",""down"",""good_move"",12872.8,2282.9,1787.4,10589.9,495.5,""smooth"",""down"",""down"",""good_move"",18633.7,5760.8,2637.3,15504,492.4,""oops"",""down"",""up"",""bad_move"",24586.8,5952.2,1954.5,22143.3,489,""oops"",""down"",""down"",""good_move"",27424.8,2836.6,2342.3,24588.2,494.3,""smooth"",""down"",""down"",""good_move""]","",""
"6824","","<div style=""width:500px;"">
  <p>What determined the result of this run?</p>
  </div>","75","html-slider-response","90","3016882","0.0-5.0-1.16","164","1","2025-07-23 06:52:11","1f75c3e559b7213887762d5229550c2b","165.165.217.98","Mozilla/5.0 (Windows NT 10.0; Win64; x64) AppleWebKit/537.36 (KHTML, like Gecko) Chrome/138.0.0.0 Safari/537.36","WebKit","Chrome","138.0.0.0","Windows","10.0","https://app.prolific.com/","en-US,en;q=0.9","665f10dc49cd980fdf304c19","683dba2a8a9dda3513610c04","6880867d98e0fcffcc3c7c6a","3","0","665f10dc49cd980fdf304c19","3","0","2025-07-23T07:42:29.741Z","","","","","","","","","","","AttribQ","","50","","","","","","","","","","","","","","","","","","","","","","","","","","","","",""
"3950","","<div style=""width:500px;"">
  <p>How much control did you have over the ball?</p>
  </div>","47","html-slider-response","91","3020835","0.0-5.0-2.16","164","1","2025-07-23 06:52:11","1f75c3e559b7213887762d5229550c2b","165.165.217.98","Mozilla/5.0 (Windows NT 10.0; Win64; x64) AppleWebKit/537.36 (KHTML, like Gecko) Chrome/138.0.0.0 Safari/537.36","WebKit","Chrome","138.0.0.0","Windows","10.0","https://app.prolific.com/","en-US,en;q=0.9","665f10dc49cd980fdf304c19","683dba2a8a9dda3513610c04","6880867d98e0fcffcc3c7c6a","3","0","665f10dc49cd980fdf304c19","3","0","2025-07-23T07:42:33.694Z","","","","","","","","","","","ControlQ","","50","","","","","","","","","","","","","","","","","","","","","","","","","","","","",""
"6260","","<div style=""width:500px;"">
  <p>How would you describe your current emotional state?</p>
