"rt","response_timestamp","stimulus","response","trial_type","trial_index","time_elapsed","internal_node_id","run_id","condition","recorded_at","source_code_version","ip","user_agent","device","browser","browser_version","platform","platform_version","referer","accept_language","PROLIFIC_PID","STUDY_ID","SESSION_ID","WEEK","BATCH","prolific_id","week","batch","realtime","success","responses","item_order","radio_event_ids","radio_event_times","key_event_times","mouse_event_times","straightlining","zigzagging","honeypot","eventType","view_history","slider_start","which_type","canvas_config","goals_layout","control_level","trial_number","tutorial_trial_number","trial_start_time","phase1_start_time","phase2_start_time","phase3_start_time","goal_1_value","goal_1_distance","goal_2_value","goal_2_distance","goal_selected","outcome","outcome_total","participant_final_score","participant_initial_score","participant_final_score_prop","goal_choice_rt","allocated_time","allocated_time_remaining","goal_direction","counts","mouse_movements","key_presses","question_order","question_id"
"8399","1752654898746","<p style='font-size:40px;line-height:1.25'><strong>Welcome to the experiment!</strong></p><p style='font-size:1.1em;line-height:1.25'>Thank you for participanting in our experiment again! You will be asked to play the Dysfunctional Ball Game again. We will briefly recap the rules before we start.</p><p style='font-size:1.1em;line-height:1.25'>Press <strong>Next</strong> to continue.</p>","0","custom-html-button-response","0","8401","0.0-0.0","77","1","2025-07-16 08:34:48","1f75c3e559b7213887762d5229550c2b","147.161.163.110","Mozilla/5.0 (Windows NT 10.0; Win64; x64) AppleWebKit/537.36 (KHTML, like Gecko) Chrome/138.0.0.0 Safari/537.36","WebKit","Chrome","138.0.0.0","Windows","10.0","https://app.prolific.com/","en-US,en;q=0.9","5a9aa66a35237b000112937b","686e379bc37a29ffa5cdc956","68776360300fae7356a5e45b","1","1","5a9aa66a35237b000112937b","1","1","2025-07-16T08:34:58.747Z","","","","","","","","","","","","","","","","","","","","","","","","","","","","","","","","","","","","","","","","","",""
"27813","","","","fullscreen","1","37228","0.0-1.0","77","1","2025-07-16 08:34:48","1f75c3e559b7213887762d5229550c2b","147.161.163.110","Mozilla/5.0 (Windows NT 10.0; Win64; x64) AppleWebKit/537.36 (KHTML, like Gecko) Chrome/138.0.0.0 Safari/537.36","WebKit","Chrome","138.0.0.0","Windows","10.0","https://app.prolific.com/","en-US,en;q=0.9","5a9aa66a35237b000112937b","686e379bc37a29ffa5cdc956","68776360300fae7356a5e45b","1","1","5a9aa66a35237b000112937b","1","1","","true","","","","","","","","","","","","","","","","","","","","","","","","","","","","","","","","","","","","","","","","",""
"4635","1752654932212","<p style='font-size:1.1em;line-height:1.25'>In the following, we will ask you a few questions relating to your feelings in the last 24 hours.<br></p><p style='font-size:1.1em;line-height:1.25'>Press the <strong>Next</strong> button to continue.</p>","0","custom-html-button-response","2","41866","0.0-2.0-0.0","77","1","2025-07-16 08:34:48","1f75c3e559b7213887762d5229550c2b","147.161.163.110","Mozilla/5.0 (Windows NT 10.0; Win64; x64) AppleWebKit/537.36 (KHTML, like Gecko) Chrome/138.0.0.0 Safari/537.36","WebKit","Chrome","138.0.0.0","Windows","10.0","https://app.prolific.com/","en-US,en;q=0.9","5a9aa66a35237b000112937b","686e379bc37a29ffa5cdc956","68776360300fae7356a5e45b","1","1","5a9aa66a35237b000112937b","1","1","2025-07-16T08:35:32.212Z","","","","","","","","","","","","","","","","","","","","","","","","","","","","","","","","","","","","","","","","","",""
"79358.59999999963","","","","survey-template","3","121228","0.0-2.0-1.0","77","1","2025-07-16 08:34:48","1f75c3e559b7213887762d5229550c2b","147.161.163.110","Mozilla/5.0 (Windows NT 10.0; Win64; x64) AppleWebKit/537.36 (KHTML, like Gecko) Chrome/138.0.0.0 Safari/537.36","WebKit","Chrome","138.0.0.0","Windows","10.0","https://app.prolific.com/","en-US,en;q=0.9","5a9aa66a35237b000112937b","686e379bc37a29ffa5cdc956","68776360300fae7356a5e45b","1","1","5a9aa66a35237b000112937b","1","1","2025-07-16T08:36:51.574Z","","{""Q01"":""1"",""Q02"":""0"",""Q03"":""0"",""Q04"":""0"",""Q05"":""0"",""Q06"":""0"",""Q07"":""0"",""Q08"":""0"",""Q09"":""0"",""Q10"":""0"",""Q11"":""0"",""Q12"":""0"",""Q13"":""5"",""Q14"":""1"",""Q15"":""0"",""Q16"":""0"",""Q17"":""0"",""Q18"":""0"",""Q19"":""0"",""Q20"":""0"",""Q21"":""0"",""Q22"":""0""}","[0,1,2,3,4,5,6,7,8,9,10,11,12,13,14,15,16,17,18,19,20,21]","[""Q01"",""Q02"",""Q03"",""Q04"",""Q05"",""Q06"",""Q07"",""Q08"",""Q09"",""Q09"",""Q10"",""Q11"",""Q12"",""Q13"",""Q14"",""Q15"",""Q16"",""Q17"",""Q18"",""Q19"",""Q20"",""Q21"",""Q22""]","[13404.400000000373,14627.200000001118,15787.300000000745,16731.5,17749.300000000745,18779,20899.200000001118,22890.900000000373,28180.200000001118,33946.90000000037,37250.20000000112,40186.40000000037,43442.90000000037,45482.800000000745,50754.800000000745,53602.800000000745,55434.800000000745,57020.09999999963,59268.5,61779.300000000745,67019.20000000112,70266.09999999963,72722.70000000112]","[]","[0.09999999962747097,13404.400000000373,14627.200000001118,15787.300000000745,16731.5,17749.300000000745,18779,20899.200000001118,22890.900000000373,28180.200000001118,33946.90000000037,37250.20000000112,40186.40000000037,43442.90000000037,45482.800000000745,50754.800000000745,53602.800000000745,55434.800000000745,57020.09999999963,59268.5,61779.300000000745,67019.20000000112,70266.09999999963,72722.70000000112,79355]","0.8636363636363636","0.14285714285714285","0","drsp","","","","","","","","","","","","","","","","","","","","","","","","","","","","","","",""
"19690.799999998882","","","","survey-template","4","140920","0.0-2.0-2.0","77","1","2025-07-16 08:34:48","1f75c3e559b7213887762d5229550c2b","147.161.163.110","Mozilla/5.0 (Windows NT 10.0; Win64; x64) AppleWebKit/537.36 (KHTML, like Gecko) Chrome/138.0.0.0 Safari/537.36","WebKit","Chrome","138.0.0.0","Windows","10.0","https://app.prolific.com/","en-US,en;q=0.9","5a9aa66a35237b000112937b","686e379bc37a29ffa5cdc956","68776360300fae7356a5e45b","1","1","5a9aa66a35237b000112937b","1","1","2025-07-16T08:37:11.266Z","","{""Q01"":""0"",""Q02"":""2"",""Q03"":""0""}","[0,1,2]","[""Q01"",""Q02"",""Q03""]","[3826.4000000003725,13244.299999998882,18564.199999999255]","[]","[3826.4000000003725,13244.299999998882,18564.199999999255,19690.099999999627]","0.6666666666666666","0","0","stress","","","","","","","","","","","","","","","","","","","","","","","","","","","","","","",""
"17311","","","","instructions","5","158232","0.0-3.0-0.0","77","1","2025-07-16 08:34:48","1f75c3e559b7213887762d5229550c2b","147.161.163.110","Mozilla/5.0 (Windows NT 10.0; Win64; x64) AppleWebKit/537.36 (KHTML, like Gecko) Chrome/138.0.0.0 Safari/537.36","WebKit","Chrome","138.0.0.0","Windows","10.0","https://app.prolific.com/","en-US,en;q=0.9","5a9aa66a35237b000112937b","686e379bc37a29ffa5cdc956","68776360300fae7356a5e45b","1","1","5a9aa66a35237b000112937b","1","1","","","","","","","","","","","","","[{""page_index"":0,""viewing_time"":17310}]","","","","","","","","","","","","","","","","","","","","","","","","","","","","","",""
"18734","","<p>Before you start with this game please answer the following three questions yourself. </p>
  <p>Through this game, we measure several aspects of your cognitive performance, such as reaction times, multi-tasking capabilities </p>
  <p>and the ability to assess the situation you are in.</p>
  <p></p>
  <p><b>How good do you usually are in such tasks?</b></p>","96","html-slider-response","6","176968","0.0-4.0-0.0","77","1","2025-07-16 08:34:48","1f75c3e559b7213887762d5229550c2b","147.161.163.110","Mozilla/5.0 (Windows NT 10.0; Win64; x64) AppleWebKit/537.36 (KHTML, like Gecko) Chrome/138.0.0.0 Safari/537.36","WebKit","Chrome","138.0.0.0","Windows","10.0","https://app.prolific.com/","en-US,en;q=0.9","5a9aa66a35237b000112937b","686e379bc37a29ffa5cdc956","68776360300fae7356a5e45b","1","1","5a9aa66a35237b000112937b","1","1","2025-07-16T08:37:47.314Z","","","","","","","","","","","PreSkillQ","","50","","","","","","","","","","","","","","","","","","","","","","","","","","","","",""
"9479","","<div style=""width:500px;"">
  <p>How well do you think you will perform in this task compared to other participants?</p>
  </div>","90","html-slider-response","7","186448","0.0-4.0-1.0","77","1","2025-07-16 08:34:48","1f75c3e559b7213887762d5229550c2b","147.161.163.110","Mozilla/5.0 (Windows NT 10.0; Win64; x64) AppleWebKit/537.36 (KHTML, like Gecko) Chrome/138.0.0.0 Safari/537.36","WebKit","Chrome","138.0.0.0","Windows","10.0","https://app.prolific.com/","en-US,en;q=0.9","5a9aa66a35237b000112937b","686e379bc37a29ffa5cdc956","68776360300fae7356a5e45b","1","1","5a9aa66a35237b000112937b","1","1","2025-07-16T08:37:56.794Z","","","","","","","","","","","PrePerfQ","","50","","","","","","","","","","","","","","","","","","","","","","","","","","","","",""
"7511","","<div style=""width:500px;"">
  <p>What best describes how you currently feel?</p>
  </div>","98","html-slider-response","8","193960","0.0-4.0-2.0","77","1","2025-07-16 08:34:48","1f75c3e559b7213887762d5229550c2b","147.161.163.110","Mozilla/5.0 (Windows NT 10.0; Win64; x64) AppleWebKit/537.36 (KHTML, like Gecko) Chrome/138.0.0.0 Safari/537.36","WebKit","Chrome","138.0.0.0","Windows","10.0","https://app.prolific.com/","en-US,en;q=0.9","5a9aa66a35237b000112937b","686e379bc37a29ffa5cdc956","68776360300fae7356a5e45b","1","1","5a9aa66a35237b000112937b","1","1","2025-07-16T08:38:04.306Z","","","","","","","","","","","PreMotivationQ","","50","","","","","","","","","","","","","","","","","","","","","","","","","","","","",""
"","","","","ctl-task-cpt","9","238464","0.0-5.0-0.0","77","1","2025-07-16 08:34:48","1f75c3e559b7213887762d5229550c2b","147.161.163.110","Mozilla/5.0 (Windows NT 10.0; Win64; x64) AppleWebKit/537.36 (KHTML, like Gecko) Chrome/138.0.0.0 Safari/537.36","WebKit","Chrome","138.0.0.0","Windows","10.0","https://app.prolific.com/","en-US,en;q=0.9","5a9aa66a35237b000112937b","686e379bc37a29ffa5cdc956","68776360300fae7356a5e45b","1","1","5a9aa66a35237b000112937b","1","1","2025-07-16T08:38:48.810Z","","","","","","","","","","","","","","win-only","3","g1:SW,g2:NE","1","1","0","197928.7","7965.5","12971.9","41492.7","1","4","8","6","2","8","8","8","0","0.06060606060606061","2381.7","3000","120","[""up"",""right""]","{""num_key_presses"":6,""num_perfect"":6,""num_errors"":0,""num_randdir"":0,""num_randdir_good_moves"":0,""num_whilered"":0,""num_whileblue"":0,""num_blue"":3,""num_good_moves"":6}","[409,405.90625,0.2,409,405.90625,100.5,409,405.90625,201.2,409,405.90625,301.4,409,405.90625,405.8,409,405.90625,505.8,409,405.90625,605.9,409,405.90625,714.3,409,405.90625,815.3,409,405.90625,920,409,405.90625,1020.1,409,405.90625,1131.1,409,405.90625,1231.1,409,405.90625,1331.3,409,405.90625,1431.3,409,405.90625,1531.3,409,405.90625,1635.3,401,412.90625,1740.3,406,423.90625,1841.2,385,439.90625,1948.3,506,348.90625,2048.3,715,155.90625,2148.3,749,59.90625,2248.5,745,47.90625,2349,745,47.90625,2451.4,745,47.90625,2555,745,47.90625,2655,745,47.90625,2756.4,745,47.90625,2865.5,745,47.90625,2965.5,745,47.90625,3065.6,745,47.90625,3165.6,745,47.90625,3270.1,745,47.90625,3370.4,745,47.90625,3470.7,745,47.90625,3571,745,47.90625,3675.8,745,47.90625,3775.9,745,47.90625,3882.9,745,47.90625,3985.1,745,47.90625,4085.9,745,47.90625,4190.4,745,47.90625,4299.7,745,47.90625,4400.1,745,47.90625,4505.4,745,47.90625,4610.1,745,47.90625,4716.8,745,47.90625,4819.8,745,47.90625,4920]","[1478.1,1478.1,1000,0,478.1,""smooth"",""up"",""up"",""good_move"",11689.1,10210.9,2425.7,8774.7,488.7,""smooth"",""up"",""up"",""good_move"",15025,3335.7,2562.7,11689.3,773,""smooth"",""up"",""up"",""good_move"",21390.4,6365.3,2648.6,18238.4,503.4,""smooth"",""right"",""right"",""good_move"",25076.2,3685.5,3198.8,21390.7,486.7,""smooth"",""right"",""right"",""good_move"",28428.4,3352,2833.5,25076.4,518.5,""smooth"",""right"",""right"",""good_move""]","",""
"5560","","<div style=""width:500px;"">
  <p>What determined the result of this run?</p>
  </div>","100","html-slider-response","10","244024","0.0-5.0-1.0","77","1","2025-07-16 08:34:48","1f75c3e559b7213887762d5229550c2b","147.161.163.110","Mozilla/5.0 (Windows NT 10.0; Win64; x64) AppleWebKit/537.36 (KHTML, like Gecko) Chrome/138.0.0.0 Safari/537.36","WebKit","Chrome","138.0.0.0","Windows","10.0","https://app.prolific.com/","en-US,en;q=0.9","5a9aa66a35237b000112937b","686e379bc37a29ffa5cdc956","68776360300fae7356a5e45b","1","1","5a9aa66a35237b000112937b","1","1","2025-07-16T08:38:54.371Z","","","","","","","","","","","AttribQ","","50","","","","","","","","","","","","","","","","","","","","","","","","","","","","",""
"4838","","<div style=""width:500px;"">
  <p>How much control did you have over the ball?</p>
  </div>","100","html-slider-response","11","248864","0.0-5.0-2.0","77","1","2025-07-16 08:34:48","1f75c3e559b7213887762d5229550c2b","147.161.163.110","Mozilla/5.0 (Windows NT 10.0; Win64; x64) AppleWebKit/537.36 (KHTML, like Gecko) Chrome/138.0.0.0 Safari/537.36","WebKit","Chrome","138.0.0.0","Windows","10.0","https://app.prolific.com/","en-US,en;q=0.9","5a9aa66a35237b000112937b","686e379bc37a29ffa5cdc956","68776360300fae7356a5e45b","1","1","5a9aa66a35237b000112937b","1","1","2025-07-16T08:38:59.210Z","","","","","","","","","","","ControlQ","","50","","","","","","","","","","","","","","","","","","","","","","","","","","","","",""
"5135","","<div style=""width:500px;"">
  <p>How would you describe your current emotional state?</p>
  </div>","0","html-slider-response","12","254000","0.0-5.0-3.0","77","1","2025-07-16 08:34:48","1f75c3e559b7213887762d5229550c2b","147.161.163.110","Mozilla/5.0 (Windows NT 10.0; Win64; x64) AppleWebKit/537.36 (KHTML, like Gecko) Chrome/138.0.0.0 Safari/537.36","WebKit","Chrome","138.0.0.0","Windows","10.0","https://app.prolific.com/","en-US,en;q=0.9","5a9aa66a35237b000112937b","686e379bc37a29ffa5cdc956","68776360300fae7356a5e45b","1","1","5a9aa66a35237b000112937b","1","1","2025-07-16T08:39:04.346Z","","","","","","","","","","","StressQ","","50","","","","","","","","","","","","","","","","","","","","","","","","","","","","",""
"5127","","<div style=""width:500px;"">
  <p>What best describes how you currently feel?</p>
  </div>","100","html-slider-response","13","259128","0.0-5.0-4.0","77","1","2025-07-16 08:34:48","1f75c3e559b7213887762d5229550c2b","147.161.163.110","Mozilla/5.0 (Windows NT 10.0; Win64; x64) AppleWebKit/537.36 (KHTML, like Gecko) Chrome/138.0.0.0 Safari/537.36","WebKit","Chrome","138.0.0.0","Windows","10.0","https://app.prolific.com/","en-US,en;q=0.9","5a9aa66a35237b000112937b","686e379bc37a29ffa5cdc956","68776360300fae7356a5e45b","1","1","5a9aa66a35237b000112937b","1","1","2025-07-16T08:39:09.474Z","","","","","","","","","","","MotivationQ","","50","","","","","","","","","","","","","","","","","","","","","","","","","","","","",""
"","","","","ctl-task-cpt","14","289159","0.0-5.0-0.1","77","1","2025-07-16 08:34:48","1f75c3e559b7213887762d5229550c2b","147.161.163.110","Mozilla/5.0 (Windows NT 10.0; Win64; x64) AppleWebKit/537.36 (KHTML, like Gecko) Chrome/138.0.0.0 Safari/537.36","WebKit","Chrome","138.0.0.0","Windows","10.0","https://app.prolific.com/","en-US,en;q=0.9","5a9aa66a35237b000112937b","686e379bc37a29ffa5cdc956","68776360300fae7356a5e45b","1","1","5a9aa66a35237b000112937b","1","1","2025-07-16T08:39:39.505Z","","","","","","","","","","","","","","win-only","0","g1:NW,g2:SE","0.9","2","0","263094.9","1632.4","6635.4","27016.2","1","4","4","6","2","4","4","12","8","0.09090909090909091","1582.8","3000","525","[""down"",""right""]","{""num_key_presses"":6,""num_perfect"":6,""num_errors"":0,""num_randdir"":0,""num_randdir_good_moves"":0,""num_whilered"":0,""num_whileblue"":0,""num_blue"":2,""num_good_moves"":6}","[416,403.90625,0.3,416,403.90625,103,416,403.90625,203.2,416,403.90625,303.9,416,403.90625,409,416,403.90625,512.9,416,403.90625,613.1,416,403.90625,714.7,416,403.90625,818.9,416,403.90625,924.3,416,403.90625,1028.1,411,410.90625,1133.1,604,568.90625,1233.1,737,619.90625,1333.3,772,734.90625,1433.6,793,794.90625,1534.4,787,798.90625,1638.8,787,795.90625,1738.9,787,795.90625,1842.8,787,795.90625,1943.2,787,795.90625,2048,787,795.90625,2148.6,786,795.90625,2248.6,782,796.90625,2349.1,782,796.90625,2452.9,782,796.90625,2554.9,782,796.90625,2657.9,782,796.90625,2759.3,782,796.90625,2863,782,796.90625,2967.9,782,796.90625,3068.3,782,796.90625,3172.8,782,796.90625,3272.9,782,796.90625,3372.9,782,796.90625,3472.9,782,796.90625,3574.9,782,796.90625,3678.8,782,796.90625,3778.8,782,796.90625,3878.8,782,796.90625,3984.7,782,796.90625,4084.8,782,796.90625,4188.6,782,796.90625,4289.1,782,796.90625,4394,782,796.90625,4499.5,782,796.90625,4603.5,782,796.90625,4708.4,782,796.90625,4808.6,782,796.90625,4908.7]","[1379.7,1379.7,1000,0,379.7,""smooth"",""right"",""right"",""good_move"",4324.3,2944.2,2583.6,1380.1,360.6,""smooth"",""right"",""right"",""good_move"",7843.5,3518.9,3116.6,4324.6,402.3,""smooth"",""right"",""right"",""good_move"",10339.5,2495.7,2008.6,7843.8,487.1,""smooth"",""down"",""down"",""good_move"",13539.6,3199.6,2762,10340,437.6,""smooth"",""down"",""down"",""good_move"",20283.6,6743.8,1587.9,18245,450.7,""smooth"",""down"",""down"",""good_move""]","",""
"3912","","<div style=""width:500px;"">
  <p>What determined the result of this run?</p>
  </div>","100","html-slider-response","15","293072","0.0-5.0-1.1","77","1","2025-07-16 08:34:48","1f75c3e559b7213887762d5229550c2b","147.161.163.110","Mozilla/5.0 (Windows NT 10.0; Win64; x64) AppleWebKit/537.36 (KHTML, like Gecko) Chrome/138.0.0.0 Safari/537.36","WebKit","Chrome","138.0.0.0","Windows","10.0","https://app.prolific.com/","en-US,en;q=0.9","5a9aa66a35237b000112937b","686e379bc37a29ffa5cdc956","68776360300fae7356a5e45b","1","1","5a9aa66a35237b000112937b","1","1","2025-07-16T08:39:43.418Z","","","","","","","","","","","AttribQ","","50","","","","","","","","","","","","","","","","","","","","","","","","","","","","",""
"3887","","<div style=""width:500px;"">
  <p>How much control did you have over the ball?</p>
  </div>","100","html-slider-response","16","296960","0.0-5.0-2.1","77","1","2025-07-16 08:34:48","1f75c3e559b7213887762d5229550c2b","147.161.163.110","Mozilla/5.0 (Windows NT 10.0; Win64; x64) AppleWebKit/537.36 (KHTML, like Gecko) Chrome/138.0.0.0 Safari/537.36","WebKit","Chrome","138.0.0.0","Windows","10.0","https://app.prolific.com/","en-US,en;q=0.9","5a9aa66a35237b000112937b","686e379bc37a29ffa5cdc956","68776360300fae7356a5e45b","1","1","5a9aa66a35237b000112937b","1","1","2025-07-16T08:39:47.306Z","","","","","","","","","","","ControlQ","","50","","","","","","","","","","","","","","","","","","","","","","","","","","","","",""
"2719","","<div style=""width:500px;"">
  <p>How would you describe your current emotional state?</p>
  </div>","0","html-slider-response","17","299680","0.0-5.0-3.1","77","1","2025-07-16 08:34:48","1f75c3e559b7213887762d5229550c2b","147.161.163.110","Mozilla/5.0 (Windows NT 10.0; Win64; x64) AppleWebKit/537.36 (KHTML, like Gecko) Chrome/138.0.0.0 Safari/537.36","WebKit","Chrome","138.0.0.0","Windows","10.0","https://app.prolific.com/","en-US,en;q=0.9","5a9aa66a35237b000112937b","686e379bc37a29ffa5cdc956","68776360300fae7356a5e45b","1","1","5a9aa66a35237b000112937b","1","1","2025-07-16T08:39:50.026Z","","","","","","","","","","","StressQ","","50","","","","","","","","","","","","","","","","","","","","","","","","","","","","",""
"2935","","<div style=""width:500px;"">
  <p>What best describes how you currently feel?</p>
  </div>","100","html-slider-response","18","302616","0.0-5.0-4.1","77","1","2025-07-16 08:34:48","1f75c3e559b7213887762d5229550c2b","147.161.163.110","Mozilla/5.0 (Windows NT 10.0; Win64; x64) AppleWebKit/537.36 (KHTML, like Gecko) Chrome/138.0.0.0 Safari/537.36","WebKit","Chrome","138.0.0.0","Windows","10.0","https://app.prolific.com/","en-US,en;q=0.9","5a9aa66a35237b000112937b","686e379bc37a29ffa5cdc956","68776360300fae7356a5e45b","1","1","5a9aa66a35237b000112937b","1","1","2025-07-16T08:39:52.962Z","","","","","","","","","","","MotivationQ","","50","","","","","","","","","","","","","","","","","","","","","","","","","","","","",""
"","","","","ctl-task-cpt","19","341377","0.0-5.0-0.2","77","1","2025-07-16 08:34:48","1f75c3e559b7213887762d5229550c2b","147.161.163.110","Mozilla/5.0 (Windows NT 10.0; Win64; x64) AppleWebKit/537.36 (KHTML, like Gecko) Chrome/138.0.0.0 Safari/537.36","WebKit","Chrome","138.0.0.0","Windows","10.0","https://app.prolific.com/","en-US,en;q=0.9","5a9aa66a35237b000112937b","686e379bc37a29ffa5cdc956","68776360300fae7356a5e45b","1","1","5a9aa66a35237b000112937b","1","1","2025-07-16T08:40:31.723Z","","","","","","","","","","","","","","win-only","1","g1:NE,g2:SW","0.8","3","0","306584.7","1189.5","6190.7","35740.7","1","4","4","6","2","-4","-4","8","12","0.06060606060606061","1448.2","3000","-3005","[""down"",""left""]","{""num_key_presses"":7,""num_perfect"":6,""num_errors"":0,""num_randdir"":1,""num_randdir_good_moves"":0,""num_whilered"":0,""num_whileblue"":0,""num_blue"":2,""num_good_moves"":6}","[410,410.90625,0.3,410,410.90625,101,410,410.90625,201,410,411.90625,305.9,537,373.90625,406.2,669,304.90625,512.2,623,324.90625,615.9,545,373.90625,716.9,488,421.90625,817.1,231,560.90625,917.1,190,626.90625,1021,126,677.90625,1121.4,123,690.90625,1226,113,712.90625,1326,114,715.90625,1426.2,115,715.90625,1526.9,115,715.90625,1626.9,114,715.90625,1726.9,116,715.90625,1830.9,116,715.90625,1930.9,116,715.90625,2030.9,116,715.90625,2130.9,116,715.90625,2231.2,116,715.90625,2337.6,116,715.90625,2441.1,116,715.90625,2545.9,116,715.90625,2651,116,715.90625,2751.4,116,715.90625,2855.7,116,715.90625,2955.9,116,715.90625,3056.1,116,715.90625,3157.4,116,715.90625,3261,116,715.90625,3362.3,116,715.90625,3465.8,116,715.90625,3571.1,116,715.90625,3676,116,715.90625,3781.2,116,715.90625,3886,116,715.90625,3990.9,116,715.90625,4097.2,116,715.90625,4201,116,715.90625,4301.1,116,715.90625,4401.4,116,715.90625,4501.5,116,715.90625,4606.2,116,715.90625,4706.2,116,715.90625,4810.9,116,715.90625,4910.9]","[1454.6,1454.6,1000,0,454.6,""smooth"",""left"",""left"",""good_move"",4142.6,2687.7,2304.4,1454.9,383.3,""smooth"",""left"",""left"",""good_move"",7718.4,3575.6,3198.1,4142.8,377.5,""smooth"",""left"",""left"",""good_move"",11102.5,3383.9,2989.1,7718.6,394.8,""oops"",""down"",""up"",""bad_move"",13646.2,2543.5,2153.2,11102.7,390.3,""smooth"",""down"",""down"",""good_move"",20686.4,7039.9,2066.6,18245.7,374.1,""smooth"",""down"",""down"",""good_move"",23342.8,2656.2,2202,20686.6,454.2,""smooth"",""down"",""down"",""good_move""]","",""
"10646","","<div style=""width:500px;"">
  <p>What determined the result of this run?</p>
  </div>","80","html-slider-response","20","352024","0.0-5.0-1.2","77","1","2025-07-16 08:34:48","1f75c3e559b7213887762d5229550c2b","147.161.163.110","Mozilla/5.0 (Windows NT 10.0; Win64; x64) AppleWebKit/537.36 (KHTML, like Gecko) Chrome/138.0.0.0 Safari/537.36","WebKit","Chrome","138.0.0.0","Windows","10.0","https://app.prolific.com/","en-US,en;q=0.9","5a9aa66a35237b000112937b","686e379bc37a29ffa5cdc956","68776360300fae7356a5e45b","1","1","5a9aa66a35237b000112937b","1","1","2025-07-16T08:40:42.370Z","","","","","","","","","","","AttribQ","","50","","","","","","","","","","","","","","","","","","","","","","","","","","","","",""
"7151","","<div style=""width:500px;"">
  <p>How much control did you have over the ball?</p>
  </div>","64","html-slider-response","21","359176","0.0-5.0-2.2","77","1","2025-07-16 08:34:48","1f75c3e559b7213887762d5229550c2b","147.161.163.110","Mozilla/5.0 (Windows NT 10.0; Win64; x64) AppleWebKit/537.36 (KHTML, like Gecko) Chrome/138.0.0.0 Safari/537.36","WebKit","Chrome","138.0.0.0","Windows","10.0","https://app.prolific.com/","en-US,en;q=0.9","5a9aa66a35237b000112937b","686e379bc37a29ffa5cdc956","68776360300fae7356a5e45b","1","1","5a9aa66a35237b000112937b","1","1","2025-07-16T08:40:49.522Z","","","","","","","","","","","ControlQ","","50","","","","","","","","","","","","","","","","","","","","","","","","","","","","",""
"3919","","<div style=""width:500px;"">
  <p>How would you describe your current emotional state?</p>
  </div>","0","html-slider-response","22","363096","0.0-5.0-3.2","77","1","2025-07-16 08:34:48","1f75c3e559b7213887762d5229550c2b","147.161.163.110","Mozilla/5.0 (Windows NT 10.0; Win64; x64) AppleWebKit/537.36 (KHTML, like Gecko) Chrome/138.0.0.0 Safari/537.36","WebKit","Chrome","138.0.0.0","Windows","10.0","https://app.prolific.com/","en-US,en;q=0.9","5a9aa66a35237b000112937b","686e379bc37a29ffa5cdc956","68776360300fae7356a5e45b","1","1","5a9aa66a35237b000112937b","1","1","2025-07-16T08:40:53.442Z","","","","","","","","","","","StressQ","","50","","","","","","","","","","","","","","","","","","","","","","","","","","","","",""
"3431","","<div style=""width:500px;"">
  <p>What best describes how you currently feel?</p>
  </div>","100","html-slider-response","23","366528","0.0-5.0-4.2","77","1","2025-07-16 08:34:48","1f75c3e559b7213887762d5229550c2b","147.161.163.110","Mozilla/5.0 (Windows NT 10.0; Win64; x64) AppleWebKit/537.36 (KHTML, like Gecko) Chrome/138.0.0.0 Safari/537.36","WebKit","Chrome","138.0.0.0","Windows","10.0","https://app.prolific.com/","en-US,en;q=0.9","5a9aa66a35237b000112937b","686e379bc37a29ffa5cdc956","68776360300fae7356a5e45b","1","1","5a9aa66a35237b000112937b","1","1","2025-07-16T08:40:56.874Z","","","","","","","","","","","MotivationQ","","50","","","","","","","","","","","","","","","","","","","","","","","","","","","","",""
"","","","","ctl-task-cpt","24","403919","0.0-5.0-0.3","77","1","2025-07-16 08:34:48","1f75c3e559b7213887762d5229550c2b","147.161.163.110","Mozilla/5.0 (Windows NT 10.0; Win64; x64) AppleWebKit/537.36 (KHTML, like Gecko) Chrome/138.0.0.0 Safari/537.36","WebKit","Chrome","138.0.0.0","Windows","10.0","https://app.prolific.com/","en-US,en;q=0.9","5a9aa66a35237b000112937b","686e379bc37a29ffa5cdc956","68776360300fae7356a5e45b","1","1","5a9aa66a35237b000112937b","1","1","2025-07-16T08:41:34.265Z","","","","","","","","","","","","","","win-only","0","g1:NW,g2:SE","0.7","4","0","370495.7","1038.3","6040.7","34371.2","1","4","8","6","2","8","8","16","8","0.12121212121212122","840.7","3000","465","[""down"",""right""]","{""num_key_presses"":6,""num_perfect"":5,""num_errors"":0,""num_randdir"":1,""num_randdir_good_moves"":1,""num_whilered"":0,""num_whileblue"":0,""num_blue"":3,""num_good_moves"":6}","[399,398.90625,0.2,400,398.90625,102.8,400,398.90625,208,401,401.90625,312.6,442,458.90625,418.1,777,714.90625,522,741,723.90625,623.4,730,738.90625,728,726,729.90625,831.9,725,729.90625,932.1,725,729.90625,1036.9,725,729.90625,1137.9,725,729.90625,1242.8,725,729.90625,1347,725,729.90625,1447.8,725,729.90625,1551.9,725,729.90625,1658.4,725,729.90625,1761.9,725,729.90625,1867.3,725,729.90625,1968.2,725,729.90625,2072,725,729.90625,2172.1,725,729.90625,2272.5,725,729.90625,2377,725,729.90625,2482.7,725,729.90625,2587.1,725,729.90625,2688.3,725,729.90625,2792.5,725,729.90625,2892.6,725,729.90625,2998.8,725,729.90625,3102.2,725,729.90625,3203.8,725,729.90625,3307.2,725,729.90625,3408.2,725,729.90625,3512.2,725,729.90625,3618.5,725,729.90625,3723.2,725,729.90625,3828.1,725,729.90625,3932.6,725,729.90625,4033,725,729.90625,4138.3,725,729.90625,4242.7,725,729.90625,4346.8,725,729.90625,4447.6,725,729.90625,4548.3,725,729.90625,4648.7,725,729.90625,4753.2,725,729.90625,4858.3,725,729.90625,4962.2]","[1373.4,1373.4,1000,0,373.4,""smooth"",""down"",""down"",""good_move"",5265,3891.3,3462.3,1373.7,429,""smooth"",""down"",""down"",""good_move"",14638.2,9373,2410.8,11760.7,466.7,""smooth"",""down"",""down"",""good_move"",18589.3,3950.8,3488.8,14638.5,462,""smooth"",""right"",""right"",""good_move"",21533.2,2943.6,2487.4,18589.6,456.2,""oops"",""right"",""right"",""good_move"",28237.4,6704,2385.4,25465.7,386.3,""smooth"",""right"",""right"",""good_move""]","",""
"4376","","<div style=""width:500px;"">
  <p>What determined the result of this run?</p>
  </div>","100","html-slider-response","25","408296","0.0-5.0-1.3","77","1","2025-07-16 08:34:48","1f75c3e559b7213887762d5229550c2b","147.161.163.110","Mozilla/5.0 (Windows NT 10.0; Win64; x64) AppleWebKit/537.36 (KHTML, like Gecko) Chrome/138.0.0.0 Safari/537.36","WebKit","Chrome","138.0.0.0","Windows","10.0","https://app.prolific.com/","en-US,en;q=0.9","5a9aa66a35237b000112937b","686e379bc37a29ffa5cdc956","68776360300fae7356a5e45b","1","1","5a9aa66a35237b000112937b","1","1","2025-07-16T08:41:38.642Z","","","","","","","","","","","AttribQ","","50","","","","","","","","","","","","","","","","","","","","","","","","","","","","",""
"2255","","<div style=""width:500px;"">
  <p>How much control did you have over the ball?</p>
  </div>","100","html-slider-response","26","410552","0.0-5.0-2.3","77","1","2025-07-16 08:34:48","1f75c3e559b7213887762d5229550c2b","147.161.163.110","Mozilla/5.0 (Windows NT 10.0; Win64; x64) AppleWebKit/537.36 (KHTML, like Gecko) Chrome/138.0.0.0 Safari/537.36","WebKit","Chrome","138.0.0.0","Windows","10.0","https://app.prolific.com/","en-US,en;q=0.9","5a9aa66a35237b000112937b","686e379bc37a29ffa5cdc956","68776360300fae7356a5e45b","1","1","5a9aa66a35237b000112937b","1","1","2025-07-16T08:41:40.898Z","","","","","","","","","","","ControlQ","","50","","","","","","","","","","","","","","","","","","","","","","","","","","","","",""
"2871","","<div style=""width:500px;"">
  <p>How would you describe your current emotional state?</p>
  </div>","0","html-slider-response","27","413424","0.0-5.0-3.3","77","1","2025-07-16 08:34:48","1f75c3e559b7213887762d5229550c2b","147.161.163.110","Mozilla/5.0 (Windows NT 10.0; Win64; x64) AppleWebKit/537.36 (KHTML, like Gecko) Chrome/138.0.0.0 Safari/537.36","WebKit","Chrome","138.0.0.0","Windows","10.0","https://app.prolific.com/","en-US,en;q=0.9","5a9aa66a35237b000112937b","686e379bc37a29ffa5cdc956","68776360300fae7356a5e45b","1","1","5a9aa66a35237b000112937b","1","1","2025-07-16T08:41:43.770Z","","","","","","","","","","","StressQ","","50","","","","","","","","","","","","","","","","","","","","","","","","","","","","",""
"3184","","<div style=""width:500px;"">
  <p>What best describes how you currently feel?</p>
  </div>","100","html-slider-response","28","416608","0.0-5.0-4.3","77","1","2025-07-16 08:34:48","1f75c3e559b7213887762d5229550c2b","147.161.163.110","Mozilla/5.0 (Windows NT 10.0; Win64; x64) AppleWebKit/537.36 (KHTML, like Gecko) Chrome/138.0.0.0 Safari/537.36","WebKit","Chrome","138.0.0.0","Windows","10.0","https://app.prolific.com/","en-US,en;q=0.9","5a9aa66a35237b000112937b","686e379bc37a29ffa5cdc956","68776360300fae7356a5e45b","1","1","5a9aa66a35237b000112937b","1","1","2025-07-16T08:41:46.954Z","","","","","","","","","","","MotivationQ","","50","","","","","","","","","","","","","","","","","","","","","","","","","","","","",""
"","","","","ctl-task-cpt","29","458207","0.0-5.0-0.4","77","1","2025-07-16 08:34:48","1f75c3e559b7213887762d5229550c2b","147.161.163.110","Mozilla/5.0 (Windows NT 10.0; Win64; x64) AppleWebKit/537.36 (KHTML, like Gecko) Chrome/138.0.0.0 Safari/537.36","WebKit","Chrome","138.0.0.0","Windows","10.0","https://app.prolific.com/","en-US,en;q=0.9","5a9aa66a35237b000112937b","686e379bc37a29ffa5cdc956","68776360300fae7356a5e45b","1","1","5a9aa66a35237b000112937b","1","1","2025-07-16T08:42:28.553Z","","","","","","","","","","","","","","win-only","2","g1:SE,g2:NW","0.6","5","0","420576.3","1045.7","6051.4","38596.1","1","4","4","6","2","-4","-4","12","16","0.09090909090909091","874.7","3000","-2690","[""left"",""up""]","{""num_key_presses"":8,""num_perfect"":5,""num_errors"":0,""num_randdir"":3,""num_randdir_good_moves"":1,""num_whilered"":0,""num_whileblue"":0,""num_blue"":2,""num_good_moves"":6}","[412,413.90625,0.2,412,413.90625,100.2,412,413.90625,201.3,412,413.90625,308.7,414,400.90625,409,240,192.90625,509.2,130,125.90625,610,129,125.90625,710.9,99,105.90625,815.7,97,102.90625,915.9,97,102.90625,1020.4,97,103.90625,1125.6,97,104.90625,1226.6,97,104.90625,1326.9,97,104.90625,1431.2,97,104.90625,1535,97,104.90625,1640.8,97,104.90625,1743.8,97,104.90625,1845.5,97,104.90625,1950.7,97,104.90625,2059.6,97,104.90625,2165.9,97,104.90625,2271.2,97,104.90625,2371.3,97,104.90625,2477.3,97,104.90625,2579.7,97,104.90625,2685.6,97,104.90625,2793.8,97,104.90625,2894.2,97,104.90625,2994.5,97,104.90625,3094.5,97,104.90625,3201.2,97,104.90625,3305.8,97,104.90625,3411.2,97,104.90625,3514.9,97,104.90625,3614.9,97,104.90625,3716.1,97,104.90625,3820.9,97,104.90625,3921,97,104.90625,4028.1,97,104.90625,4128.2,97,104.90625,4229.2,97,104.90625,4330.1,97,104.90625,4435.7,97,104.90625,4544.3,97,104.90625,4644.6,97,104.90625,4744.6,97,104.90625,4844.8,97,104.90625,4944.8]","[4507.9,4507.9,2118.7,2008,381.2,""smooth"",""up"",""up"",""good_move"",7026.6,2518.5,2092.7,4508.2,425.8,""oops"",""up"",""up"",""good_move"",10082.1,3055.3,2619,7026.8,436.3,""oops"",""up"",""right"",""bad_move"",13463.3,3380.9,2952,10082.4,428.9,""smooth"",""up"",""up"",""good_move"",16898.6,3435,2989.5,13463.6,445.5,""smooth"",""left"",""left"",""good_move"",19317.8,2418.9,1949.5,16898.9,469.4,""smooth"",""left"",""left"",""good_move"",23210,3892.1,3518.2,19317.9,373.9,""oops"",""left"",""down"",""bad_move"",30408.1,7197.8,3145.9,26924.8,337.4,""smooth"",""left"",""left"",""good_move""]","",""
"4016","","<div style=""width:500px;"">
  <p>What determined the result of this run?</p>
  </div>","26","html-slider-response","30","462224","0.0-5.0-1.4","77","1","2025-07-16 08:34:48","1f75c3e559b7213887762d5229550c2b","147.161.163.110","Mozilla/5.0 (Windows NT 10.0; Win64; x64) AppleWebKit/537.36 (KHTML, like Gecko) Chrome/138.0.0.0 Safari/537.36","WebKit","Chrome","138.0.0.0","Windows","10.0","https://app.prolific.com/","en-US,en;q=0.9","5a9aa66a35237b000112937b","686e379bc37a29ffa5cdc956","68776360300fae7356a5e45b","1","1","5a9aa66a35237b000112937b","1","1","2025-07-16T08:42:32.570Z","","","","","","","","","","","AttribQ","","50","","","","","","","","","","","","","","","","","","","","","","","","","","","","",""
"2856","","<div style=""width:500px;"">
  <p>How much control did you have over the ball?</p>
  </div>","28","html-slider-response","31","465080","0.0-5.0-2.4","77","1","2025-07-16 08:34:48","1f75c3e559b7213887762d5229550c2b","147.161.163.110","Mozilla/5.0 (Windows NT 10.0; Win64; x64) AppleWebKit/537.36 (KHTML, like Gecko) Chrome/138.0.0.0 Safari/537.36","WebKit","Chrome","138.0.0.0","Windows","10.0","https://app.prolific.com/","en-US,en;q=0.9","5a9aa66a35237b000112937b","686e379bc37a29ffa5cdc956","68776360300fae7356a5e45b","1","1","5a9aa66a35237b000112937b","1","1","2025-07-16T08:42:35.426Z","","","","","","","","","","","ControlQ","","50","","","","","","","","","","","","","","","","","","","","","","","","","","","","",""
"3567","","<div style=""width:500px;"">
  <p>How would you describe your current emotional state?</p>
  </div>","0","html-slider-response","32","468648","0.0-5.0-3.4","77","1","2025-07-16 08:34:48","1f75c3e559b7213887762d5229550c2b","147.161.163.110","Mozilla/5.0 (Windows NT 10.0; Win64; x64) AppleWebKit/537.36 (KHTML, like Gecko) Chrome/138.0.0.0 Safari/537.36","WebKit","Chrome","138.0.0.0","Windows","10.0","https://app.prolific.com/","en-US,en;q=0.9","5a9aa66a35237b000112937b","686e379bc37a29ffa5cdc956","68776360300fae7356a5e45b","1","1","5a9aa66a35237b000112937b","1","1","2025-07-16T08:42:38.994Z","","","","","","","","","","","StressQ","","50","","","","","","","","","","","","","","","","","","","","","","","","","","","","",""
"2015","","<div style=""width:500px;"">
  <p>What best describes how you currently feel?</p>
  </div>","100","html-slider-response","33","470664","0.0-5.0-4.4","77","1","2025-07-16 08:34:48","1f75c3e559b7213887762d5229550c2b","147.161.163.110","Mozilla/5.0 (Windows NT 10.0; Win64; x64) AppleWebKit/537.36 (KHTML, like Gecko) Chrome/138.0.0.0 Safari/537.36","WebKit","Chrome","138.0.0.0","Windows","10.0","https://app.prolific.com/","en-US,en;q=0.9","5a9aa66a35237b000112937b","686e379bc37a29ffa5cdc956","68776360300fae7356a5e45b","1","1","5a9aa66a35237b000112937b","1","1","2025-07-16T08:42:41.010Z","","","","","","","","","","","MotivationQ","","50","","","","","","","","","","","","","","","","","","","","","","","","","","","","",""
"","","","","ctl-task-cpt","34","507873","0.0-5.0-0.5","77","1","2025-07-16 08:34:48","1f75c3e559b7213887762d5229550c2b","147.161.163.110","Mozilla/5.0 (Windows NT 10.0; Win64; x64) AppleWebKit/537.36 (KHTML, like Gecko) Chrome/138.0.0.0 Safari/537.36","WebKit","Chrome","138.0.0.0","Windows","10.0","https://app.prolific.com/","en-US,en;q=0.9","5a9aa66a35237b000112937b","686e379bc37a29ffa5cdc956","68776360300fae7356a5e45b","1","1","5a9aa66a35237b000112937b","1","1","2025-07-16T08:43:18.219Z","","","","","","","","","","","","","","win-only","3","g1:SW,g2:NE","0.5","6","0","474631.7","1606.5","6611","34191.1","1","4","8","6","2","-8","-8","4","12","0.030303030303030304","1193.6","3000","-2695","[""up"",""right""]","{""num_key_presses"":6,""num_perfect"":2,""num_errors"":0,""num_randdir"":4,""num_randdir_good_moves"":2,""num_whilered"":0,""num_whileblue"":0,""num_blue"":2,""num_good_moves"":4}","[409,407.90625,0.2,409,407.90625,106.5,409,407.90625,211.6,409,407.90625,313.9,409,407.90625,414.2,405,412.90625,514.2,400,422.90625,614.4,388,434.90625,719.2,435,370.90625,819.2,786,44.90625,920.3,780,41.90625,1028.3,780,41.90625,1129.3,769,53.90625,1229.5,768,53.90625,1335.4,768,53.90625,1439.4,768,53.90625,1544.8,768,53.90625,1645.7,764,54.90625,1750,764,54.90625,1850,764,54.90625,1955.2,764,54.90625,2055.3,764,54.90625,2162.7,764,54.90625,2263.1,764,54.90625,2364.1,764,54.90625,2468.9,764,54.90625,2569.6,764,54.90625,2670.9,764,54.90625,2779.2,764,54.90625,2884.2,764,54.90625,2985.2,764,54.90625,3085.3,764,54.90625,3189.1,764,54.90625,3289.1,764,54.90625,3389.1,764,54.90625,3496.6,764,54.90625,3596.8,764,54.90625,3699.2,764,54.90625,3800.1,764,54.90625,3904,764,54.90625,4005.6,764,54.90625,4113.4,764,54.90625,4214.7,764,54.90625,4319.3,764,54.90625,4420.2,764,54.90625,4524,764,54.90625,4624.2,764,54.90625,4725.1,764,54.90625,4825.5,764,54.90625,4931.4]","[1475.9,1475.9,1000,0,475.9,""smooth"",""up"",""up"",""good_move"",4411.8,2935.7,2516.1,1476.1,419.6,""smooth"",""up"",""up"",""good_move"",7447.1,3035.1,2590.8,4412,444.3,""oops"",""up"",""left"",""bad_move"",14501,7053.6,2696.9,11333.5,470.6,""oops"",""up"",""down"",""bad_move"",17715.2,3213.8,2467.7,14501.4,746.1,""oops"",""right"",""up"",""good_move"",21272.3,3556.2,2884.4,17716.1,671.8,""oops"",""right"",""up"",""good_move""]","",""
"4726","","<div style=""width:500px;"">
  <p>What determined the result of this run?</p>
  </div>","6","html-slider-response","35","512600","0.0-5.0-1.5","77","1","2025-07-16 08:34:48","1f75c3e559b7213887762d5229550c2b","147.161.163.110","Mozilla/5.0 (Windows NT 10.0; Win64; x64) AppleWebKit/537.36 (KHTML, like Gecko) Chrome/138.0.0.0 Safari/537.36","WebKit","Chrome","138.0.0.0","Windows","10.0","https://app.prolific.com/","en-US,en;q=0.9","5a9aa66a35237b000112937b","686e379bc37a29ffa5cdc956","68776360300fae7356a5e45b","1","1","5a9aa66a35237b000112937b","1","1","2025-07-16T08:43:22.946Z","","","","","","","","","","","AttribQ","","50","","","","","","","","","","","","","","","","","","","","","","","","","","","","",""
"4008","","<div style=""width:500px;"">
  <p>How much control did you have over the ball?</p>
  </div>","4","html-slider-response","36","516608","0.0-5.0-2.5","77","1","2025-07-16 08:34:48","1f75c3e559b7213887762d5229550c2b","147.161.163.110","Mozilla/5.0 (Windows NT 10.0; Win64; x64) AppleWebKit/537.36 (KHTML, like Gecko) Chrome/138.0.0.0 Safari/537.36","WebKit","Chrome","138.0.0.0","Windows","10.0","https://app.prolific.com/","en-US,en;q=0.9","5a9aa66a35237b000112937b","686e379bc37a29ffa5cdc956","68776360300fae7356a5e45b","1","1","5a9aa66a35237b000112937b","1","1","2025-07-16T08:43:26.954Z","","","","","","","","","","","ControlQ","","50","","","","","","","","","","","","","","","","","","","","","","","","","","","","",""
"4935","","<div style=""width:500px;"">
  <p>How would you describe your current emotional state?</p>
  </div>","0","html-slider-response","37","521544","0.0-5.0-3.5","77","1","2025-07-16 08:34:48","1f75c3e559b7213887762d5229550c2b","147.161.163.110","Mozilla/5.0 (Windows NT 10.0; Win64; x64) AppleWebKit/537.36 (KHTML, like Gecko) Chrome/138.0.0.0 Safari/537.36","WebKit","Chrome","138.0.0.0","Windows","10.0","https://app.prolific.com/","en-US,en;q=0.9","5a9aa66a35237b000112937b","686e379bc37a29ffa5cdc956","68776360300fae7356a5e45b","1","1","5a9aa66a35237b000112937b","1","1","2025-07-16T08:43:31.890Z","","","","","","","","","","","StressQ","","50","","","","","","","","","","","","","","","","","","","","","","","","","","","","",""
"2735","","<div style=""width:500px;"">
  <p>What best describes how you currently feel?</p>
  </div>","100","html-slider-response","38","524280","0.0-5.0-4.5","77","1","2025-07-16 08:34:48","1f75c3e559b7213887762d5229550c2b","147.161.163.110","Mozilla/5.0 (Windows NT 10.0; Win64; x64) AppleWebKit/537.36 (KHTML, like Gecko) Chrome/138.0.0.0 Safari/537.36","WebKit","Chrome","138.0.0.0","Windows","10.0","https://app.prolific.com/","en-US,en;q=0.9","5a9aa66a35237b000112937b","686e379bc37a29ffa5cdc956","68776360300fae7356a5e45b","1","1","5a9aa66a35237b000112937b","1","1","2025-07-16T08:43:34.626Z","","","","","","","","","","","MotivationQ","","50","","","","","","","","","","","","","","","","","","","","","","","","","","","","",""
"","","","","ctl-task-cpt","39","562600","0.0-5.0-0.6","77","1","2025-07-16 08:34:48","1f75c3e559b7213887762d5229550c2b","147.161.163.110","Mozilla/5.0 (Windows NT 10.0; Win64; x64) AppleWebKit/537.36 (KHTML, like Gecko) Chrome/138.0.0.0 Safari/537.36","WebKit","Chrome","138.0.0.0","Windows","10.0","https://app.prolific.com/","en-US,en;q=0.9","5a9aa66a35237b000112937b","686e379bc37a29ffa5cdc956","68776360300fae7356a5e45b","1","1","5a9aa66a35237b000112937b","1","1","2025-07-16T08:44:12.946Z","","","","","","","","","","","","","","win-only","3","g1:SW,g2:NE","0.4","7","0","528247.2","1351.6","6357","35301","1","4","8","6","1","-1","-1","3","4","0.022727272727272728","1463.8","3000","-3010","[""down"",""left""]","{""num_key_presses"":6,""num_perfect"":2,""num_errors"":0,""num_randdir"":4,""num_randdir_good_moves"":1,""num_whilered"":0,""num_whileblue"":0,""num_blue"":3,""num_good_moves"":3}","[412,415.90625,0.1,412,415.90625,102,412,415.90625,202.2,412,415.90625,303.7,412,415.90625,409,412,415.90625,518.1,412,415.90625,619.2,412,415.90625,723.6,412,415.90625,825.2,412,415.90625,929.5,238,539.90625,1034.8,186,702.90625,1136.9,181,702.90625,1239.3,105,706.90625,1339.5,88,704.90625,1443.9,88,704.90625,1544.1,88,704.90625,1644.1,88,704.90625,1744.6,96,705.90625,1853.4,97,705.90625,1954.4,97,705.90625,2059.4,97,705.90625,2169.1,97,705.90625,2273.7,97,705.90625,2379.2,97,705.90625,2486.8,97,705.90625,2589.4,97,705.90625,2693.6,97,705.90625,2794.4,97,705.90625,2903.1,97,705.90625,3004.5,97,705.90625,3109.3,97,705.90625,3219.5,97,705.90625,3320.7,97,705.90625,3424,97,705.90625,3524.2,97,705.90625,3624.7,97,705.90625,3729.4,97,705.90625,3837.3,97,705.90625,3937.6,97,705.90625,4037.7,97,705.90625,4137.7,97,705.90625,4237.9,97,705.90625,4338.5,97,705.90625,4439.3,97,705.90625,4544.7,97,705.90625,4654.5,97,705.90625,4759.2,97,705.90625,4859.2,97,705.90625,4959.3]","[1433.4,1433.4,1000,0,433.4,""oops"",""left"",""down"",""good_move"",4213.6,2779.9,2358.9,1433.7,421,""smooth"",""left"",""left"",""good_move"",14577.7,10363.9,2633.1,11473.4,471.3,""smooth"",""down"",""down"",""good_move"",18065.5,3487.6,2959.3,14577.9,528.3,""oops"",""left"",""right"",""bad_move"",20601.5,2535.7,2058.8,18065.8,476.9,""oops"",""left"",""right"",""bad_move"",26705.4,6103.6,2260.6,23948.1,496.7,""oops"",""left"",""up"",""bad_move""]","",""
"3783","","<div style=""width:500px;"">
  <p>What determined the result of this run?</p>
  </div>","2","html-slider-response","40","566384","0.0-5.0-1.6","77","1","2025-07-16 08:34:48","1f75c3e559b7213887762d5229550c2b","147.161.163.110","Mozilla/5.0 (Windows NT 10.0; Win64; x64) AppleWebKit/537.36 (KHTML, like Gecko) Chrome/138.0.0.0 Safari/537.36","WebKit","Chrome","138.0.0.0","Windows","10.0","https://app.prolific.com/","en-US,en;q=0.9","5a9aa66a35237b000112937b","686e379bc37a29ffa5cdc956","68776360300fae7356a5e45b","1","1","5a9aa66a35237b000112937b","1","1","2025-07-16T08:44:16.730Z","","","","","","","","","","","AttribQ","","50","","","","","","","","","","","","","","","","","","","","","","","","","","","","",""
"3640","","<div style=""width:500px;"">
  <p>How much control did you have over the ball?</p>
  </div>","3","html-slider-response","41","570025","0.0-5.0-2.6","77","1","2025-07-16 08:34:48","1f75c3e559b7213887762d5229550c2b","147.161.163.110","Mozilla/5.0 (Windows NT 10.0; Win64; x64) AppleWebKit/537.36 (KHTML, like Gecko) Chrome/138.0.0.0 Safari/537.36","WebKit","Chrome","138.0.0.0","Windows","10.0","https://app.prolific.com/","en-US,en;q=0.9","5a9aa66a35237b000112937b","686e379bc37a29ffa5cdc956","68776360300fae7356a5e45b","1","1","5a9aa66a35237b000112937b","1","1","2025-07-16T08:44:20.371Z","","","","","","","","","","","ControlQ","","50","","","","","","","","","","","","","","","","","","","","","","","","","","","","",""
"3374","","<div style=""width:500px;"">
  <p>How would you describe your current emotional state?</p>
  </div>","0","html-slider-response","42","573400","0.0-5.0-3.6","77","1","2025-07-16 08:34:48","1f75c3e559b7213887762d5229550c2b","147.161.163.110","Mozilla/5.0 (Windows NT 10.0; Win64; x64) AppleWebKit/537.36 (KHTML, like Gecko) Chrome/138.0.0.0 Safari/537.36","WebKit","Chrome","138.0.0.0","Windows","10.0","https://app.prolific.com/","en-US,en;q=0.9","5a9aa66a35237b000112937b","686e379bc37a29ffa5cdc956","68776360300fae7356a5e45b","1","1","5a9aa66a35237b000112937b","1","1","2025-07-16T08:44:23.746Z","","","","","","","","","","","StressQ","","50","","","","","","","","","","","","","","","","","","","","","","","","","","","","",""
"2959","","<div style=""width:500px;"">
  <p>What best describes how you currently feel?</p>
  </div>","100","html-slider-response","43","576360","0.0-5.0-4.6","77","1","2025-07-16 08:34:48","1f75c3e559b7213887762d5229550c2b","147.161.163.110","Mozilla/5.0 (Windows NT 10.0; Win64; x64) AppleWebKit/537.36 (KHTML, like Gecko) Chrome/138.0.0.0 Safari/537.36","WebKit","Chrome","138.0.0.0","Windows","10.0","https://app.prolific.com/","en-US,en;q=0.9","5a9aa66a35237b000112937b","686e379bc37a29ffa5cdc956","68776360300fae7356a5e45b","1","1","5a9aa66a35237b000112937b","1","1","2025-07-16T08:44:26.706Z","","","","","","","","","","","MotivationQ","","50","","","","","","","","","","","","","","","","","","","","","","","","","","","","",""
"","","","","ctl-task-cpt","44","613575","0.0-5.0-0.7","77","1","2025-07-16 08:34:48","1f75c3e559b7213887762d5229550c2b","147.161.163.110","Mozilla/5.0 (Windows NT 10.0; Win64; x64) AppleWebKit/537.36 (KHTML, like Gecko) Chrome/138.0.0.0 Safari/537.36","WebKit","Chrome","138.0.0.0","Windows","10.0","https://app.prolific.com/","en-US,en;q=0.9","5a9aa66a35237b000112937b","686e379bc37a29ffa5cdc956","68776360300fae7356a5e45b","1","1","5a9aa66a35237b000112937b","1","1","2025-07-16T08:45:03.921Z","","","","","","","","","","","","","","win-only","3","g1:SW,g2:NE","0.3","8","0","580327","1231.2","6235.3","34195.2","1","4","4","6","1","-1","-1","2","3","0.015151515151515152","1144.3","3000","-2610","[""down"",""left""]","{""num_key_presses"":6,""num_perfect"":2,""num_errors"":0,""num_randdir"":4,""num_randdir_good_moves"":0,""num_whilered"":0,""num_whileblue"":0,""num_blue"":3,""num_good_moves"":2}","[415,404.90625,0.3,415,404.90625,103.7,415,404.90625,208.6,415,404.90625,309.2,418,407.90625,409.2,418,417.90625,514.8,398,445.90625,615.1,319,513.90625,719.5,230,596.90625,826.8,76,687.90625,929.2,81,709.90625,1034.3,84,712.90625,1135,84,712.90625,1242.5,84,712.90625,1342.5,84,712.90625,1443.2,85,709.90625,1543.2,130,715.90625,1645,140,716.90625,1745.3,140,716.90625,1845.4,140,716.90625,1950.3,140,716.90625,2050.5,140,716.90625,2150.6,140,716.90625,2259.4,140,716.90625,2359.6,140,716.90625,2459.6,140,716.90625,2564.3,140,716.90625,2676.2,140,716.90625,2776.7,140,716.90625,2877.9,140,716.90625,2979.3,140,716.90625,3079.6,140,716.90625,3185.6,140,716.90625,3293.9,140,716.90625,3394,140,716.90625,3500.5,140,716.90625,3603.9,140,716.90625,3705,140,716.90625,3808.9,140,716.90625,3912.1,140,716.90625,4012.3,140,716.90625,4112.3,140,716.90625,4214.8,140,716.90625,4319.6,140,716.90625,4420.4,140,716.90625,4528.5,140,716.90625,4629.2,140,716.90625,4730.5,140,716.90625,4834.2,140,716.90625,4935]","[4835.7,4835.7,2359.7,2011,465,""smooth"",""down"",""down"",""good_move"",7727.7,2891.7,2373.6,4836,518.1,""oops"",""down"",""up"",""bad_move"",11031,3302.9,2687.9,7728.1,615,""oops"",""left"",""up"",""bad_move"",14283.4,3252.3,2782.9,11031.2,469.4,""smooth"",""left"",""left"",""good_move"",16875.5,2591.9,2006.7,14283.7,585.2,""oops"",""left"",""right"",""bad_move"",21739.5,4863.7,1484.6,19753.4,501.5,""oops"",""left"",""right"",""bad_move""]","",""
"4097","","<div style=""width:500px;"">
  <p>What determined the result of this run?</p>
  </div>","9","html-slider-response","45","617672","0.0-5.0-1.7","77","1","2025-07-16 08:34:48","1f75c3e559b7213887762d5229550c2b","147.161.163.110","Mozilla/5.0 (Windows NT 10.0; Win64; x64) AppleWebKit/537.36 (KHTML, like Gecko) Chrome/138.0.0.0 Safari/537.36","WebKit","Chrome","138.0.0.0","Windows","10.0","https://app.prolific.com/","en-US,en;q=0.9","5a9aa66a35237b000112937b","686e379bc37a29ffa5cdc956","68776360300fae7356a5e45b","1","1","5a9aa66a35237b000112937b","1","1","2025-07-16T08:45:08.018Z","","","","","","","","","","","AttribQ","","50","","","","","","","","","","","","","","","","","","","","","","","","","","","","",""
"3575","","<div style=""width:500px;"">
  <p>How much control did you have over the ball?</p>
  </div>","0","html-slider-response","46","621248","0.0-5.0-2.7","77","1","2025-07-16 08:34:48","1f75c3e559b7213887762d5229550c2b","147.161.163.110","Mozilla/5.0 (Windows NT 10.0; Win64; x64) AppleWebKit/537.36 (KHTML, like Gecko) Chrome/138.0.0.0 Safari/537.36","WebKit","Chrome","138.0.0.0","Windows","10.0","https://app.prolific.com/","en-US,en;q=0.9","5a9aa66a35237b000112937b","686e379bc37a29ffa5cdc956","68776360300fae7356a5e45b","1","1","5a9aa66a35237b000112937b","1","1","2025-07-16T08:45:11.594Z","","","","","","","","","","","ControlQ","","50","","","","","","","","","","","","","","","","","","","","","","","","","","","","",""
"3712","","<div style=""width:500px;"">
  <p>How would you describe your current emotional state?</p>
  </div>","0","html-slider-response","47","624960","0.0-5.0-3.7","77","1","2025-07-16 08:34:48","1f75c3e559b7213887762d5229550c2b","147.161.163.110","Mozilla/5.0 (Windows NT 10.0; Win64; x64) AppleWebKit/537.36 (KHTML, like Gecko) Chrome/138.0.0.0 Safari/537.36","WebKit","Chrome","138.0.0.0","Windows","10.0","https://app.prolific.com/","en-US,en;q=0.9","5a9aa66a35237b000112937b","686e379bc37a29ffa5cdc956","68776360300fae7356a5e45b","1","1","5a9aa66a35237b000112937b","1","1","2025-07-16T08:45:15.306Z","","","","","","","","","","","StressQ","","50","","","","","","","","","","","","","","","","","","","","","","","","","","","","",""
"3503","","<div style=""width:500px;"">
  <p>What best describes how you currently feel?</p>
  </div>","100","html-slider-response","48","628464","0.0-5.0-4.7","77","1","2025-07-16 08:34:48","1f75c3e559b7213887762d5229550c2b","147.161.163.110","Mozilla/5.0 (Windows NT 10.0; Win64; x64) AppleWebKit/537.36 (KHTML, like Gecko) Chrome/138.0.0.0 Safari/537.36","WebKit","Chrome","138.0.0.0","Windows","10.0","https://app.prolific.com/","en-US,en;q=0.9","5a9aa66a35237b000112937b","686e379bc37a29ffa5cdc956","68776360300fae7356a5e45b","1","1","5a9aa66a35237b000112937b","1","1","2025-07-16T08:45:18.810Z","","","","","","","","","","","MotivationQ","","50","","","","","","","","","","","","","","","","","","","","","","","","","","","","",""
"","","","","ctl-task-cpt","49","666040","0.0-5.0-0.8","77","1","2025-07-16 08:34:48","1f75c3e559b7213887762d5229550c2b","147.161.163.110","Mozilla/5.0 (Windows NT 10.0; Win64; x64) AppleWebKit/537.36 (KHTML, like Gecko) Chrome/138.0.0.0 Safari/537.36","WebKit","Chrome","138.0.0.0","Windows","10.0","https://app.prolific.com/","en-US,en;q=0.9","5a9aa66a35237b000112937b","686e379bc37a29ffa5cdc956","68776360300fae7356a5e45b","1","1","5a9aa66a35237b000112937b","1","1","2025-07-16T08:45:56.387Z","","","","","","","","","","","","","","win-only","0","g1:NW,g2:SE","0.2","9","0","632431.3","2118.9","7124.3","34555.8","1","4","8","6","1","-1","-1","1","2","0.007575757575757576","1066.1","3000","-2605","[""left"",""up""]","{""num_key_presses"":6,""num_perfect"":1,""num_errors"":0,""num_randdir"":5,""num_randdir_good_moves"":3,""num_whilered"":0,""num_whileblue"":0,""num_blue"":2,""num_good_moves"":4}","[404,405.90625,0.1,404,405.90625,102.7,404,405.90625,207.8,404,405.90625,316.5,433,446.90625,416.7,532,550.90625,517,557,583.90625,622.7,310,316.90625,722.9,106,95.90625,827.9,100,77.90625,934.8,100,77.90625,1034.8,103,77.90625,1135.3,103,79.90625,1236.8,103,80.90625,1337.1,103,80.90625,1441.9,103,80.90625,1550.4,103,80.90625,1651.9,103,80.90625,1757.1,103,80.90625,1861.6,103,80.90625,1967.5,103,80.90625,2069.2,103,80.90625,2171.5,103,80.90625,2277.8,103,80.90625,2385.3,103,80.90625,2485.4,103,80.90625,2586,103,80.90625,2687.3,103,80.90625,2792.3,103,80.90625,2902,103,80.90625,3002.1,103,80.90625,3102.1,103,80.90625,3207,103,80.90625,3307.3,103,80.90625,3411.6,103,80.90625,3512.5,103,80.90625,3619.4,103,80.90625,3720.4,103,80.90625,3821.9,103,80.90625,3927.7,103,80.90625,4035.1,103,80.90625,4135.7,103,80.90625,4236.2,103,80.90625,4336.9,103,80.90625,4442.7,103,80.90625,4552.9,103,80.90625,4657.1,103,80.90625,4757.3,103,80.90625,4870.5,103,80.90625,4973]","[1466.2,1466.2,1000,0,466.2,""oops"",""up"",""left"",""good_move"",4562.2,3095.7,2629.5,1466.5,466.2,""oops"",""up"",""left"",""good_move"",7934.7,3372.3,2906.8,4562.4,465.5,""oops"",""up"",""down"",""bad_move"",14989.4,7054.5,2824.6,11689.4,475.4,""smooth"",""up"",""up"",""good_move"",17524.4,2534.6,2044.1,14989.8,490.5,""oops"",""up"",""right"",""bad_move"",24466.1,6941.5,2977.5,21017.3,471.3,""oops"",""up"",""left"",""good_move""]","",""
"6120","","<div style=""width:500px;"">
  <p>What determined the result of this run?</p>
  </div>","0","html-slider-response","50","672162","0.0-5.0-1.8","77","1","2025-07-16 08:34:48","1f75c3e559b7213887762d5229550c2b","147.161.163.110","Mozilla/5.0 (Windows NT 10.0; Win64; x64) AppleWebKit/537.36 (KHTML, like Gecko) Chrome/138.0.0.0 Safari/537.36","WebKit","Chrome","138.0.0.0","Windows","10.0","https://app.prolific.com/","en-US,en;q=0.9","5a9aa66a35237b000112937b","686e379bc37a29ffa5cdc956","68776360300fae7356a5e45b","1","1","5a9aa66a35237b000112937b","1","1","2025-07-16T08:46:02.508Z","","","","","","","","","","","AttribQ","","50","","","","","","","","","","","","","","","","","","","","","","","","","","","","",""
"4606","","<div style=""width:500px;"">
  <p>How much control did you have over the ball?</p>
  </div>","0","html-slider-response","51","676768","0.0-5.0-2.8","77","1","2025-07-16 08:34:48","1f75c3e559b7213887762d5229550c2b","147.161.163.110","Mozilla/5.0 (Windows NT 10.0; Win64; x64) AppleWebKit/537.36 (KHTML, like Gecko) Chrome/138.0.0.0 Safari/537.36","WebKit","Chrome","138.0.0.0","Windows","10.0","https://app.prolific.com/","en-US,en;q=0.9","5a9aa66a35237b000112937b","686e379bc37a29ffa5cdc956","68776360300fae7356a5e45b","1","1","5a9aa66a35237b000112937b","1","1","2025-07-16T08:46:07.114Z","","","","","","","","","","","ControlQ","","50","","","","","","","","","","","","","","","","","","","","","","","","","","","","",""
"3288","","<div style=""width:500px;"">
  <p>How would you describe your current emotional state?</p>
  </div>","0","html-slider-response","52","680057","0.0-5.0-3.8","77","1","2025-07-16 08:34:48","1f75c3e559b7213887762d5229550c2b","147.161.163.110","Mozilla/5.0 (Windows NT 10.0; Win64; x64) AppleWebKit/537.36 (KHTML, like Gecko) Chrome/138.0.0.0 Safari/537.36","WebKit","Chrome","138.0.0.0","Windows","10.0","https://app.prolific.com/","en-US,en;q=0.9","5a9aa66a35237b000112937b","686e379bc37a29ffa5cdc956","68776360300fae7356a5e45b","1","1","5a9aa66a35237b000112937b","1","1","2025-07-16T08:46:10.403Z","","","","","","","","","","","StressQ","","50","","","","","","","","","","","","","","","","","","","","","","","","","","","","",""
"3303","","<div style=""width:500px;"">
  <p>What best describes how you currently feel?</p>
  </div>","100","html-slider-response","53","683362","0.0-5.0-4.8","77","1","2025-07-16 08:34:48","1f75c3e559b7213887762d5229550c2b","147.161.163.110","Mozilla/5.0 (Windows NT 10.0; Win64; x64) AppleWebKit/537.36 (KHTML, like Gecko) Chrome/138.0.0.0 Safari/537.36","WebKit","Chrome","138.0.0.0","Windows","10.0","https://app.prolific.com/","en-US,en;q=0.9","5a9aa66a35237b000112937b","686e379bc37a29ffa5cdc956","68776360300fae7356a5e45b","1","1","5a9aa66a35237b000112937b","1","1","2025-07-16T08:46:13.708Z","","","","","","","","","","","MotivationQ","","50","","","","","","","","","","","","","","","","","","","","","","","","","","","","",""
"","","","","ctl-task-cpt","54","730199","0.0-5.0-0.9","77","1","2025-07-16 08:34:48","1f75c3e559b7213887762d5229550c2b","147.161.163.110","Mozilla/5.0 (Windows NT 10.0; Win64; x64) AppleWebKit/537.36 (KHTML, like Gecko) Chrome/138.0.0.0 Safari/537.36","WebKit","Chrome","138.0.0.0","Windows","10.0","https://app.prolific.com/","en-US,en;q=0.9","5a9aa66a35237b000112937b","686e379bc37a29ffa5cdc956","68776360300fae7356a5e45b","1","1","5a9aa66a35237b000112937b","1","1","2025-07-16T08:47:00.545Z","","","","","","","","","","","","","","win-only","3","g1:SW,g2:NE","0.4","10","0","687329.9","1956.4","6958.9","43830.7","1","4","4","6","2","-4","-4","0","1","0","1248.6","3000","-2490","[""up"",""right""]","{""num_key_presses"":7,""num_perfect"":1,""num_errors"":0,""num_randdir"":6,""num_randdir_good_moves"":2,""num_whilered"":0,""num_whileblue"":0,""num_blue"":4,""num_good_moves"":3}","[401,404.90625,0.1,401,404.90625,104.8,401,404.90625,209.6,401,404.90625,317,450,340.90625,417.2,454,340.90625,518,546,244.90625,618.9,711,21.90625,719.2,709,23.90625,833.4,710,54.90625,934.6,713,60.90625,1039.9,713,60.90625,1150.3,713,60.90625,1260.8,713,60.90625,1361.1,713,60.90625,1467.6,713,60.90625,1567.7,713,60.90625,1669.1,709,61.90625,1770.2,709,61.90625,1870.6,709,61.90625,1975,709,61.90625,2084,709,61.90625,2184.2,709,61.90625,2284.4,709,61.90625,2384.8,709,61.90625,2490.1,709,61.90625,2601.4,709,61.90625,2704.1,709,61.90625,2804.2,709,61.90625,2904.2,709,61.90625,3005.5,709,61.90625,3109.9,709,61.90625,3219,709,61.90625,3320.2,709,61.90625,3424.5,709,61.90625,3529.9,709,61.90625,3634.6,709,61.90625,3734.8,709,61.90625,3835,709,61.90625,3935.4,709,61.90625,4039,709,61.90625,4139.3,709,61.90625,4252.6,709,61.90625,4352.9,709,61.90625,4454.2,709,61.90625,4554.5,709,61.90625,4659.5,709,61.90625,4769.2,709,61.90625,4869.2,709,61.90625,4969.2]","[1599.5,1599.5,1000,0,599.5,""oops"",""right"",""up"",""good_move"",4835.5,3235.6,2772.4,1599.9,463.2,""oops"",""right"",""left"",""bad_move"",14074.9,9239,2152.7,11507.3,414.9,""oops"",""right"",""left"",""bad_move"",17493.4,3418.2,2835.8,14075.2,582.4,""oops"",""right"",""down"",""bad_move"",20495.1,3001.3,2553.8,17493.8,447.5,""smooth"",""right"",""right"",""good_move"",24149.1,3653.7,3141.1,20495.4,512.6,""oops"",""right"",""left"",""bad_move"",29901.5,5752.1,1874.2,27485.7,541.6,""oops"",""right"",""right"",""good_move""]","",""
"4779","","<div style=""width:500px;"">
  <p>What determined the result of this run?</p>
  </div>","0","html-slider-response","55","734978","0.0-5.0-1.9","77","1","2025-07-16 08:34:48","1f75c3e559b7213887762d5229550c2b","147.161.163.110","Mozilla/5.0 (Windows NT 10.0; Win64; x64) AppleWebKit/537.36 (KHTML, like Gecko) Chrome/138.0.0.0 Safari/537.36","WebKit","Chrome","138.0.0.0","Windows","10.0","https://app.prolific.com/","en-US,en;q=0.9","5a9aa66a35237b000112937b","686e379bc37a29ffa5cdc956","68776360300fae7356a5e45b","1","1","5a9aa66a35237b000112937b","1","1","2025-07-16T08:47:05.324Z","","","","","","","","","","","AttribQ","","50","","","","","","","","","","","","","","","","","","","","","","","","","","","","",""
"4326","","<div style=""width:500px;"">
  <p>How much control did you have over the ball?</p>
  </div>","0","html-slider-response","56","739305","0.0-5.0-2.9","77","1","2025-07-16 08:34:48","1f75c3e559b7213887762d5229550c2b","147.161.163.110","Mozilla/5.0 (Windows NT 10.0; Win64; x64) AppleWebKit/537.36 (KHTML, like Gecko) Chrome/138.0.0.0 Safari/537.36","WebKit","Chrome","138.0.0.0","Windows","10.0","https://app.prolific.com/","en-US,en;q=0.9","5a9aa66a35237b000112937b","686e379bc37a29ffa5cdc956","68776360300fae7356a5e45b","1","1","5a9aa66a35237b000112937b","1","1","2025-07-16T08:47:09.651Z","","","","","","","","","","","ControlQ","","50","","","","","","","","","","","","","","","","","","","","","","","","","","","","",""
"3319","","<div style=""width:500px;"">
  <p>How would you describe your current emotional state?</p>
  </div>","0","html-slider-response","57","742626","0.0-5.0-3.9","77","1","2025-07-16 08:34:48","1f75c3e559b7213887762d5229550c2b","147.161.163.110","Mozilla/5.0 (Windows NT 10.0; Win64; x64) AppleWebKit/537.36 (KHTML, like Gecko) Chrome/138.0.0.0 Safari/537.36","WebKit","Chrome","138.0.0.0","Windows","10.0","https://app.prolific.com/","en-US,en;q=0.9","5a9aa66a35237b000112937b","686e379bc37a29ffa5cdc956","68776360300fae7356a5e45b","1","1","5a9aa66a35237b000112937b","1","1","2025-07-16T08:47:12.972Z","","","","","","","","","","","StressQ","","50","","","","","","","","","","","","","","","","","","","","","","","","","","","","",""
"3294","","<div style=""width:500px;"">
  <p>What best describes how you currently feel?</p>
  </div>","100","html-slider-response","58","745921","0.0-5.0-4.9","77","1","2025-07-16 08:34:48","1f75c3e559b7213887762d5229550c2b","147.161.163.110","Mozilla/5.0 (Windows NT 10.0; Win64; x64) AppleWebKit/537.36 (KHTML, like Gecko) Chrome/138.0.0.0 Safari/537.36","WebKit","Chrome","138.0.0.0","Windows","10.0","https://app.prolific.com/","en-US,en;q=0.9","5a9aa66a35237b000112937b","686e379bc37a29ffa5cdc956","68776360300fae7356a5e45b","1","1","5a9aa66a35237b000112937b","1","1","2025-07-16T08:47:16.268Z","","","","","","","","","","","MotivationQ","","50","","","","","","","","","","","","","","","","","","","","","","","","","","","","",""
"","","","","ctl-task-cpt","59","784984","0.0-5.0-0.10","77","1","2025-07-16 08:34:48","1f75c3e559b7213887762d5229550c2b","147.161.163.110","Mozilla/5.0 (Windows NT 10.0; Win64; x64) AppleWebKit/537.36 (KHTML, like Gecko) Chrome/138.0.0.0 Safari/537.36","WebKit","Chrome","138.0.0.0","Windows","10.0","https://app.prolific.com/","en-US,en;q=0.9","5a9aa66a35237b000112937b","686e379bc37a29ffa5cdc956","68776360300fae7356a5e45b","1","1","5a9aa66a35237b000112937b","1","1","2025-07-16T08:47:55.330Z","","","","","","","","","","","","","","win-only","0","g1:NW,g2:SE","0.5","11","0","749889.1","1469.1","6471.3","36051.1","1","4","8","6","2","-8","-8","0","0","0","1400.3","3000","-2455","[""down"",""right""]","{""num_key_presses"":7,""num_perfect"":3,""num_errors"":0,""num_randdir"":4,""num_randdir_good_moves"":2,""num_whilered"":0,""num_whileblue"":0,""num_blue"":2,""num_good_moves"":5}","[407,406.90625,0.2,407,406.90625,100.3,407,406.90625,200.7,407,406.90625,300.7,407,406.90625,401.8,425,415.90625,502.4,443,431.90625,607.9,457,447.90625,712,542,534.90625,816.2,609,594.90625,917,624,616.90625,1022,695,684.90625,1127.8,745,725.90625,1235.2,746,726.90625,1336.9,746,726.90625,1437.3,746,726.90625,1542.1,746,726.90625,1642.3,746,726.90625,1742.4,742,716.90625,1848.2,729,691.90625,1951.6,708,657.90625,2051.9,705,648.90625,2156.5,701,633.90625,2256.5,700,631.90625,2357,699,631.90625,2461.5,698,631.90625,2561.6,698,631.90625,2661.8,698,631.90625,2761.8,698,631.90625,2862,698,631.90625,2969.8,698,631.90625,3070,698,631.90625,3172.7,698,631.90625,3276,698,631.90625,3377.1,698,631.90625,3478,698,631.90625,3585.8,698,631.90625,3686.2,698,631.90625,3791.5,698,631.90625,3891.9,698,631.90625,3992,698,631.90625,4102.4,698,631.90625,4202.6,698,631.90625,4303.2,698,631.90625,4404.3,698,631.90625,4506.9,698,631.90625,4607.9,698,631.90625,4711.8,698,631.90625,4819.8,698,631.90625,4920.8]","[1433.6,1433.6,1000,0,433.6,""smooth"",""down"",""down"",""good_move"",4357.2,2923.3,2464.1,1433.9,459.2,""oops"",""down"",""right"",""good_move"",7710,3352.5,2928.6,4357.5,423.9,""oops"",""down"",""left"",""bad_move"",10790.5,3080.3,2659.6,7710.2,420.7,""oops"",""down"",""left"",""bad_move"",13526.3,2735.7,2175.2,10790.6,560.5,""smooth"",""down"",""down"",""good_move"",16860.7,3334.1,2700.9,13526.6,633.2,""oops"",""down"",""down"",""good_move"",23662,6801.1,2725.4,20464.8,471.8,""smooth"",""right"",""right"",""good_move""]","",""
"3689","","<div style=""width:500px;"">
  <p>What determined the result of this run?</p>
  </div>","0","html-slider-response","60","788673","0.0-5.0-1.10","77","1","2025-07-16 08:34:48","1f75c3e559b7213887762d5229550c2b","147.161.163.110","Mozilla/5.0 (Windows NT 10.0; Win64; x64) AppleWebKit/537.36 (KHTML, like Gecko) Chrome/138.0.0.0 Safari/537.36","WebKit","Chrome","138.0.0.0","Windows","10.0","https://app.prolific.com/","en-US,en;q=0.9","5a9aa66a35237b000112937b","686e379bc37a29ffa5cdc956","68776360300fae7356a5e45b","1","1","5a9aa66a35237b000112937b","1","1","2025-07-16T08:47:59.020Z","","","","","","","","","","","AttribQ","","50","","","","","","","","","","","","","","","","","","","","","","","","","","","","",""
"2950","","<div style=""width:500px;"">
  <p>How much control did you have over the ball?</p>
  </div>","0","html-slider-response","61","791625","0.0-5.0-2.10","77","1","2025-07-16 08:34:48","1f75c3e559b7213887762d5229550c2b","147.161.163.110","Mozilla/5.0 (Windows NT 10.0; Win64; x64) AppleWebKit/537.36 (KHTML, like Gecko) Chrome/138.0.0.0 Safari/537.36","WebKit","Chrome","138.0.0.0","Windows","10.0","https://app.prolific.com/","en-US,en;q=0.9","5a9aa66a35237b000112937b","686e379bc37a29ffa5cdc956","68776360300fae7356a5e45b","1","1","5a9aa66a35237b000112937b","1","1","2025-07-16T08:48:01.971Z","","","","","","","","","","","ControlQ","","50","","","","","","","","","","","","","","","","","","","","","","","","","","","","",""
"3239","","<div style=""width:500px;"">
  <p>How would you describe your current emotional state?</p>
  </div>","0","html-slider-response","62","794865","0.0-5.0-3.10","77","1","2025-07-16 08:34:48","1f75c3e559b7213887762d5229550c2b","147.161.163.110","Mozilla/5.0 (Windows NT 10.0; Win64; x64) AppleWebKit/537.36 (KHTML, like Gecko) Chrome/138.0.0.0 Safari/537.36","WebKit","Chrome","138.0.0.0","Windows","10.0","https://app.prolific.com/","en-US,en;q=0.9","5a9aa66a35237b000112937b","686e379bc37a29ffa5cdc956","68776360300fae7356a5e45b","1","1","5a9aa66a35237b000112937b","1","1","2025-07-16T08:48:05.211Z","","","","","","","","","","","StressQ","","50","","","","","","","","","","","","","","","","","","","","","","","","","","","","",""
"2664","","<div style=""width:500px;"">
  <p>What best describes how you currently feel?</p>
  </div>","100","html-slider-response","63","797530","0.0-5.0-4.10","77","1","2025-07-16 08:34:48","1f75c3e559b7213887762d5229550c2b","147.161.163.110","Mozilla/5.0 (Windows NT 10.0; Win64; x64) AppleWebKit/537.36 (KHTML, like Gecko) Chrome/138.0.0.0 Safari/537.36","WebKit","Chrome","138.0.0.0","Windows","10.0","https://app.prolific.com/","en-US,en;q=0.9","5a9aa66a35237b000112937b","686e379bc37a29ffa5cdc956","68776360300fae7356a5e45b","1","1","5a9aa66a35237b000112937b","1","1","2025-07-16T08:48:07.876Z","","","","","","","","","","","MotivationQ","","50","","","","","","","","","","","","","","","","","","","","","","","","","","","","",""
"","","","","ctl-task-cpt","64","834216","0.0-5.0-0.11","77","1","2025-07-16 08:34:48","1f75c3e559b7213887762d5229550c2b","147.161.163.110","Mozilla/5.0 (Windows NT 10.0; Win64; x64) AppleWebKit/537.36 (KHTML, like Gecko) Chrome/138.0.0.0 Safari/537.36","WebKit","Chrome","138.0.0.0","Windows","10.0","https://app.prolific.com/","en-US,en;q=0.9","5a9aa66a35237b000112937b","686e379bc37a29ffa5cdc956","68776360300fae7356a5e45b","1","1","5a9aa66a35237b000112937b","1","1","2025-07-16T08:48:44.562Z","","","","","","","","","","","","","","win-only","1","g1:NE,g2:SW","0.6","12","0","801497.1","1793.3","6798.8","33671.8","1","4","4","6","2","-4","-4","0","0","0","1259.7","3000","-2375","[""down"",""left""]","{""num_key_presses"":8,""num_perfect"":5,""num_errors"":0,""num_randdir"":3,""num_randdir_good_moves"":1,""num_whilered"":0,""num_whileblue"":0,""num_blue"":1,""num_good_moves"":6}","[406,407.90625,0.2,406,407.90625,102.2,406,407.90625,202.3,406,407.90625,303.2,406,407.90625,406.9,406,407.90625,506.9,380,420.90625,608.2,218,566.90625,711.9,204,631.90625,821.2,183,684.90625,922.9,158,714.90625,1027.4,116,747.90625,1137,92,738.90625,1237.9,90,738.90625,1338.3,90,738.90625,1452.2,92,736.90625,1552.6,105,737.90625,1653.4,105,737.90625,1757.1,105,737.90625,1857.1,105,737.90625,1958.4,105,737.90625,2061.8,105,737.90625,2170.6,105,737.90625,2270.7,105,737.90625,2370.9,105,737.90625,2471.1,105,737.90625,2571.2,105,737.90625,2672.2,105,737.90625,2772.2,105,737.90625,2873.3,105,737.90625,2977.1,105,737.90625,3077.4,105,737.90625,3177.5,105,737.90625,3278.1,105,737.90625,3387.6,105,737.90625,3493,105,737.90625,3597,105,737.90625,3697.1,105,737.90625,3798,105,737.90625,3902.3,105,737.90625,4002.3,105,737.90625,4103.4,105,737.90625,4207.8,105,737.90625,4321.8,105,737.90625,4421.9,105,737.90625,4521.9,105,737.90625,4627.5,105,737.90625,4728.6,105,737.90625,4833.8,105,737.90625,4937.2]","[1449.4,1449.4,1000,0,449.4,""smooth"",""left"",""left"",""good_move"",3510.1,2060.4,1579.2,1449.7,481.2,""smooth"",""left"",""left"",""good_move"",6637.6,3127.5,2697.8,3510.2,429.7,""oops"",""left"",""up"",""bad_move"",9304.6,2666.7,2221.4,6637.9,445.3,""smooth"",""left"",""left"",""good_move"",15508.6,6203.7,2622.8,12412.5,473.3,""smooth"",""down"",""down"",""good_move"",18581.8,3072.9,2601.5,15508.9,471.4,""oops"",""down"",""up"",""bad_move"",21510,2927.8,2393.9,18582.2,533.9,""smooth"",""down"",""down"",""good_move"",24494.1,2983.8,2558.7,21510.4,425,""oops"",""down"",""down"",""good_move""]","",""
"4537","","<div style=""width:500px;"">
  <p>What determined the result of this run?</p>
  </div>","0","html-slider-response","65","838754","0.0-5.0-1.11","77","1","2025-07-16 08:34:48","1f75c3e559b7213887762d5229550c2b","147.161.163.110","Mozilla/5.0 (Windows NT 10.0; Win64; x64) AppleWebKit/537.36 (KHTML, like Gecko) Chrome/138.0.0.0 Safari/537.36","WebKit","Chrome","138.0.0.0","Windows","10.0","https://app.prolific.com/","en-US,en;q=0.9","5a9aa66a35237b000112937b","686e379bc37a29ffa5cdc956","68776360300fae7356a5e45b","1","1","5a9aa66a35237b000112937b","1","1","2025-07-16T08:48:49.100Z","","","","","","","","","","","AttribQ","","50","","","","","","","","","","","","","","","","","","","","","","","","","","","","",""
"3233","","<div style=""width:500px;"">
  <p>How much control did you have over the ball?</p>
  </div>","0","html-slider-response","66","841987","0.0-5.0-2.11","77","1","2025-07-16 08:34:48","1f75c3e559b7213887762d5229550c2b","147.161.163.110","Mozilla/5.0 (Windows NT 10.0; Win64; x64) AppleWebKit/537.36 (KHTML, like Gecko) Chrome/138.0.0.0 Safari/537.36","WebKit","Chrome","138.0.0.0","Windows","10.0","https://app.prolific.com/","en-US,en;q=0.9","5a9aa66a35237b000112937b","686e379bc37a29ffa5cdc956","68776360300fae7356a5e45b","1","1","5a9aa66a35237b000112937b","1","1","2025-07-16T08:48:52.333Z","","","","","","","","","","","ControlQ","","50","","","","","","","","","","","","","","","","","","","","","","","","","","","","",""
"2981","","<div style=""width:500px;"">
  <p>How would you describe your current emotional state?</p>
  </div>","0","html-slider-response","67","844970","0.0-5.0-3.11","77","1","2025-07-16 08:34:48","1f75c3e559b7213887762d5229550c2b","147.161.163.110","Mozilla/5.0 (Windows NT 10.0; Win64; x64) AppleWebKit/537.36 (KHTML, like Gecko) Chrome/138.0.0.0 Safari/537.36","WebKit","Chrome","138.0.0.0","Windows","10.0","https://app.prolific.com/","en-US,en;q=0.9","5a9aa66a35237b000112937b","686e379bc37a29ffa5cdc956","68776360300fae7356a5e45b","1","1","5a9aa66a35237b000112937b","1","1","2025-07-16T08:48:55.316Z","","","","","","","","","","","StressQ","","50","","","","","","","","","","","","","","","","","","","","","","","","","","","","",""
"3943","","<div style=""width:500px;"">
  <p>What best describes how you currently feel?</p>
  </div>","100","html-slider-response","68","848914","0.0-5.0-4.11","77","1","2025-07-16 08:34:48","1f75c3e559b7213887762d5229550c2b","147.161.163.110","Mozilla/5.0 (Windows NT 10.0; Win64; x64) AppleWebKit/537.36 (KHTML, like Gecko) Chrome/138.0.0.0 Safari/537.36","WebKit","Chrome","138.0.0.0","Windows","10.0","https://app.prolific.com/","en-US,en;q=0.9","5a9aa66a35237b000112937b","686e379bc37a29ffa5cdc956","68776360300fae7356a5e45b","1","1","5a9aa66a35237b000112937b","1","1","2025-07-16T08:48:59.260Z","","","","","","","","","","","MotivationQ","","50","","","","","","","","","","","","","","","","","","","","","","","","","","","","",""
"","","","","ctl-task-cpt","69","897856","0.0-5.0-0.12","77","1","2025-07-16 08:34:48","1f75c3e559b7213887762d5229550c2b","147.161.163.110","Mozilla/5.0 (Windows NT 10.0; Win64; x64) AppleWebKit/537.36 (KHTML, like Gecko) Chrome/138.0.0.0 Safari/537.36","WebKit","Chrome","138.0.0.0","Windows","10.0","https://app.prolific.com/","en-US,en;q=0.9","5a9aa66a35237b000112937b","686e379bc37a29ffa5cdc956","68776360300fae7356a5e45b","1","1","5a9aa66a35237b000112937b","1","1","2025-07-16T08:49:48.202Z","","","","","","","","","","","","","","win-only","1","g1:NE,g2:SW","0.7","13","0","852881.3","1325","6330.1","45930.6","1","4","8","6","2","-8","-8","0","0","0","1568.5","3000","-2385","[""down"",""left""]","{""num_key_presses"":8,""num_perfect"":5,""num_errors"":0,""num_randdir"":3,""num_randdir_good_moves"":1,""num_whilered"":0,""num_whileblue"":0,""num_blue"":4,""num_good_moves"":6}","[412,402.90625,0.3,411,402.90625,100.3,411,402.90625,200.9,411,402.90625,305.4,411,402.90625,405.4,401,415.90625,506,365,448.90625,610.6,365,449.90625,719.7,356,459.90625,819.9,234,570.90625,919.9,147,674.90625,1020,111,732.90625,1120,88,764.90625,1221,82,763.90625,1325.3,81,749.90625,1425.5,83,731.90625,1537.9,84,731.90625,1644.7,84,731.90625,1754.1,84,731.90625,1856.7,85,730.90625,1969.5,110,703.90625,2070.9,116,703.90625,2171.4,116,703.90625,2275.6,116,703.90625,2380.4,116,703.90625,2485.8,116,703.90625,2586.2,116,703.90625,2690.6,116,703.90625,2791.3,116,703.90625,2903.4,116,703.90625,3005.7,116,703.90625,3106.7,116,703.90625,3211.2,116,703.90625,3316,116,703.90625,3420.6,116,703.90625,3525.9,116,703.90625,3636.3,116,703.90625,3741.4,116,703.90625,3854.8,116,703.90625,3955.9,116,703.90625,4056.4,116,703.90625,4156.7,116,703.90625,4260.2,116,703.90625,4361,116,703.90625,4467.1,116,703.90625,4570.7,116,703.90625,4671,116,703.90625,4771.3,116,703.90625,4875.9,116,703.90625,4975.9]","[1548.9,1548.9,1000,0,548.9,""smooth"",""left"",""left"",""good_move"",5002.4,3453.3,2998.8,1549.1,454.5,""smooth"",""left"",""left"",""good_move"",8087.6,3085.1,2702.3,5002.5,382.8,""oops"",""left"",""up"",""bad_move"",21378.6,13290.7,2589.7,18294.5,494.4,""oops"",""down"",""down"",""good_move"",24266.3,2887.5,2446.1,21378.8,441.4,""smooth"",""down"",""down"",""good_move"",26764.6,2498.1,2067.6,24266.5,430.5,""smooth"",""down"",""down"",""good_move"",33168.9,6404.1,2604.6,30151.3,413,""smooth"",""down"",""down"",""good_move"",36506.3,3337,2874.3,33169.3,462.7,""oops"",""left"",""right"",""bad_move""]","",""
"5987","","<div style=""width:500px;"">
  <p>What determined the result of this run?</p>
  </div>","0","html-slider-response","70","903844","0.0-5.0-1.12","77","1","2025-07-16 08:34:48","1f75c3e559b7213887762d5229550c2b","147.161.163.110","Mozilla/5.0 (Windows NT 10.0; Win64; x64) AppleWebKit/537.36 (KHTML, like Gecko) Chrome/138.0.0.0 Safari/537.36","WebKit","Chrome","138.0.0.0","Windows","10.0","https://app.prolific.com/","en-US,en;q=0.9","5a9aa66a35237b000112937b","686e379bc37a29ffa5cdc956","68776360300fae7356a5e45b","1","1","5a9aa66a35237b000112937b","1","1","2025-07-16T08:49:54.190Z","","","","","","","","","","","AttribQ","","50","","","","","","","","","","","","","","","","","","","","","","","","","","","","",""
"4005","","<div style=""width:500px;"">
  <p>How much control did you have over the ball?</p>
  </div>","19","html-slider-response","71","907850","0.0-5.0-2.12","77","1","2025-07-16 08:34:48","1f75c3e559b7213887762d5229550c2b","147.161.163.110","Mozilla/5.0 (Windows NT 10.0; Win64; x64) AppleWebKit/537.36 (KHTML, like Gecko) Chrome/138.0.0.0 Safari/537.36","WebKit","Chrome","138.0.0.0","Windows","10.0","https://app.prolific.com/","en-US,en;q=0.9","5a9aa66a35237b000112937b","686e379bc37a29ffa5cdc956","68776360300fae7356a5e45b","1","1","5a9aa66a35237b000112937b","1","1","2025-07-16T08:49:58.196Z","","","","","","","","","","","ControlQ","","50","","","","","","","","","","","","","","","","","","","","","","","","","","","","",""
"4542","","<div style=""width:500px;"">
  <p>How would you describe your current emotional state?</p>
  </div>","0","html-slider-response","72","912394","0.0-5.0-3.12","77","1","2025-07-16 08:34:48","1f75c3e559b7213887762d5229550c2b","147.161.163.110","Mozilla/5.0 (Windows NT 10.0; Win64; x64) AppleWebKit/537.36 (KHTML, like Gecko) Chrome/138.0.0.0 Safari/537.36","WebKit","Chrome","138.0.0.0","Windows","10.0","https://app.prolific.com/","en-US,en;q=0.9","5a9aa66a35237b000112937b","686e379bc37a29ffa5cdc956","68776360300fae7356a5e45b","1","1","5a9aa66a35237b000112937b","1","1","2025-07-16T08:50:02.740Z","","","","","","","","","","","StressQ","","50","","","","","","","","","","","","","","","","","","","","","","","","","","","","",""
"3943","","<div style=""width:500px;"">
  <p>What best describes how you currently feel?</p>
  </div>","100","html-slider-response","73","916338","0.0-5.0-4.12","77","1","2025-07-16 08:34:48","1f75c3e559b7213887762d5229550c2b","147.161.163.110","Mozilla/5.0 (Windows NT 10.0; Win64; x64) AppleWebKit/537.36 (KHTML, like Gecko) Chrome/138.0.0.0 Safari/537.36","WebKit","Chrome","138.0.0.0","Windows","10.0","https://app.prolific.com/","en-US,en;q=0.9","5a9aa66a35237b000112937b","686e379bc37a29ffa5cdc956","68776360300fae7356a5e45b","1","1","5a9aa66a35237b000112937b","1","1","2025-07-16T08:50:06.684Z","","","","","","","","","","","MotivationQ","","50","","","","","","","","","","","","","","","","","","","","","","","","","","","","",""
"","","","","ctl-task-cpt","74","959933","0.0-5.0-0.13","77","1","2025-07-16 08:34:48","1f75c3e559b7213887762d5229550c2b","147.161.163.110","Mozilla/5.0 (Windows NT 10.0; Win64; x64) AppleWebKit/537.36 (KHTML, like Gecko) Chrome/138.0.0.0 Safari/537.36","WebKit","Chrome","138.0.0.0","Windows","10.0","https://app.prolific.com/","en-US,en;q=0.9","5a9aa66a35237b000112937b","686e379bc37a29ffa5cdc956","68776360300fae7356a5e45b","1","1","5a9aa66a35237b000112937b","1","1","2025-07-16T08:50:50.279Z","","","","","","","","","","","","","","win-only","2","g1:SE,g2:NW","0.8","14","0","920305","1541.9","6552.1","40576.9","1","4","4","6","2","-4","-4","0","0","0","1327.5","3000","-2980","[""left"",""up""]","{""num_key_presses"":7,""num_perfect"":5,""num_errors"":0,""num_randdir"":2,""num_randdir_good_moves"":1,""num_whilered"":0,""num_whileblue"":0,""num_blue"":3,""num_good_moves"":6}","[409,404.90625,0.2,409,404.90625,103.8,409,404.90625,204.8,409,404.90625,305.1,409,404.90625,405.6,428,418.90625,507.8,584,559.90625,608.7,598,603.90625,722.3,382,451.90625,823.1,121,190.90625,925,99,132.90625,1029.1,96,121.90625,1129.1,83,98.90625,1239.8,79,88.90625,1339.8,79,88.90625,1444.1,79,88.90625,1549,79,88.90625,1649.5,79,88.90625,1749.6,79,88.90625,1853.3,79,88.90625,1954.7,79,88.90625,2055.3,79,88.90625,2155.2,79,88.90625,2259.5,79,88.90625,2373.7,79,88.90625,2473.7,79,88.90625,2578.7,79,88.90625,2679,79,88.90625,2783.8,79,88.90625,2885.1,79,88.90625,2989.9,79,88.90625,3093.4,79,88.90625,3194.4,79,88.90625,3309.2,79,88.90625,3414.7,79,88.90625,3523.8,79,88.90625,3629.6,79,88.90625,3740.2,79,88.90625,3844.7,79,88.90625,3958.9,79,88.90625,4064.4,79,88.90625,4174.7,79,88.90625,4278.5,79,88.90625,4379.1,79,88.90625,4484.2,79,88.90625,4584.4,79,88.90625,4688.9,79,88.90625,4789.5,79,88.90625,4894.1,79,88.90625,4994.3]","[1484.5,1484.5,1000,0,484.5,""smooth"",""up"",""up"",""good_move"",5060.5,3575.7,3135.8,1484.8,439.9,""smooth"",""up"",""up"",""good_move"",12149.4,7088.6,2761.8,8968.7,418.9,""oops"",""up"",""right"",""bad_move"",15509.1,3359.5,2967.4,12149.6,392.1,""oops"",""up"",""up"",""good_move"",22685,7175.5,2854.2,19344.3,486.5,""smooth"",""left"",""left"",""good_move"",28940.5,6255.3,2324.5,26259.9,356.2,""smooth"",""left"",""left"",""good_move"",31212.8,2272,1722.5,28940.8,549.5,""smooth"",""left"",""left"",""good_move""]","",""
"5188","","<div style=""width:500px;"">
  <p>What determined the result of this run?</p>
  </div>","2","html-slider-response","75","965122","0.0-5.0-1.13","77","1","2025-07-16 08:34:48","1f75c3e559b7213887762d5229550c2b","147.161.163.110","Mozilla/5.0 (Windows NT 10.0; Win64; x64) AppleWebKit/537.36 (KHTML, like Gecko) Chrome/138.0.0.0 Safari/537.36","WebKit","Chrome","138.0.0.0","Windows","10.0","https://app.prolific.com/","en-US,en;q=0.9","5a9aa66a35237b000112937b","686e379bc37a29ffa5cdc956","68776360300fae7356a5e45b","1","1","5a9aa66a35237b000112937b","1","1","2025-07-16T08:50:55.468Z","","","","","","","","","","","AttribQ","","50","","","","","","","","","","","","","","","","","","","","","","","","","","","","",""
"3615","","<div style=""width:500px;"">
  <p>How much control did you have over the ball?</p>
  </div>","37","html-slider-response","76","968738","0.0-5.0-2.13","77","1","2025-07-16 08:34:48","1f75c3e559b7213887762d5229550c2b","147.161.163.110","Mozilla/5.0 (Windows NT 10.0; Win64; x64) AppleWebKit/537.36 (KHTML, like Gecko) Chrome/138.0.0.0 Safari/537.36","WebKit","Chrome","138.0.0.0","Windows","10.0","https://app.prolific.com/","en-US,en;q=0.9","5a9aa66a35237b000112937b","686e379bc37a29ffa5cdc956","68776360300fae7356a5e45b","1","1","5a9aa66a35237b000112937b","1","1","2025-07-16T08:50:59.084Z","","","","","","","","","","","ControlQ","","50","","","","","","","","","","","","","","","","","","","","","","","","","","","","",""
"4727","","<div style=""width:500px;"">
  <p>How would you describe your current emotional state?</p>
  </div>","1","html-slider-response","77","973466","0.0-5.0-3.13","77","1","2025-07-16 08:34:48","1f75c3e559b7213887762d5229550c2b","147.161.163.110","Mozilla/5.0 (Windows NT 10.0; Win64; x64) AppleWebKit/537.36 (KHTML, like Gecko) Chrome/138.0.0.0 Safari/537.36","WebKit","Chrome","138.0.0.0","Windows","10.0","https://app.prolific.com/","en-US,en;q=0.9","5a9aa66a35237b000112937b","686e379bc37a29ffa5cdc956","68776360300fae7356a5e45b","1","1","5a9aa66a35237b000112937b","1","1","2025-07-16T08:51:03.812Z","","","","","","","","","","","StressQ","","50","","","","","","","","","","","","","","","","","","","","","","","","","","","","",""
"4062","","<div style=""width:500px;"">
  <p>What best describes how you currently feel?</p>
  </div>","100","html-slider-response","78","977530","0.0-5.0-4.13","77","1","2025-07-16 08:34:48","1f75c3e559b7213887762d5229550c2b","147.161.163.110","Mozilla/5.0 (Windows NT 10.0; Win64; x64) AppleWebKit/537.36 (KHTML, like Gecko) Chrome/138.0.0.0 Safari/537.36","WebKit","Chrome","138.0.0.0","Windows","10.0","https://app.prolific.com/","en-US,en;q=0.9","5a9aa66a35237b000112937b","686e379bc37a29ffa5cdc956","68776360300fae7356a5e45b","1","1","5a9aa66a35237b000112937b","1","1","2025-07-16T08:51:07.876Z","","","","","","","","","","","MotivationQ","","50","","","","","","","","","","","","","","","","","","","","","","","","","","","","",""
"","","","","ctl-task-cpt","79","1002188","0.0-5.0-0.14","77","1","2025-07-16 08:34:48","1f75c3e559b7213887762d5229550c2b","147.161.163.110","Mozilla/5.0 (Windows NT 10.0; Win64; x64) AppleWebKit/537.36 (KHTML, like Gecko) Chrome/138.0.0.0 Safari/537.36","WebKit","Chrome","138.0.0.0","Windows","10.0","https://app.prolific.com/","en-US,en;q=0.9","5a9aa66a35237b000112937b","686e379bc37a29ffa5cdc956","68776360300fae7356a5e45b","1","1","5a9aa66a35237b000112937b","1","1","2025-07-16T08:51:32.534Z","","","","","","","","","","","","","","win-only","2","g1:SE,g2:NW","0.9","15","0","981496.9","1173.8","6181","21640.7","1","4","8","6","1","1","1","1","0","0.007575757575757576","2336","3000","885","[""down"",""right""]","{""num_key_presses"":6,""num_perfect"":5,""num_errors"":0,""num_randdir"":1,""num_randdir_good_moves"":0,""num_whilered"":0,""num_whileblue"":0,""num_blue"":0,""num_good_moves"":5}","[408,416.90625,0.2,408,416.90625,101.5,408,416.90625,201.5,408,416.90625,302.2,408,416.90625,407.6,408,416.90625,521.9,408,416.90625,627.8,410,416.90625,731.8,404,403.90625,832.7,118,115.90625,933.5,99,44.90625,1037.3,89,35.90625,1143,76,34.90625,1256.3,73,39.90625,1358,75,48.90625,1462,79,53.90625,1567.4,79,53.90625,1667.7,79,53.90625,1772.1,586,644.90625,1888.3,624,722.90625,1991.7,621,719.90625,2096.7,680,727.90625,2196.7,708,733.90625,2298.2,708,733.90625,2407.3,707,731.90625,2512.4,707,731.90625,2617.5,707,731.90625,2721.5,706,731.90625,2822,706,731.90625,2937.8,706,731.90625,3039.2,706,731.90625,3141.8,706,731.90625,3246.7,706,731.90625,3352.1,706,731.90625,3452.3,706,731.90625,3557.1,706,731.90625,3673.3,706,731.90625,3776.4,706,731.90625,3876.7,706,731.90625,3991.2,706,731.90625,4092.8,706,731.90625,4197.8,706,731.90625,4302,706,731.90625,4407.3,706,731.90625,4522.1,706,731.90625,4622.2,706,731.90625,4722.9,706,731.90625,4826.9,706,731.90625,4941.8]","[1839.8,1839.8,1000,0,839.8,""oops"",""right"",""up"",""bad_move"",4602.1,2762,2355.8,1840.1,406.2,""smooth"",""right"",""right"",""good_move"",7511.8,2909.5,2468.5,4602.3,441,""smooth"",""right"",""right"",""good_move"",10455.8,2943.8,2500,7512,443.8,""smooth"",""down"",""down"",""good_move"",13047.9,2591.9,2155.8,10456,436.1,""smooth"",""down"",""down"",""good_move"",15320,2271.8,1895.1,13048.2,376.7,""smooth"",""down"",""down"",""good_move""]","",""
"10509","","<div style=""width:500px;"">
  <p>What determined the result of this run?</p>
  </div>","0","html-slider-response","80","1012698","0.0-5.0-1.14","77","1","2025-07-16 08:34:48","1f75c3e559b7213887762d5229550c2b","147.161.163.110","Mozilla/5.0 (Windows NT 10.0; Win64; x64) AppleWebKit/537.36 (KHTML, like Gecko) Chrome/138.0.0.0 Safari/537.36","WebKit","Chrome","138.0.0.0","Windows","10.0","https://app.prolific.com/","en-US,en;q=0.9","5a9aa66a35237b000112937b","686e379bc37a29ffa5cdc956","68776360300fae7356a5e45b","1","1","5a9aa66a35237b000112937b","1","1","2025-07-16T08:51:43.044Z","","","","","","","","","","","AttribQ","","50","","","","","","","","","","","","","","","","","","","","","","","","","","","","",""
"9102","","<div style=""width:500px;"">
  <p>How much control did you have over the ball?</p>
  </div>","0","html-slider-response","81","1021802","0.0-5.0-2.14","77","1","2025-07-16 08:34:48","1f75c3e559b7213887762d5229550c2b","147.161.163.110","Mozilla/5.0 (Windows NT 10.0; Win64; x64) AppleWebKit/537.36 (KHTML, like Gecko) Chrome/138.0.0.0 Safari/537.36","WebKit","Chrome","138.0.0.0","Windows","10.0","https://app.prolific.com/","en-US,en;q=0.9","5a9aa66a35237b000112937b","686e379bc37a29ffa5cdc956","68776360300fae7356a5e45b","1","1","5a9aa66a35237b000112937b","1","1","2025-07-16T08:51:52.148Z","","","","","","","","","","","ControlQ","","50","","","","","","","","","","","","","","","","","","","","","","","","","","","","",""
"41810","","<div style=""width:500px;"">
  <p>How would you describe your current emotional state?</p>
  </div>","0","html-slider-response","82","1063613","0.0-5.0-3.14","77","1","2025-07-16 08:34:48","1f75c3e559b7213887762d5229550c2b","147.161.163.110","Mozilla/5.0 (Windows NT 10.0; Win64; x64) AppleWebKit/537.36 (KHTML, like Gecko) Chrome/138.0.0.0 Safari/537.36","WebKit","Chrome","138.0.0.0","Windows","10.0","https://app.prolific.com/","en-US,en;q=0.9","5a9aa66a35237b000112937b","686e379bc37a29ffa5cdc956","68776360300fae7356a5e45b","1","1","5a9aa66a35237b000112937b","1","1","2025-07-16T08:52:33.959Z","","","","","","","","","","","StressQ","","50","","","","","","","","","","","","","","","","","","","","","","","","","","","","",""
"11668","","<div style=""width:500px;"">
  <p>What best describes how you currently feel?</p>
  </div>","99","html-slider-response","83","1075282","0.0-5.0-4.14","77","1","2025-07-16 08:34:48","1f75c3e559b7213887762d5229550c2b","147.161.163.110","Mozilla/5.0 (Windows NT 10.0; Win64; x64) AppleWebKit/537.36 (KHTML, like Gecko) Chrome/138.0.0.0 Safari/537.36","WebKit","Chrome","138.0.0.0","Windows","10.0","https://app.prolific.com/","en-US,en;q=0.9","5a9aa66a35237b000112937b","686e379bc37a29ffa5cdc956","68776360300fae7356a5e45b","1","1","5a9aa66a35237b000112937b","1","1","2025-07-16T08:52:45.628Z","","","","","","","","","","","MotivationQ","","50","","","","","","","","","","","","","","","","","","","","","","","","","","","","",""
"","","","","ctl-task-cpt","84","1108966","0.0-5.0-0.15","77","1","2025-07-16 08:34:48","1f75c3e559b7213887762d5229550c2b","147.161.163.110","Mozilla/5.0 (Windows NT 10.0; Win64; x64) AppleWebKit/537.36 (KHTML, like Gecko) Chrome/138.0.0.0 Safari/537.36","WebKit","Chrome","138.0.0.0","Windows","10.0","https://app.prolific.com/","en-US,en;q=0.9","5a9aa66a35237b000112937b","686e379bc37a29ffa5cdc956","68776360300fae7356a5e45b","1","1","5a9aa66a35237b000112937b","1","1","2025-07-16T08:53:19.312Z","","","","","","","","","","","","","","win-only","3","g1:SW,g2:NE","0.8","16","0","1079249.4","4365.6","9370.6","27302.2","1","4","4","6","2","4","4","5","1","0.03787878787878788","2039.2","3000","815","[""up"",""right""]","{""num_key_presses"":6,""num_perfect"":6,""num_errors"":0,""num_randdir"":0,""num_randdir_good_moves"":0,""num_whilered"":0,""num_whileblue"":0,""num_blue"":1,""num_good_moves"":6}","[410,400.90625,0.3,410,400.90625,100.8,410,400.90625,205.7,410,400.90625,306.3,412,400.90625,411.9,417,396.90625,514.7,417,394.90625,614.7,421,393.90625,716.4,664,64.90625,820.5,695,5.90625,926.4,697,33.90625,1032.4,700,64.90625,1136.6,588,149.90625,1239.9,167,565.90625,1341.3,118,609.90625,1446.5,90,650.90625,1546.5,276,513.90625,1650.3,781,76.90625,1755.8,771,71.90625,1856.3,770,71.90625,1960.2,761,71.90625,2065.5,757,73.90625,2168.2,755,74.90625,2269.2,752,77.90625,2369.8,752,77.90625,2470,752,77.90625,2575.5,752,77.90625,2680.4,752,77.90625,2782.9,752,77.90625,2888.9,752,77.90625,2992,752,77.90625,3096.4,752,77.90625,3196.4,752,77.90625,3296.6,752,77.90625,3400.3,752,77.90625,3505.9,752,77.90625,3611.3,752,77.90625,3714.7,752,77.90625,3816.4,752,77.90625,3921,752,77.90625,4021.2,752,77.90625,4124.6,752,77.90625,4224.7,752,77.90625,4325,752,77.90625,4425,752,77.90625,4525.1,752,77.90625,4626.1,752,77.90625,4726.1,752,77.90625,4826.2,752,77.90625,4926.6]","[1426.2,1426.2,1000,0,426.2,""smooth"",""right"",""right"",""good_move"",4231.1,2804.6,2365.3,1426.5,439.3,""smooth"",""right"",""right"",""good_move"",6770.2,2539,2156.9,4231.2,382.1,""smooth"",""right"",""right"",""good_move"",9873.8,3103.3,2761.8,6770.5,341.5,""smooth"",""up"",""up"",""good_move"",15386.6,5512.5,2090.6,12894.2,401.8,""smooth"",""up"",""up"",""good_move"",17841.7,2455,2133.4,15386.8,321.6,""smooth"",""up"",""up"",""good_move""]","",""
"5427","","<div style=""width:500px;"">
  <p>What determined the result of this run?</p>
  </div>","0","html-slider-response","85","1114394","0.0-5.0-1.15","77","1","2025-07-16 08:34:48","1f75c3e559b7213887762d5229550c2b","147.161.163.110","Mozilla/5.0 (Windows NT 10.0; Win64; x64) AppleWebKit/537.36 (KHTML, like Gecko) Chrome/138.0.0.0 Safari/537.36","WebKit","Chrome","138.0.0.0","Windows","10.0","https://app.prolific.com/","en-US,en;q=0.9","5a9aa66a35237b000112937b","686e379bc37a29ffa5cdc956","68776360300fae7356a5e45b","1","1","5a9aa66a35237b000112937b","1","1","2025-07-16T08:53:24.740Z","","","","","","","","","","","AttribQ","","50","","","","","","","","","","","","","","","","","","","","","","","","","","","","",""
"6551","","<div style=""width:500px;"">
  <p>How much control did you have over the ball?</p>
  </div>","0","html-slider-response","86","1120946","0.0-5.0-2.15","77","1","2025-07-16 08:34:48","1f75c3e559b7213887762d5229550c2b","147.161.163.110","Mozilla/5.0 (Windows NT 10.0; Win64; x64) AppleWebKit/537.36 (KHTML, like Gecko) Chrome/138.0.0.0 Safari/537.36","WebKit","Chrome","138.0.0.0","Windows","10.0","https://app.prolific.com/","en-US,en;q=0.9","5a9aa66a35237b000112937b","686e379bc37a29ffa5cdc956","68776360300fae7356a5e45b","1","1","5a9aa66a35237b000112937b","1","1","2025-07-16T08:53:31.292Z","","","","","","","","","","","ControlQ","","50","","","","","","","","","","","","","","","","","","","","","","","","","","","","",""
"4608","","<div style=""width:500px;"">
  <p>How would you describe your current emotional state?</p>
  </div>","0","html-slider-response","87","1125555","0.0-5.0-3.15","77","1","2025-07-16 08:34:48","1f75c3e559b7213887762d5229550c2b","147.161.163.110","Mozilla/5.0 (Windows NT 10.0; Win64; x64) AppleWebKit/537.36 (KHTML, like Gecko) Chrome/138.0.0.0 Safari/537.36","WebKit","Chrome","138.0.0.0","Windows","10.0","https://app.prolific.com/","en-US,en;q=0.9","5a9aa66a35237b000112937b","686e379bc37a29ffa5cdc956","68776360300fae7356a5e45b","1","1","5a9aa66a35237b000112937b","1","1","2025-07-16T08:53:35.901Z","","","","","","","","","","","StressQ","","50","","","","","","","","","","","","","","","","","","","","","","","","","","","","",""
"4686","","<div style=""width:500px;"">
  <p>What best describes how you currently feel?</p>
  </div>","100","html-slider-response","88","1130242","0.0-5.0-4.15","77","1","2025-07-16 08:34:48","1f75c3e559b7213887762d5229550c2b","147.161.163.110","Mozilla/5.0 (Windows NT 10.0; Win64; x64) AppleWebKit/537.36 (KHTML, like Gecko) Chrome/138.0.0.0 Safari/537.36","WebKit","Chrome","138.0.0.0","Windows","10.0","https://app.prolific.com/","en-US,en;q=0.9","5a9aa66a35237b000112937b","686e379bc37a29ffa5cdc956","68776360300fae7356a5e45b","1","1","5a9aa66a35237b000112937b","1","1","2025-07-16T08:53:40.588Z","","","","","","","","","","","MotivationQ","","50","","","","","","","","","","","","","","","","","","","","","","","","","","","","",""
"","","","","ctl-task-cpt","89","1174667","0.0-5.0-0.16","77","1","2025-07-16 08:34:48","1f75c3e559b7213887762d5229550c2b","147.161.163.110","Mozilla/5.0 (Windows NT 10.0; Win64; x64) AppleWebKit/537.36 (KHTML, like Gecko) Chrome/138.0.0.0 Safari/537.36","WebKit","Chrome","138.0.0.0","Windows","10.0","https://app.prolific.com/","en-US,en;q=0.9","5a9aa66a35237b000112937b","686e379bc37a29ffa5cdc956","68776360300fae7356a5e45b","1","1","5a9aa66a35237b000112937b","1","1","2025-07-16T08:54:25.013Z","","","","","","","","","","","","","","win-only","1","g1:NE,g2:SW","0.6","17","0","1134208.6","1779.6","6783.2","41405.9","1","4","8","6","2","8","8","13","5","0.09848484848484848","1074.4","3000","440","[""down"",""left""]","{""num_key_presses"":8,""num_perfect"":6,""num_errors"":0,""num_randdir"":2,""num_randdir_good_moves"":1,""num_whilered"":0,""num_whileblue"":0,""num_blue"":3,""num_good_moves"":7}","[411,404.90625,0.1,411,404.90625,102.9,411,404.90625,205.7,424,400.90625,306.6,530,313.90625,410.8,425,448.90625,512.2,67,805.90625,616.4,63,799.90625,716.7,51,797.90625,821.7,61,764.90625,936.2,91,713.90625,1036.5,91,713.90625,1137.1,91,713.90625,1237.2,92,713.90625,1337.4,106,705.90625,1441,109,704.90625,1541.3,109,704.90625,1646.2,109,704.90625,1751.4,109,704.90625,1851.4,109,704.90625,1968.5,109,704.90625,2070.4,109,704.90625,2170.8,109,704.90625,2276.1,109,704.90625,2382,109,704.90625,2485.9,109,704.90625,2586.6,109,704.90625,2702,109,704.90625,2802,109,704.90625,2906.5,109,704.90625,3011.1,109,704.90625,3116.4,109,704.90625,3220.6,109,704.90625,3320.9,109,704.90625,3421.3,109,704.90625,3537.3,109,704.90625,3642.2,109,704.90625,3746.4,109,704.90625,3847.2,109,704.90625,3951.9,109,704.90625,4056.5,109,704.90625,4171.4,109,704.90625,4272.7,109,704.90625,4376,109,704.90625,4476,109,704.90625,4581,109,704.90625,4681.2,109,704.90625,4781.9,109,704.90625,4885.9,109,704.90625,4986]","[1466.1,1466.1,1000,0,466.1,""smooth"",""left"",""left"",""good_move"",7755.9,6289.5,2572,4758.8,425.1,""smooth"",""left"",""left"",""good_move"",11141.2,3385.1,2938.1,7756.1,447,""smooth"",""left"",""left"",""good_move"",14278,3136.7,2498.2,11141.3,638.5,""smooth"",""down"",""down"",""good_move"",17111.2,2832.9,2367.2,14278.3,465.7,""smooth"",""down"",""down"",""good_move"",24094.2,6982.7,2836.4,20827.9,429.9,""oops"",""down"",""up"",""bad_move"",31186.4,7091.9,2911.8,27852.6,422,""oops"",""down"",""down"",""good_move"",34493.8,3307.2,2877.9,31186.6,429.3,""smooth"",""down"",""down"",""good_move""]","",""
"4863","","<div style=""width:500px;"">
  <p>What determined the result of this run?</p>
  </div>","1","html-slider-response","90","1179530","0.0-5.0-1.16","77","1","2025-07-16 08:34:48","1f75c3e559b7213887762d5229550c2b","147.161.163.110","Mozilla/5.0 (Windows NT 10.0; Win64; x64) AppleWebKit/537.36 (KHTML, like Gecko) Chrome/138.0.0.0 Safari/537.36","WebKit","Chrome","138.0.0.0","Windows","10.0","https://app.prolific.com/","en-US,en;q=0.9","5a9aa66a35237b000112937b","686e379bc37a29ffa5cdc956","68776360300fae7356a5e45b","1","1","5a9aa66a35237b000112937b","1","1","2025-07-16T08:54:29.876Z","","","","","","","","","","","AttribQ","","50","","","","","","","","","","","","","","","","","","","","","","","","","","","","",""
"6216","","<div style=""width:500px;"">
  <p>How much control did you have over the ball?</p>
  </div>","0","html-slider-response","91","1185747","0.0-5.0-2.16","77","1","2025-07-16 08:34:48","1f75c3e559b7213887762d5229550c2b","147.161.163.110","Mozilla/5.0 (Windows NT 10.0; Win64; x64) AppleWebKit/537.36 (KHTML, like Gecko) Chrome/138.0.0.0 Safari/537.36","WebKit","Chrome","138.0.0.0","Windows","10.0","https://app.prolific.com/","en-US,en;q=0.9","5a9aa66a35237b000112937b","686e379bc37a29ffa5cdc956","68776360300fae7356a5e45b","1","1","5a9aa66a35237b000112937b","1","1","2025-07-16T08:54:36.093Z","","","","","","","","","","","ControlQ","","50","","","","","","","","","","","","","","","","","","","","","","","","","","","","",""
"6093","","<div style=""width:500px;"">
  <p>How would you describe your current emotional state?</p>
  </div>","0","html-slider-response","92","1191842","0.0-5.0-3.16","77","1","2025-07-16 08:34:48","1f75c3e559b7213887762d5229550c2b","147.161.163.110","Mozilla/5.0 (Windows NT 10.0; Win64; x64) AppleWebKit/537.36 (KHTML, like Gecko) Chrome/138.0.0.0 Safari/537.36","WebKit","Chrome","138.0.0.0","Windows","10.0","https://app.prolific.com/","en-US,en;q=0.9","5a9aa66a35237b000112937b","686e379bc37a29ffa5cdc956","68776360300fae7356a5e45b","1","1","5a9aa66a35237b000112937b","1","1","2025-07-16T08:54:42.188Z","","","","","","","","","","","StressQ","","50","","","","","","","","","","","","","","","","","","","","","","","","","","","","",""
"6934","","<div style=""width:500px;"">
