"rt","response_timestamp","stimulus","response","trial_type","trial_index","time_elapsed","internal_node_id","run_id","condition","recorded_at","source_code_version","ip","user_agent","device","browser","browser_version","platform","platform_version","referer","accept_language","PROLIFIC_PID","STUDY_ID","SESSION_ID","WEEK","BATCH","prolific_id","week","batch","realtime","success","responses","item_order","radio_event_ids","radio_event_times","key_event_times","mouse_event_times","straightlining","zigzagging","honeypot","eventType","view_history","slider_start","which_type","canvas_config","goals_layout","control_level","trial_number","tutorial_trial_number","trial_start_time","phase1_start_time","phase2_start_time","phase3_start_time","goal_1_value","goal_1_distance","goal_2_value","goal_2_distance","goal_selected","outcome","outcome_total","participant_final_score","participant_initial_score","participant_final_score_prop","goal_choice_rt","allocated_time","allocated_time_remaining","goal_direction","counts","mouse_movements","key_presses","question_order","question_id"
"5688","1753273012373","<p style='font-size:40px;line-height:1.25'><strong>Welcome to the experiment!</strong></p><p style='font-size:1.1em;line-height:1.25'>Thank you for participanting in our experiment again! You will be asked to play the Dysfunctional Ball Game again. We will briefly recap the rules before we start.</p><p style='font-size:1.1em;line-height:1.25'>Press <strong>Next</strong> to continue.</p>","0","custom-html-button-response","0","5695","0.0-0.0","217","1","2025-07-23 12:16:38","1f75c3e559b7213887762d5229550c2b","162.251.248.35","Mozilla/5.0 (Windows NT 10.0; Win64; x64) AppleWebKit/537.36 (KHTML, like Gecko) Chrome/134.0.0.0 Safari/537.36","WebKit","Chrome","134.0.0.0","Windows","10.0","https://app.prolific.com/","en-US,en;q=0.9","67eab317b6f969b3df440160","683db9eb0562dbf637994deb","6880d1c60d3d5b0777b60ceb","2","1","67eab317b6f969b3df440160","2","1","2025-07-23T12:16:52.374Z","","","","","","","","","","","","","","","","","","","","","","","","","","","","","","","","","","","","","","","","","",""
"9356","","","","fullscreen","1","16059","0.0-1.0","217","1","2025-07-23 12:16:38","1f75c3e559b7213887762d5229550c2b","162.251.248.35","Mozilla/5.0 (Windows NT 10.0; Win64; x64) AppleWebKit/537.36 (KHTML, like Gecko) Chrome/134.0.0.0 Safari/537.36","WebKit","Chrome","134.0.0.0","Windows","10.0","https://app.prolific.com/","en-US,en;q=0.9","67eab317b6f969b3df440160","683db9eb0562dbf637994deb","6880d1c60d3d5b0777b60ceb","2","1","67eab317b6f969b3df440160","2","1","","true","","","","","","","","","","","","","","","","","","","","","","","","","","","","","","","","","","","","","","","","",""
"3587","1753273026329","<p style='font-size:1.1em;line-height:1.25'>In the following, we will ask you a few questions relating to your feelings in the last 24 hours.<br></p><p style='font-size:1.1em;line-height:1.25'>Press the <strong>Next</strong> button to continue.</p>","0","custom-html-button-response","2","19651","0.0-2.0-0.0","217","1","2025-07-23 12:16:38","1f75c3e559b7213887762d5229550c2b","162.251.248.35","Mozilla/5.0 (Windows NT 10.0; Win64; x64) AppleWebKit/537.36 (KHTML, like Gecko) Chrome/134.0.0.0 Safari/537.36","WebKit","Chrome","134.0.0.0","Windows","10.0","https://app.prolific.com/","en-US,en;q=0.9","67eab317b6f969b3df440160","683db9eb0562dbf637994deb","6880d1c60d3d5b0777b60ceb","2","1","67eab317b6f969b3df440160","2","1","2025-07-23T12:17:06.330Z","","","","","","","","","","","","","","","","","","","","","","","","","","","","","","","","","","","","","","","","","",""
"64493","","","","survey-template","3","84152","0.0-2.0-1.0","217","1","2025-07-23 12:16:38","1f75c3e559b7213887762d5229550c2b","162.251.248.35","Mozilla/5.0 (Windows NT 10.0; Win64; x64) AppleWebKit/537.36 (KHTML, like Gecko) Chrome/134.0.0.0 Safari/537.36","WebKit","Chrome","134.0.0.0","Windows","10.0","https://app.prolific.com/","en-US,en;q=0.9","67eab317b6f969b3df440160","683db9eb0562dbf637994deb","6880d1c60d3d5b0777b60ceb","2","1","67eab317b6f969b3df440160","2","1","2025-07-23T12:18:10.831Z","","{""Q01"":""0"",""Q02"":""0"",""Q03"":""0"",""Q04"":""1"",""Q05"":""1"",""Q06"":""1"",""Q07"":""0"",""Q08"":""0"",""Q09"":""1"",""Q10"":""0"",""Q11"":""1"",""Q12"":""0"",""Q13"":""5"",""Q14"":""1"",""Q15"":""0"",""Q16"":""0"",""Q17"":""1"",""Q18"":""0"",""Q19"":""0"",""Q20"":""0"",""Q21"":""0"",""Q22"":""0""}","[0,1,2,3,4,5,6,7,8,9,10,11,12,13,14,15,16,17,18,19,20,21]","[""Q01"",""Q02"",""Q03"",""Q04"",""Q05"",""Q06"",""Q07"",""Q08"",""Q09"",""Q10"",""Q11"",""Q12"",""Q13"",""Q14"",""Q15"",""Q16"",""Q17"",""Q18"",""Q19"",""Q20"",""Q21"",""Q22""]","[3279.300000011921,5994.5,7126.800000011921,8288.800000011921,10615.09999999404,14386.90000000596,16366.800000011921,18278.69999998808,21250.59999999404,24632.09999999404,27916.80000001192,30213,33444.09999999404,36144.30000001192,40142.09999999404,43450,45257.30000001192,47147.09999999404,50627.09999999404,54698.09999999404,57737.19999998808,63339.5]","[]","[0,3279.300000011921,4149.699999988079,5994.5,7126.800000011921,8288.800000011921,10615.09999999404,13772.199999988079,14386.90000000596,16366.800000011921,18278.69999998808,21250.59999999404,24632.09999999404,27916.80000001192,30213,33444.09999999404,36144.30000001192,39442.90000000596,40142.09999999404,43450,45257.30000001192,47147.09999999404,50627.09999999404,54698.09999999404,57737.19999998808,63339.5,64487.69999998808]","0.6363636363636364","0.47619047619047616","0","drsp","","","","","","","","","","","","","","","","","","","","","","","","","","","","","","",""
"87307","","","","survey-template","4","171462","0.0-2.0-2.0","217","1","2025-07-23 12:16:38","1f75c3e559b7213887762d5229550c2b","162.251.248.35","Mozilla/5.0 (Windows NT 10.0; Win64; x64) AppleWebKit/537.36 (KHTML, like Gecko) Chrome/134.0.0.0 Safari/537.36","WebKit","Chrome","134.0.0.0","Windows","10.0","https://app.prolific.com/","en-US,en;q=0.9","67eab317b6f969b3df440160","683db9eb0562dbf637994deb","6880d1c60d3d5b0777b60ceb","2","1","67eab317b6f969b3df440160","2","1","2025-07-23T12:19:38.141Z","","{""Q01"":""1"",""Q02"":""2"",""Q03"":""3""}","[0,1,2]","[""Q01"",""Q02"",""Q03""]","[3528.5,7781.699999988079,85670.40000000596]","[]","[3528.5,7781.699999988079,85670.40000000596,87305.90000000596]","0.6666666666666666","0","0","stress","","","","","","","","","","","","","","","","","","","","","","","","","","","","","","",""
"4766","","","","instructions","5","176231","0.0-3.0-0.0","217","1","2025-07-23 12:16:38","1f75c3e559b7213887762d5229550c2b","162.251.248.35","Mozilla/5.0 (Windows NT 10.0; Win64; x64) AppleWebKit/537.36 (KHTML, like Gecko) Chrome/134.0.0.0 Safari/537.36","WebKit","Chrome","134.0.0.0","Windows","10.0","https://app.prolific.com/","en-US,en;q=0.9","67eab317b6f969b3df440160","683db9eb0562dbf637994deb","6880d1c60d3d5b0777b60ceb","2","1","67eab317b6f969b3df440160","2","1","","","","","","","","","","","","","[{""page_index"":0,""viewing_time"":4766}]","","","","","","","","","","","","","","","","","","","","","","","","","","","","","",""
"23254","","<p>Before you start with this game please answer the following three questions yourself. </p>
  <p>Through this game, we measure several aspects of your cognitive performance, such as reaction times, multi-tasking capabilities </p>
  <p>and the ability to assess the situation you are in.</p>
  <p></p>
  <p><b>How good do you usually are in such tasks?</b></p>","75","html-slider-response","6","199488","0.0-4.0-0.0","217","1","2025-07-23 12:16:38","1f75c3e559b7213887762d5229550c2b","162.251.248.35","Mozilla/5.0 (Windows NT 10.0; Win64; x64) AppleWebKit/537.36 (KHTML, like Gecko) Chrome/134.0.0.0 Safari/537.36","WebKit","Chrome","134.0.0.0","Windows","10.0","https://app.prolific.com/","en-US,en;q=0.9","67eab317b6f969b3df440160","683db9eb0562dbf637994deb","6880d1c60d3d5b0777b60ceb","2","1","67eab317b6f969b3df440160","2","1","2025-07-23T12:20:06.167Z","","","","","","","","","","","PreSkillQ","","50","","","","","","","","","","","","","","","","","","","","","","","","","","","","",""
"6673","","<div style=""width:500px;"">
  <p>How well do you think you will perform in this task compared to other participants?</p>
  </div>","81","html-slider-response","7","206163","0.0-4.0-1.0","217","1","2025-07-23 12:16:38","1f75c3e559b7213887762d5229550c2b","162.251.248.35","Mozilla/5.0 (Windows NT 10.0; Win64; x64) AppleWebKit/537.36 (KHTML, like Gecko) Chrome/134.0.0.0 Safari/537.36","WebKit","Chrome","134.0.0.0","Windows","10.0","https://app.prolific.com/","en-US,en;q=0.9","67eab317b6f969b3df440160","683db9eb0562dbf637994deb","6880d1c60d3d5b0777b60ceb","2","1","67eab317b6f969b3df440160","2","1","2025-07-23T12:20:12.842Z","","","","","","","","","","","PrePerfQ","","50","","","","","","","","","","","","","","","","","","","","","","","","","","","","",""
"4686","","<div style=""width:500px;"">
  <p>What best describes how you currently feel?</p>
  </div>","84","html-slider-response","8","210852","0.0-4.0-2.0","217","1","2025-07-23 12:16:38","1f75c3e559b7213887762d5229550c2b","162.251.248.35","Mozilla/5.0 (Windows NT 10.0; Win64; x64) AppleWebKit/537.36 (KHTML, like Gecko) Chrome/134.0.0.0 Safari/537.36","WebKit","Chrome","134.0.0.0","Windows","10.0","https://app.prolific.com/","en-US,en;q=0.9","67eab317b6f969b3df440160","683db9eb0562dbf637994deb","6880d1c60d3d5b0777b60ceb","2","1","67eab317b6f969b3df440160","2","1","2025-07-23T12:20:17.531Z","","","","","","","","","","","PreMotivationQ","","50","","","","","","","","","","","","","","","","","","","","","","","","","","","","",""
"","","","","ctl-task-cpt","9","229297","0.0-5.0-0.0","217","1","2025-07-23 12:16:38","1f75c3e559b7213887762d5229550c2b","162.251.248.35","Mozilla/5.0 (Windows NT 10.0; Win64; x64) AppleWebKit/537.36 (KHTML, like Gecko) Chrome/134.0.0.0 Safari/537.36","WebKit","Chrome","134.0.0.0","Windows","10.0","https://app.prolific.com/","en-US,en;q=0.9","67eab317b6f969b3df440160","683db9eb0562dbf637994deb","6880d1c60d3d5b0777b60ceb","2","1","67eab317b6f969b3df440160","2","1","2025-07-23T12:20:35.977Z","","","","","","","","","","","","","","win-only","3","g1:SW,g2:NE","1","1","0","220598","5304.1","10307.2","15434.6","1","4","8","6","2","-8","-8","0","0","0","4358.4","3000","-2250","[""up"",""right""]","{""num_key_presses"":0,""num_perfect"":0,""num_errors"":0,""num_randdir"":0,""num_randdir_good_moves"":0,""num_whilered"":0,""num_whileblue"":0,""num_blue"":0,""num_good_moves"":0}","[407.57142857142856,414.6808016640799,0.2,407.57142857142856,414.6808016640799,105.6,407.57142857142856,414.6808016640799,206.5,407.57142857142856,414.6808016640799,310.4,407.57142857142856,414.6808016640799,412.5,407.57142857142856,414.6808016640799,519.3,407.57142857142856,414.6808016640799,621.7,407.57142857142856,414.6808016640799,721.7,407.57142857142856,414.6808016640799,826.6,407.57142857142856,414.6808016640799,935.1,407.57142857142856,414.6808016640799,1038.3,407.57142857142856,414.6808016640799,1138.6,407.57142857142856,414.6808016640799,1248.3,407.57142857142856,414.6808016640799,1353.6,407.57142857142856,414.6808016640799,1462.7,407.57142857142856,414.6808016640799,1568.8,407.57142857142856,414.6808016640799,1675.8,407.57142857142856,414.6808016640799,1780.5,407.57142857142856,414.6808016640799,1883.2,407.57142857142856,414.6808016640799,1986.3,407.57142857142856,414.6808016640799,2087.9,407.57142857142856,414.6808016640799,2191.7,407.57142857142856,414.6808016640799,2299.3,407.57142857142856,414.6808016640799,2402.7,407.57142857142856,419.1808016640799,2503.3,407.57142857142856,422.1808016640799,2603.8,407.57142857142856,422.1808016640799,2704,407.57142857142856,422.1808016640799,2804.1,407.57142857142856,422.1808016640799,2907.1,407.57142857142856,422.1808016640799,3014.4,407.57142857142856,422.1808016640799,3120.7,407.57142857142856,422.1808016640799,3224.7,406.07142857142856,425.1808016640799,3331.8,403.07142857142856,440.1808016640799,3432.1,446.57142857142856,392.1808016640799,3532.2,556.0714285714286,279.6808016640799,3638.4,608.5714285714286,233.18080166407992,3742.5,608.5714285714286,233.18080166407992,3847.8,608.5714285714286,233.18080166407992,3949.2,607.0714285714286,239.18080166407992,4049.5,656.5714285714286,188.18080166407992,4153.9,755.5714285714286,102.68080166407994,4256.9,760.0714285714286,93.68080166407994,4357.8,760.0714285714286,93.68080166407994,4459.3,757.0714285714286,104.18080166407994,4570.6,743.5714285714286,125.18080166407994,4680.5,734.5714285714286,143.18080166407992,4783.9,728.5714285714286,152.18080166407992,4883.9,722.5714285714286,161.18080166407992,4986.6]","[]","",""
"7859","","<div style=""width:500px;"">
  <p>What determined the result of this run?</p>
  </div>","21","html-slider-response","10","237161","0.0-5.0-1.0","217","1","2025-07-23 12:16:38","1f75c3e559b7213887762d5229550c2b","162.251.248.35","Mozilla/5.0 (Windows NT 10.0; Win64; x64) AppleWebKit/537.36 (KHTML, like Gecko) Chrome/134.0.0.0 Safari/537.36","WebKit","Chrome","134.0.0.0","Windows","10.0","https://app.prolific.com/","en-US,en;q=0.9","67eab317b6f969b3df440160","683db9eb0562dbf637994deb","6880d1c60d3d5b0777b60ceb","2","1","67eab317b6f969b3df440160","2","1","2025-07-23T12:20:43.840Z","","","","","","","","","","","AttribQ","","50","","","","","","","","","","","","","","","","","","","","","","","","","","","","",""
"4221","","<div style=""width:500px;"">
  <p>How much control did you have over the ball?</p>
  </div>","23","html-slider-response","11","241385","0.0-5.0-2.0","217","1","2025-07-23 12:16:38","1f75c3e559b7213887762d5229550c2b","162.251.248.35","Mozilla/5.0 (Windows NT 10.0; Win64; x64) AppleWebKit/537.36 (KHTML, like Gecko) Chrome/134.0.0.0 Safari/537.36","WebKit","Chrome","134.0.0.0","Windows","10.0","https://app.prolific.com/","en-US,en;q=0.9","67eab317b6f969b3df440160","683db9eb0562dbf637994deb","6880d1c60d3d5b0777b60ceb","2","1","67eab317b6f969b3df440160","2","1","2025-07-23T12:20:48.064Z","","","","","","","","","","","ControlQ","","50","","","","","","","","","","","","","","","","","","","","","","","","","","","","",""
"4495","","<div style=""width:500px;"">
  <p>How would you describe your current emotional state?</p>
  </div>","59","html-slider-response","12","245882","0.0-5.0-3.0","217","1","2025-07-23 12:16:38","1f75c3e559b7213887762d5229550c2b","162.251.248.35","Mozilla/5.0 (Windows NT 10.0; Win64; x64) AppleWebKit/537.36 (KHTML, like Gecko) Chrome/134.0.0.0 Safari/537.36","WebKit","Chrome","134.0.0.0","Windows","10.0","https://app.prolific.com/","en-US,en;q=0.9","67eab317b6f969b3df440160","683db9eb0562dbf637994deb","6880d1c60d3d5b0777b60ceb","2","1","67eab317b6f969b3df440160","2","1","2025-07-23T12:20:52.562Z","","","","","","","","","","","StressQ","","50","","","","","","","","","","","","","","","","","","","","","","","","","","","","",""
"15338","","<div style=""width:500px;"">
  <p>What best describes how you currently feel?</p>
  </div>","55","html-slider-response","13","261223","0.0-5.0-4.0","217","1","2025-07-23 12:16:38","1f75c3e559b7213887762d5229550c2b","162.251.248.35","Mozilla/5.0 (Windows NT 10.0; Win64; x64) AppleWebKit/537.36 (KHTML, like Gecko) Chrome/134.0.0.0 Safari/537.36","WebKit","Chrome","134.0.0.0","Windows","10.0","https://app.prolific.com/","en-US,en;q=0.9","67eab317b6f969b3df440160","683db9eb0562dbf637994deb","6880d1c60d3d5b0777b60ceb","2","1","67eab317b6f969b3df440160","2","1","2025-07-23T12:21:07.902Z","","","","","","","","","","","MotivationQ","","50","","","","","","","","","","","","","","","","","","","","","","","","","","","","",""
"","","","","ctl-task-cpt","14","279390","0.0-5.0-0.1","217","1","2025-07-23 12:16:38","1f75c3e559b7213887762d5229550c2b","162.251.248.35","Mozilla/5.0 (Windows NT 10.0; Win64; x64) AppleWebKit/537.36 (KHTML, like Gecko) Chrome/134.0.0.0 Safari/537.36","WebKit","Chrome","134.0.0.0","Windows","10.0","https://app.prolific.com/","en-US,en;q=0.9","67eab317b6f969b3df440160","683db9eb0562dbf637994deb","6880d1c60d3d5b0777b60ceb","2","1","67eab317b6f969b3df440160","2","1","2025-07-23T12:21:26.070Z","","","","","","","","","","","","","","win-only","1","g1:NE,g2:SW","0.9","2","0","270967.5","4796.2","9799.9","15157.8","1","4","4","6","2","-4","-4","0","0","0","1344.5","3000","-2105","[""down"",""left""]","{""num_key_presses"":0,""num_perfect"":0,""num_errors"":0,""num_randdir"":0,""num_randdir_good_moves"":0,""num_whilered"":0,""num_whileblue"":0,""num_blue"":0,""num_good_moves"":0}","[421.07142857142856,407.1808016640799,0.8,421.07142857142856,407.1808016640799,103.3,419.57142857142856,407.1808016640799,207.9,419.57142857142856,407.1808016640799,314.4,419.57142857142856,407.1808016640799,416.4,419.57142857142856,410.1808016640799,524.9,368.57142857142856,488.1808016640799,627.2,278.57142857142856,594.6808016640799,732.8,194.57142857142856,662.1808016640799,839.6,134.57142857142856,719.1808016640799,941.9,113.57142857142857,743.1808016640799,1042.1,88.07142857142857,779.1808016640799,1147.5,80.57142857142857,788.1808016640799,1249.9,77.57142857142857,788.1808016640799,1354.9,73.07142857142857,785.1808016640799,1455.1,73.07142857142857,785.1808016640799,1555.4,73.07142857142857,785.1808016640799,1659.7,73.07142857142857,785.1808016640799,1764.1,73.07142857142857,785.1808016640799,1866.6,73.07142857142857,785.1808016640799,1980.3,73.07142857142857,785.1808016640799,2085.9,73.07142857142857,785.1808016640799,2186,73.07142857142857,785.1808016640799,2286.6,73.07142857142857,785.1808016640799,2392,73.07142857142857,785.1808016640799,2492.3,73.07142857142857,785.1808016640799,2595.3,73.07142857142857,783.6808016640799,2701.4,73.07142857142857,782.1808016640799,2802.4,74.57142857142857,782.1808016640799,2908.2,76.07142857142857,782.1808016640799,3011.6,76.07142857142857,779.1808016640799,3112.8,77.57142857142857,776.1808016640799,3215.3,82.07142857142857,770.1808016640799,3315.3,82.07142857142857,770.1808016640799,3421.1,86.57142857142857,765.6808016640799,3524.6,89.57142857142857,761.1808016640799,3624.9,92.57142857142857,758.1808016640799,3725.3,92.57142857142857,758.1808016640799,3826.1,95.57142857142857,755.1808016640799,3928.9,100.07142857142857,749.1808016640799,4030.6,127.07142857142857,717.6808016640799,4137.4,226.07142857142856,635.1808016640799,4239.6,287.57142857142856,587.1808016640799,4344.3,332.57142857142856,549.6808016640799,4444.9,350.57142857142856,531.6808016640799,4551.1,383.57142857142856,494.1808016640799,4656.6,433.07142857142856,446.1808016640799,4760,464.57142857142856,425.1808016640799,4861.6,472.07142857142856,413.1808016640799,4971.8]","[]","",""
"3240","","<div style=""width:500px;"">
  <p>What determined the result of this run?</p>
  </div>","32","html-slider-response","15","282634","0.0-5.0-1.1","217","1","2025-07-23 12:16:38","1f75c3e559b7213887762d5229550c2b","162.251.248.35","Mozilla/5.0 (Windows NT 10.0; Win64; x64) AppleWebKit/537.36 (KHTML, like Gecko) Chrome/134.0.0.0 Safari/537.36","WebKit","Chrome","134.0.0.0","Windows","10.0","https://app.prolific.com/","en-US,en;q=0.9","67eab317b6f969b3df440160","683db9eb0562dbf637994deb","6880d1c60d3d5b0777b60ceb","2","1","67eab317b6f969b3df440160","2","1","2025-07-23T12:21:29.313Z","","","","","","","","","","","AttribQ","","50","","","","","","","","","","","","","","","","","","","","","","","","","","","","",""
"2624","","<div style=""width:500px;"">
  <p>How much control did you have over the ball?</p>
  </div>","29","html-slider-response","16","285259","0.0-5.0-2.1","217","1","2025-07-23 12:16:38","1f75c3e559b7213887762d5229550c2b","162.251.248.35","Mozilla/5.0 (Windows NT 10.0; Win64; x64) AppleWebKit/537.36 (KHTML, like Gecko) Chrome/134.0.0.0 Safari/537.36","WebKit","Chrome","134.0.0.0","Windows","10.0","https://app.prolific.com/","en-US,en;q=0.9","67eab317b6f969b3df440160","683db9eb0562dbf637994deb","6880d1c60d3d5b0777b60ceb","2","1","67eab317b6f969b3df440160","2","1","2025-07-23T12:21:31.939Z","","","","","","","","","","","ControlQ","","50","","","","","","","","","","","","","","","","","","","","","","","","","","","","",""
"6560","","<div style=""width:500px;"">
  <p>How would you describe your current emotional state?</p>
  </div>","60","html-slider-response","17","291821","0.0-5.0-3.1","217","1","2025-07-23 12:16:38","1f75c3e559b7213887762d5229550c2b","162.251.248.35","Mozilla/5.0 (Windows NT 10.0; Win64; x64) AppleWebKit/537.36 (KHTML, like Gecko) Chrome/134.0.0.0 Safari/537.36","WebKit","Chrome","134.0.0.0","Windows","10.0","https://app.prolific.com/","en-US,en;q=0.9","67eab317b6f969b3df440160","683db9eb0562dbf637994deb","6880d1c60d3d5b0777b60ceb","2","1","67eab317b6f969b3df440160","2","1","2025-07-23T12:21:38.500Z","","","","","","","","","","","StressQ","","50","","","","","","","","","","","","","","","","","","","","","","","","","","","","",""
"4138","","<div style=""width:500px;"">
  <p>What best describes how you currently feel?</p>
  </div>","53","html-slider-response","18","295962","0.0-5.0-4.1","217","1","2025-07-23 12:16:38","1f75c3e559b7213887762d5229550c2b","162.251.248.35","Mozilla/5.0 (Windows NT 10.0; Win64; x64) AppleWebKit/537.36 (KHTML, like Gecko) Chrome/134.0.0.0 Safari/537.36","WebKit","Chrome","134.0.0.0","Windows","10.0","https://app.prolific.com/","en-US,en;q=0.9","67eab317b6f969b3df440160","683db9eb0562dbf637994deb","6880d1c60d3d5b0777b60ceb","2","1","67eab317b6f969b3df440160","2","1","2025-07-23T12:21:42.641Z","","","","","","","","","","","MotivationQ","","50","","","","","","","","","","","","","","","","","","","","","","","","","","","","",""
"","","","","ctl-task-cpt","19","311449","0.0-5.0-0.2","217","1","2025-07-23 12:16:38","1f75c3e559b7213887762d5229550c2b","162.251.248.35","Mozilla/5.0 (Windows NT 10.0; Win64; x64) AppleWebKit/537.36 (KHTML, like Gecko) Chrome/134.0.0.0 Safari/537.36","WebKit","Chrome","134.0.0.0","Windows","10.0","https://app.prolific.com/","en-US,en;q=0.9","67eab317b6f969b3df440160","683db9eb0562dbf637994deb","6880d1c60d3d5b0777b60ceb","2","1","67eab317b6f969b3df440160","2","1","2025-07-23T12:21:58.128Z","","","","","","","","","","","","","","win-only","1","g1:NE,g2:SW","0.8","3","0","305707.6","1958.1","6964.9","12474.5","1","4","8","6","1","-1","-1","0","0","0","2432.8","3000","-2150","[""up"",""right""]","{""num_key_presses"":0,""num_perfect"":0,""num_errors"":0,""num_randdir"":0,""num_randdir_good_moves"":0,""num_whilered"":0,""num_whileblue"":0,""num_blue"":0,""num_good_moves"":0}","[416.57142857142856,408.6808016640799,0.5,416.57142857142856,410.1808016640799,101.1,416.57142857142856,408.6808016640799,209.6,416.57142857142856,408.6808016640799,315.4,416.57142857142856,408.6808016640799,415.7,416.57142857142856,408.6808016640799,516.9,416.57142857142856,408.6808016640799,621.9,415.07142857142856,410.1808016640799,727,415.07142857142856,416.1808016640799,828.1,415.07142857142856,423.6808016640799,933.6,407.57142857142856,446.1808016640799,1035.3,400.07142857142856,470.1808016640799,1143.3,394.07142857142856,492.6808016640799,1243.4,391.07142857142856,506.1808016640799,1349.7,391.07142857142856,506.1808016640799,1454.4,391.07142857142856,506.1808016640799,1559.9,391.07142857142856,506.1808016640799,1668.4,398.57142857142856,500.1808016640799,1771.2,443.57142857142856,431.1808016640799,1874.1,572.5714285714286,234.68080166407992,1974.6,631.0714285714286,146.18080166407992,2081.9,640.0714285714286,141.68080166407992,2185.8,677.5714285714286,107.18080166407994,2292.1,730.0714285714286,81.68080166407994,2397.3,740.5714285714286,80.18080166407994,2508.9,740.5714285714286,83.18080166407994,2616.3,739.0714285714286,86.18080166407994,2724.1,739.0714285714286,92.18080166407994,2824.2,739.0714285714286,92.18080166407994,2924.6,739.0714285714286,93.68080166407994,3031.9,739.0714285714286,96.68080166407994,3140,739.0714285714286,99.68080166407994,3241.3,739.0714285714286,101.18080166407994,3345.4,739.0714285714286,107.18080166407994,3452.1,737.5714285714286,110.18080166407994,3557.2,734.5714285714286,119.18080166407994,3662.6,734.5714285714286,125.18080166407994,3767.4,734.5714285714286,128.18080166407992,3873,728.5714285714286,146.18080166407992,3974.4,707.5714285714286,192.68080166407992,4079.9,676.0714285714286,264.6808016640799,4180.7,635.5714285714286,306.6808016640799,4286.5,577.0714285714286,329.1808016640799,4390.6,533.5714285714286,336.6808016640799,4495.2,499.07142857142856,350.1808016640799,4602.9,496.07142857142856,353.1808016640799,4705.7,496.07142857142856,353.1808016640799,4814.1,496.07142857142856,353.1808016640799,4920]","[]","",""
"7513","","<div style=""width:500px;"">
  <p>What determined the result of this run?</p>
  </div>","27","html-slider-response","20","318965","0.0-5.0-1.2","217","1","2025-07-23 12:16:38","1f75c3e559b7213887762d5229550c2b","162.251.248.35","Mozilla/5.0 (Windows NT 10.0; Win64; x64) AppleWebKit/537.36 (KHTML, like Gecko) Chrome/134.0.0.0 Safari/537.36","WebKit","Chrome","134.0.0.0","Windows","10.0","https://app.prolific.com/","en-US,en;q=0.9","67eab317b6f969b3df440160","683db9eb0562dbf637994deb","6880d1c60d3d5b0777b60ceb","2","1","67eab317b6f969b3df440160","2","1","2025-07-23T12:22:05.644Z","","","","","","","","","","","AttribQ","","50","","","","","","","","","","","","","","","","","","","","","","","","","","","","",""
"3552","","<div style=""width:500px;"">
  <p>How much control did you have over the ball?</p>
  </div>","25","html-slider-response","21","322519","0.0-5.0-2.2","217","1","2025-07-23 12:16:38","1f75c3e559b7213887762d5229550c2b","162.251.248.35","Mozilla/5.0 (Windows NT 10.0; Win64; x64) AppleWebKit/537.36 (KHTML, like Gecko) Chrome/134.0.0.0 Safari/537.36","WebKit","Chrome","134.0.0.0","Windows","10.0","https://app.prolific.com/","en-US,en;q=0.9","67eab317b6f969b3df440160","683db9eb0562dbf637994deb","6880d1c60d3d5b0777b60ceb","2","1","67eab317b6f969b3df440160","2","1","2025-07-23T12:22:09.198Z","","","","","","","","","","","ControlQ","","50","","","","","","","","","","","","","","","","","","","","","","","","","","","","",""
"2683","","<div style=""width:500px;"">
  <p>How would you describe your current emotional state?</p>
  </div>","66","html-slider-response","22","325204","0.0-5.0-3.2","217","1","2025-07-23 12:16:38","1f75c3e559b7213887762d5229550c2b","162.251.248.35","Mozilla/5.0 (Windows NT 10.0; Win64; x64) AppleWebKit/537.36 (KHTML, like Gecko) Chrome/134.0.0.0 Safari/537.36","WebKit","Chrome","134.0.0.0","Windows","10.0","https://app.prolific.com/","en-US,en;q=0.9","67eab317b6f969b3df440160","683db9eb0562dbf637994deb","6880d1c60d3d5b0777b60ceb","2","1","67eab317b6f969b3df440160","2","1","2025-07-23T12:22:11.884Z","","","","","","","","","","","StressQ","","50","","","","","","","","","","","","","","","","","","","","","","","","","","","","",""
"4947","","<div style=""width:500px;"">
  <p>What best describes how you currently feel?</p>
  </div>","54","html-slider-response","23","330155","0.0-5.0-4.2","217","1","2025-07-23 12:16:38","1f75c3e559b7213887762d5229550c2b","162.251.248.35","Mozilla/5.0 (Windows NT 10.0; Win64; x64) AppleWebKit/537.36 (KHTML, like Gecko) Chrome/134.0.0.0 Safari/537.36","WebKit","Chrome","134.0.0.0","Windows","10.0","https://app.prolific.com/","en-US,en;q=0.9","67eab317b6f969b3df440160","683db9eb0562dbf637994deb","6880d1c60d3d5b0777b60ceb","2","1","67eab317b6f969b3df440160","2","1","2025-07-23T12:22:16.834Z","","","","","","","","","","","MotivationQ","","50","","","","","","","","","","","","","","","","","","","","","","","","","","","","",""
"","","","","ctl-task-cpt","24","344877","0.0-5.0-0.3","217","1","2025-07-23 12:16:38","1f75c3e559b7213887762d5229550c2b","162.251.248.35","Mozilla/5.0 (Windows NT 10.0; Win64; x64) AppleWebKit/537.36 (KHTML, like Gecko) Chrome/134.0.0.0 Safari/537.36","WebKit","Chrome","134.0.0.0","Windows","10.0","https://app.prolific.com/","en-US,en;q=0.9","67eab317b6f969b3df440160","683db9eb0562dbf637994deb","6880d1c60d3d5b0777b60ceb","2","1","67eab317b6f969b3df440160","2","1","2025-07-23T12:22:31.556Z","","","","","","","","","","","","","","win-only","2","g1:SE,g2:NW","0.7","4","0","339901.8","1682.4","6686.9","11703.5","1","4","4","6","2","-4","-4","0","0","0","2013.9","3000","-2335","[""left"",""up""]","{""num_key_presses"":0,""num_perfect"":0,""num_errors"":0,""num_randdir"":0,""num_randdir_good_moves"":0,""num_whilered"":0,""num_whileblue"":0,""num_blue"":0,""num_good_moves"":0}","[413.57142857142856,414.6808016640799,0.2,413.57142857142856,414.6808016640799,105.7,413.57142857142856,414.6808016640799,210.2,413.57142857142856,414.6808016640799,312.1,413.57142857142856,414.6808016640799,414.6,413.57142857142856,414.6808016640799,515.9,413.57142857142856,414.6808016640799,623.2,413.57142857142856,414.6808016640799,730.9,413.57142857142856,414.6808016640799,835.3,452.57142857142856,456.6808016640799,942,481.07142857142856,485.1808016640799,1046.3,478.07142857142856,477.6808016640799,1153.8,380.57142857142856,362.1808016640799,1259.6,283.07142857142856,245.18080166407992,1363.8,202.07142857142856,164.18080166407992,1463.9,143.57142857142856,119.18080166407994,1566.5,107.57142857142857,90.68080166407994,1671.4,95.57142857142857,80.18080166407994,1773.9,95.57142857142857,80.18080166407994,1875.2,106.07142857142857,86.18080166407994,1980,106.07142857142857,86.18080166407994,2081,106.07142857142857,86.18080166407994,2184.5,109.07142857142857,92.18080166407994,2286.2,172.07142857142856,191.18080166407992,2388.8,266.57142857142856,311.1808016640799,2489.1,302.57142857142856,359.1808016640799,2594.5,302.57142857142856,372.6808016640799,2704.6,302.57142857142856,383.1808016640799,2811.8,302.57142857142856,383.1808016640799,2916.9,302.57142857142856,383.1808016640799,3021.2,302.57142857142856,383.1808016640799,3123.6,302.57142857142856,383.1808016640799,3224,302.57142857142856,383.1808016640799,3330.8,302.57142857142856,383.1808016640799,3435.3,302.57142857142856,383.1808016640799,3536.9,302.57142857142856,383.1808016640799,3638.7,302.57142857142856,383.1808016640799,3744.7,302.57142857142856,383.1808016640799,3852.9,302.57142857142856,383.1808016640799,3953.4,305.57142857142856,387.6808016640799,4058.4,310.07142857142856,410.1808016640799,4158.5,313.07142857142856,452.1808016640799,4261.7,317.57142857142856,480.6808016640799,4367.8,320.57142857142856,492.6808016640799,4469,317.57142857142856,519.6808016640799,4569.5,326.57142857142856,554.1808016640799,4674.1,329.57142857142856,560.1808016640799,4782.1,331.07142857142856,561.6808016640799,4885.8,335.57142857142856,573.6808016640799,4994.6]","[]","",""
"14954","","<div style=""width:500px;"">
  <p>What determined the result of this run?</p>
  </div>","29","html-slider-response","25","359832","0.0-5.0-1.3","217","1","2025-07-23 12:16:38","1f75c3e559b7213887762d5229550c2b","162.251.248.35","Mozilla/5.0 (Windows NT 10.0; Win64; x64) AppleWebKit/537.36 (KHTML, like Gecko) Chrome/134.0.0.0 Safari/537.36","WebKit","Chrome","134.0.0.0","Windows","10.0","https://app.prolific.com/","en-US,en;q=0.9","67eab317b6f969b3df440160","683db9eb0562dbf637994deb","6880d1c60d3d5b0777b60ceb","2","1","67eab317b6f969b3df440160","2","1","2025-07-23T12:22:46.511Z","","","","","","","","","","","AttribQ","","50","","","","","","","","","","","","","","","","","","","","","","","","","","","","",""
"5345","","<div style=""width:500px;"">
  <p>How much control did you have over the ball?</p>
  </div>","31","html-slider-response","26","365179","0.0-5.0-2.3","217","1","2025-07-23 12:16:38","1f75c3e559b7213887762d5229550c2b","162.251.248.35","Mozilla/5.0 (Windows NT 10.0; Win64; x64) AppleWebKit/537.36 (KHTML, like Gecko) Chrome/134.0.0.0 Safari/537.36","WebKit","Chrome","134.0.0.0","Windows","10.0","https://app.prolific.com/","en-US,en;q=0.9","67eab317b6f969b3df440160","683db9eb0562dbf637994deb","6880d1c60d3d5b0777b60ceb","2","1","67eab317b6f969b3df440160","2","1","2025-07-23T12:22:51.858Z","","","","","","","","","","","ControlQ","","50","","","","","","","","","","","","","","","","","","","","","","","","","","","","",""
"3409","","<div style=""width:500px;"">
  <p>How would you describe your current emotional state?</p>
  </div>","55","html-slider-response","27","368592","0.0-5.0-3.3","217","1","2025-07-23 12:16:38","1f75c3e559b7213887762d5229550c2b","162.251.248.35","Mozilla/5.0 (Windows NT 10.0; Win64; x64) AppleWebKit/537.36 (KHTML, like Gecko) Chrome/134.0.0.0 Safari/537.36","WebKit","Chrome","134.0.0.0","Windows","10.0","https://app.prolific.com/","en-US,en;q=0.9","67eab317b6f969b3df440160","683db9eb0562dbf637994deb","6880d1c60d3d5b0777b60ceb","2","1","67eab317b6f969b3df440160","2","1","2025-07-23T12:22:55.271Z","","","","","","","","","","","StressQ","","50","","","","","","","","","","","","","","","","","","","","","","","","","","","","",""
"2660","","<div style=""width:500px;"">
  <p>What best describes how you currently feel?</p>
  </div>","54","html-slider-response","28","371255","0.0-5.0-4.3","217","1","2025-07-23 12:16:38","1f75c3e559b7213887762d5229550c2b","162.251.248.35","Mozilla/5.0 (Windows NT 10.0; Win64; x64) AppleWebKit/537.36 (KHTML, like Gecko) Chrome/134.0.0.0 Safari/537.36","WebKit","Chrome","134.0.0.0","Windows","10.0","https://app.prolific.com/","en-US,en;q=0.9","67eab317b6f969b3df440160","683db9eb0562dbf637994deb","6880d1c60d3d5b0777b60ceb","2","1","67eab317b6f969b3df440160","2","1","2025-07-23T12:22:57.934Z","","","","","","","","","","","MotivationQ","","50","","","","","","","","","","","","","","","","","","","","","","","","","","","","",""
"","","","","ctl-task-cpt","29","433596","0.0-5.0-0.4","217","1","2025-07-23 12:16:38","1f75c3e559b7213887762d5229550c2b","162.251.248.35","Mozilla/5.0 (Windows NT 10.0; Win64; x64) AppleWebKit/537.36 (KHTML, like Gecko) Chrome/134.0.0.0 Safari/537.36","WebKit","Chrome","134.0.0.0","Windows","10.0","https://app.prolific.com/","en-US,en;q=0.9","67eab317b6f969b3df440160","683db9eb0562dbf637994deb","6880d1c60d3d5b0777b60ceb","2","1","67eab317b6f969b3df440160","2","1","2025-07-23T12:24:00.275Z","","","","","","","","","","","","","","win-only","3","g1:SW,g2:NE","0.6","5","0","381001","1361.2","6374.5","59331.2","1","4","8","6","1","-1","-9","0","0","0","2114.6","3000","-2290","[""down"",""left""]","{""num_key_presses"":27,""num_perfect"":5,""num_errors"":8,""num_randdir"":4,""num_randdir_good_moves"":1,""num_whilered"":10,""num_whileblue"":1,""num_blue"":5,""num_good_moves"":6}","[422.57142857142856,413.1808016640799,0.3,422.57142857142856,413.1808016640799,104.4,422.57142857142856,413.1808016640799,205.6,422.57142857142856,413.1808016640799,312.6,422.57142857142856,413.1808016640799,418.8,422.57142857142856,413.1808016640799,522.3,419.57142857142856,423.6808016640799,629.6,413.57142857142856,437.1808016640799,741.1,410.57142857142856,458.1808016640799,848.3,404.57142857142856,470.1808016640799,950.5,403.07142857142856,471.6808016640799,1057,392.57142857142856,491.1808016640799,1157.6,389.57142857142856,494.1808016640799,1261.4,389.57142857142856,494.1808016640799,1363.5,359.57142857142856,530.1808016640799,1467.4,263.57142857142856,656.1808016640799,1569.8,221.57142857142856,719.1808016640799,1675.2,169.07142857142856,747.6808016640799,1781.1,149.57142857142856,755.1808016640799,1881.2,125.57142857142857,762.6808016640799,1986.4,116.57142857142857,764.1808016640799,2089.2,116.57142857142857,764.1808016640799,2189.5,116.57142857142857,764.1808016640799,2294.6,116.57142857142857,764.1808016640799,2404.4,116.57142857142857,764.1808016640799,2506.2,116.57142857142857,764.1808016640799,2612.7,116.57142857142857,764.1808016640799,2718.1,116.57142857142857,764.1808016640799,2821.1,116.57142857142857,764.1808016640799,2922,116.57142857142857,764.1808016640799,3031.1,116.57142857142857,764.1808016640799,3139.3,116.57142857142857,764.1808016640799,3239.7,116.57142857142857,764.1808016640799,3340.5,116.57142857142857,764.1808016640799,3442.8,116.57142857142857,764.1808016640799,3551.3,116.57142857142857,764.1808016640799,3655.4,116.57142857142857,764.1808016640799,3760.8,116.57142857142857,764.1808016640799,3867,116.57142857142857,764.1808016640799,3976.3,116.57142857142857,764.1808016640799,4076.7,116.57142857142857,764.1808016640799,4182.1,116.57142857142857,764.1808016640799,4284.4,116.57142857142857,764.1808016640799,4384.5,116.57142857142857,764.1808016640799,4486.5,116.57142857142857,764.1808016640799,4587.1,116.57142857142857,764.1808016640799,4692.6,116.57142857142857,764.1808016640799,4800.3,116.57142857142857,764.1808016640799,4909.2]","[344.6,344.6,1000,0,-655.4,""error"",""-"",""-"",""no_move"",461.5,116.6,1000,0,-538.5,""while_red"",""-"",""-"",""no_move"",629,284.1,1000,0,-371,""while_red"",""-"",""-"",""no_move"",1676.1,1331.3,2294.4,1348.8,-1967,""error"",""-"",""-"",""no_move"",1804.1,127.8,2294.4,1348.8,-1839.1,""while_red"",""-"",""-"",""no_move"",9067.6,7391.3,2862.6,5797.1,407.9,""oops"",""down"",""right"",""bad_move"",9218.3,149.6,2258.1,9068.7,-2108.5,""error"",""-"",""-"",""no_move"",9371.6,153.2,2258.1,9068.7,-1955.2,""while_red"",""-"",""-"",""no_move"",9806.3,587.9,2258.1,9068.7,-1520.5,""while_red"",""-"",""-"",""no_move"",9965.5,747.1,2258.1,9068.7,-1361.3,""while_red"",""-"",""-"",""no_move"",10126.7,908.3,2258.1,9068.7,-1200.1,""while_red"",""-"",""-"",""no_move"",10298.3,1079.9,2486.2,10225.4,-2413.2,""error"",""-"",""-"",""no_move"",10585.9,287.3,2486.2,10225.4,-2125.7,""while_red"",""-"",""-"",""no_move"",11012.4,713.8,2486.2,10225.4,-1699.2,""while_red"",""-"",""-"",""no_move"",11151,852.4,2486.2,10225.4,-1560.6,""while_red"",""-"",""-"",""no_move"",11329.2,1030.6,1656.8,11299.2,-1626.8,""error"",""-"",""-"",""no_move"",15681.8,4352.3,2950.7,12337.9,393.2,""smooth"",""left"",""left"",""good_move"",18508.9,2826.5,2393.5,15682.4,433,""oops"",""down"",""up"",""bad_move"",21146.2,2636.6,1805.8,18509.6,830.8,""smooth"",""down"",""down"",""good_move"",24595.2,3448.4,3104.5,21146.8,343.9,""oops"",""down"",""left"",""good_move"",24760,164.3,2603.3,24595.7,-2439,""error"",""-"",""-"",""no_move"",27887,3126.7,1898.5,25762.3,226.2,""while_blue"",""down"",""up"",""bad_move"",31124.5,3237.2,2857.8,27887.4,379.3,""oops"",""down"",""up"",""bad_move"",34231.1,3106.1,2755.3,31125,350.8,""smooth"",""down"",""down"",""good_move"",39979.7,5748.3,2395,37242.4,342.3,""smooth"",""down"",""down"",""good_move"",46610.7,6630.6,2316.5,46360.6,-2066.4,""error"",""-"",""-"",""no_move"",50499.3,3888.3,2595.8,47619.4,284.1,""smooth"",""left"",""left"",""good_move""]","",""
"4461","","<div style=""width:500px;"">
  <p>What determined the result of this run?</p>
  </div>","28","html-slider-response","30","438059","0.0-5.0-1.4","217","1","2025-07-23 12:16:38","1f75c3e559b7213887762d5229550c2b","162.251.248.35","Mozilla/5.0 (Windows NT 10.0; Win64; x64) AppleWebKit/537.36 (KHTML, like Gecko) Chrome/134.0.0.0 Safari/537.36","WebKit","Chrome","134.0.0.0","Windows","10.0","https://app.prolific.com/","en-US,en;q=0.9","67eab317b6f969b3df440160","683db9eb0562dbf637994deb","6880d1c60d3d5b0777b60ceb","2","1","67eab317b6f969b3df440160","2","1","2025-07-23T12:24:04.738Z","","","","","","","","","","","AttribQ","","50","","","","","","","","","","","","","","","","","","","","","","","","","","","","",""
"2637","","<div style=""width:500px;"">
  <p>How much control did you have over the ball?</p>
  </div>","55","html-slider-response","31","440699","0.0-5.0-2.4","217","1","2025-07-23 12:16:38","1f75c3e559b7213887762d5229550c2b","162.251.248.35","Mozilla/5.0 (Windows NT 10.0; Win64; x64) AppleWebKit/537.36 (KHTML, like Gecko) Chrome/134.0.0.0 Safari/537.36","WebKit","Chrome","134.0.0.0","Windows","10.0","https://app.prolific.com/","en-US,en;q=0.9","67eab317b6f969b3df440160","683db9eb0562dbf637994deb","6880d1c60d3d5b0777b60ceb","2","1","67eab317b6f969b3df440160","2","1","2025-07-23T12:24:07.378Z","","","","","","","","","","","ControlQ","","50","","","","","","","","","","","","","","","","","","","","","","","","","","","","",""
"4775","","<div style=""width:500px;"">
  <p>How would you describe your current emotional state?</p>
  </div>","59","html-slider-response","32","445476","0.0-5.0-3.4","217","1","2025-07-23 12:16:38","1f75c3e559b7213887762d5229550c2b","162.251.248.35","Mozilla/5.0 (Windows NT 10.0; Win64; x64) AppleWebKit/537.36 (KHTML, like Gecko) Chrome/134.0.0.0 Safari/537.36","WebKit","Chrome","134.0.0.0","Windows","10.0","https://app.prolific.com/","en-US,en;q=0.9","67eab317b6f969b3df440160","683db9eb0562dbf637994deb","6880d1c60d3d5b0777b60ceb","2","1","67eab317b6f969b3df440160","2","1","2025-07-23T12:24:12.155Z","","","","","","","","","","","StressQ","","50","","","","","","","","","","","","","","","","","","","","","","","","","","","","",""
"4295","","<div style=""width:500px;"">
  <p>What best describes how you currently feel?</p>
  </div>","56","html-slider-response","33","449773","0.0-5.0-4.4","217","1","2025-07-23 12:16:38","1f75c3e559b7213887762d5229550c2b","162.251.248.35","Mozilla/5.0 (Windows NT 10.0; Win64; x64) AppleWebKit/537.36 (KHTML, like Gecko) Chrome/134.0.0.0 Safari/537.36","WebKit","Chrome","134.0.0.0","Windows","10.0","https://app.prolific.com/","en-US,en;q=0.9","67eab317b6f969b3df440160","683db9eb0562dbf637994deb","6880d1c60d3d5b0777b60ceb","2","1","67eab317b6f969b3df440160","2","1","2025-07-23T12:24:16.453Z","","","","","","","","","","","MotivationQ","","50","","","","","","","","","","","","","","","","","","","","","","","","","","","","",""
"","","","","ctl-task-cpt","34","474117","0.0-5.0-0.5","217","1","2025-07-23 12:16:38","1f75c3e559b7213887762d5229550c2b","162.251.248.35","Mozilla/5.0 (Windows NT 10.0; Win64; x64) AppleWebKit/537.36 (KHTML, like Gecko) Chrome/134.0.0.0 Safari/537.36","WebKit","Chrome","134.0.0.0","Windows","10.0","https://app.prolific.com/","en-US,en;q=0.9","67eab317b6f969b3df440160","683db9eb0562dbf637994deb","6880d1c60d3d5b0777b60ceb","2","1","67eab317b6f969b3df440160","2","1","2025-07-23T12:24:40.796Z","","","","","","","","","","","","","","win-only","2","g1:SE,g2:NW","0.5","6","0","459519.4","1594.8","6596.8","21323","1","4","4","6","1","1","1","1","0","0.007575757575757576","1846","3000","1705","[""down"",""right""]","{""num_key_presses"":6,""num_perfect"":3,""num_errors"":0,""num_randdir"":3,""num_randdir_good_moves"":2,""num_whilered"":0,""num_whileblue"":0,""num_blue"":0,""num_good_moves"":5}","[415.07142857142856,410.1808016640799,0.2,415.07142857142856,410.1808016640799,100,415.07142857142856,410.1808016640799,202.4,415.07142857142856,410.1808016640799,306,415.07142857142856,410.1808016640799,415.9,415.07142857142856,410.1808016640799,516.4,415.07142857142856,410.1808016640799,618,415.07142857142856,410.1808016640799,732.5,415.07142857142856,410.1808016640799,832.7,415.07142857142856,410.1808016640799,934.3,415.07142857142856,410.1808016640799,1046.6,428.57142857142856,422.1808016640799,1150.7,461.57142857142856,461.1808016640799,1251.1,571.0714285714286,581.1808016640799,1356.5,638.5714285714286,665.1808016640799,1461.4,686.5714285714286,719.1808016640799,1568.7,727.0714285714286,749.1808016640799,1681.7,728.5714285714286,746.1808016640799,1782.6,728.5714285714286,746.1808016640799,1890.8,728.5714285714286,746.1808016640799,1990.9,728.5714285714286,746.1808016640799,2091.1,727.0714285714286,746.1808016640799,2192.4,719.5714285714286,747.6808016640799,2296.7,719.5714285714286,747.6808016640799,2405.8,719.5714285714286,747.6808016640799,2514.7,719.5714285714286,747.6808016640799,2615.9,719.5714285714286,747.6808016640799,2723.2,719.5714285714286,747.6808016640799,2826.7,719.5714285714286,747.6808016640799,2930.7,719.5714285714286,747.6808016640799,3031.4,719.5714285714286,747.6808016640799,3132.2,719.5714285714286,747.6808016640799,3240.8,719.5714285714286,747.6808016640799,3341.9,719.5714285714286,747.6808016640799,3449.9,719.5714285714286,747.6808016640799,3551.8,719.5714285714286,747.6808016640799,3653.5,719.5714285714286,747.6808016640799,3754.6,719.5714285714286,747.6808016640799,3860.9,719.5714285714286,747.6808016640799,3965.6,719.5714285714286,747.6808016640799,4069.4,719.5714285714286,747.6808016640799,4171.7,719.5714285714286,747.6808016640799,4281.3,719.5714285714286,747.6808016640799,4384.4,719.5714285714286,747.6808016640799,4488.3,719.5714285714286,747.6808016640799,4589.3,719.5714285714286,747.6808016640799,4690.9,719.5714285714286,747.6808016640799,4794.2,719.5714285714286,747.6808016640799,4895.7,719.5714285714286,747.6808016640799,4996.9]","[1406.1,1406.1,1000,0,406.1,""oops"",""right"",""up"",""bad_move"",4585,3178.5,2817.3,1406.6,361.2,""oops"",""right"",""down"",""good_move"",6751.4,2165.8,1841.2,4585.6,324.6,""smooth"",""right"",""right"",""good_move"",8969.8,2217.8,1875.9,6752,341.9,""smooth"",""right"",""right"",""good_move"",12102.4,3132.4,2853.8,8970.1,278.6,""oops"",""down"",""down"",""good_move"",14577.3,2474.6,2200.3,12102.8,274.3,""smooth"",""down"",""down"",""good_move""]","",""
"6413","","<div style=""width:500px;"">
  <p>What determined the result of this run?</p>
  </div>","71","html-slider-response","35","480531","0.0-5.0-1.5","217","1","2025-07-23 12:16:38","1f75c3e559b7213887762d5229550c2b","162.251.248.35","Mozilla/5.0 (Windows NT 10.0; Win64; x64) AppleWebKit/537.36 (KHTML, like Gecko) Chrome/134.0.0.0 Safari/537.36","WebKit","Chrome","134.0.0.0","Windows","10.0","https://app.prolific.com/","en-US,en;q=0.9","67eab317b6f969b3df440160","683db9eb0562dbf637994deb","6880d1c60d3d5b0777b60ceb","2","1","67eab317b6f969b3df440160","2","1","2025-07-23T12:24:47.210Z","","","","","","","","","","","AttribQ","","50","","","","","","","","","","","","","","","","","","","","","","","","","","","","",""
"2803","","<div style=""width:500px;"">
  <p>How much control did you have over the ball?</p>
  </div>","61","html-slider-response","36","483337","0.0-5.0-2.5","217","1","2025-07-23 12:16:38","1f75c3e559b7213887762d5229550c2b","162.251.248.35","Mozilla/5.0 (Windows NT 10.0; Win64; x64) AppleWebKit/537.36 (KHTML, like Gecko) Chrome/134.0.0.0 Safari/537.36","WebKit","Chrome","134.0.0.0","Windows","10.0","https://app.prolific.com/","en-US,en;q=0.9","67eab317b6f969b3df440160","683db9eb0562dbf637994deb","6880d1c60d3d5b0777b60ceb","2","1","67eab317b6f969b3df440160","2","1","2025-07-23T12:24:50.016Z","","","","","","","","","","","ControlQ","","50","","","","","","","","","","","","","","","","","","","","","","","","","","","","",""
"3118","","<div style=""width:500px;"">
  <p>How would you describe your current emotional state?</p>
  </div>","65","html-slider-response","37","486458","0.0-5.0-3.5","217","1","2025-07-23 12:16:38","1f75c3e559b7213887762d5229550c2b","162.251.248.35","Mozilla/5.0 (Windows NT 10.0; Win64; x64) AppleWebKit/537.36 (KHTML, like Gecko) Chrome/134.0.0.0 Safari/537.36","WebKit","Chrome","134.0.0.0","Windows","10.0","https://app.prolific.com/","en-US,en;q=0.9","67eab317b6f969b3df440160","683db9eb0562dbf637994deb","6880d1c60d3d5b0777b60ceb","2","1","67eab317b6f969b3df440160","2","1","2025-07-23T12:24:53.137Z","","","","","","","","","","","StressQ","","50","","","","","","","","","","","","","","","","","","","","","","","","","","","","",""
"3595","","<div style=""width:500px;"">
  <p>What best describes how you currently feel?</p>
  </div>","41","html-slider-response","38","490056","0.0-5.0-4.5","217","1","2025-07-23 12:16:38","1f75c3e559b7213887762d5229550c2b","162.251.248.35","Mozilla/5.0 (Windows NT 10.0; Win64; x64) AppleWebKit/537.36 (KHTML, like Gecko) Chrome/134.0.0.0 Safari/537.36","WebKit","Chrome","134.0.0.0","Windows","10.0","https://app.prolific.com/","en-US,en;q=0.9","67eab317b6f969b3df440160","683db9eb0562dbf637994deb","6880d1c60d3d5b0777b60ceb","2","1","67eab317b6f969b3df440160","2","1","2025-07-23T12:24:56.736Z","","","","","","","","","","","MotivationQ","","50","","","","","","","","","","","","","","","","","","","","","","","","","","","","",""
"","","","","ctl-task-cpt","39","529779","0.0-5.0-0.6","217","1","2025-07-23 12:16:38","1f75c3e559b7213887762d5229550c2b","162.251.248.35","Mozilla/5.0 (Windows NT 10.0; Win64; x64) AppleWebKit/537.36 (KHTML, like Gecko) Chrome/134.0.0.0 Safari/537.36","WebKit","Chrome","134.0.0.0","Windows","10.0","https://app.prolific.com/","en-US,en;q=0.9","67eab317b6f969b3df440160","683db9eb0562dbf637994deb","6880d1c60d3d5b0777b60ceb","2","1","67eab317b6f969b3df440160","2","1","2025-07-23T12:25:36.458Z","","","","","","","","","","","","","","win-only","2","g1:SE,g2:NW","0.4","7","0","499805.9","1118.6","6132.7","36696.9","1","4","4","6","1","1","0","1","1","0.007575757575757576","1178.1","3000","960","[""down"",""right""]","{""num_key_presses"":10,""num_perfect"":4,""num_errors"":1,""num_randdir"":5,""num_randdir_good_moves"":3,""num_whilered"":0,""num_whileblue"":1,""num_blue"":2,""num_good_moves"":7}","[416.57142857142856,425.1808016640799,0.2,416.57142857142856,425.1808016640799,106.4,416.57142857142856,425.1808016640799,217.3,416.57142857142856,425.1808016640799,326.3,416.57142857142856,425.1808016640799,426.7,416.57142857142856,425.1808016640799,532.1,416.57142857142856,425.1808016640799,649.5,581.5714285714286,500.1808016640799,765.8,620.5714285714286,581.1808016640799,872.1,719.5714285714286,744.6808016640799,974.5,734.5714285714286,768.6808016640799,1078.3,734.5714285714286,768.6808016640799,1191.2,734.5714285714286,768.6808016640799,1300.3,734.5714285714286,764.1808016640799,1408.5,731.5714285714286,758.1808016640799,1512.5,731.5714285714286,758.1808016640799,1615.1,731.5714285714286,758.1808016640799,1731.6,731.5714285714286,758.1808016640799,1832.8,731.5714285714286,758.1808016640799,1937.5,731.5714285714286,758.1808016640799,2038.2,731.5714285714286,758.1808016640799,2150.9,731.5714285714286,758.1808016640799,2251.3,731.5714285714286,758.1808016640799,2356.5,731.5714285714286,758.1808016640799,2465.2,731.5714285714286,758.1808016640799,2582.1,731.5714285714286,758.1808016640799,2687.8,731.5714285714286,758.1808016640799,2795.9,731.5714285714286,758.1808016640799,2898.9,731.5714285714286,758.1808016640799,3002,731.5714285714286,758.1808016640799,3102,731.5714285714286,758.1808016640799,3202.2,731.5714285714286,758.1808016640799,3306.1,731.5714285714286,756.6808016640799,3406.9,731.5714285714286,756.6808016640799,3511.3,731.5714285714286,756.6808016640799,3613.4,731.5714285714286,756.6808016640799,3713.9,731.5714285714286,756.6808016640799,3819.9,731.5714285714286,756.6808016640799,3922.8,731.5714285714286,756.6808016640799,4030.1,731.5714285714286,756.6808016640799,4132.1,731.5714285714286,756.6808016640799,4236.1,731.5714285714286,756.6808016640799,4340.5,731.5714285714286,756.6808016640799,4447,731.5714285714286,756.6808016640799,4548.9,731.5714285714286,756.6808016640799,4652.1,731.5714285714286,756.6808016640799,4759.7,731.5714285714286,756.6808016640799,4868.7,731.5714285714286,756.6808016640799,4980.9]","[4810.3,4810.3,2505,2013.7,291.7,""oops"",""down"",""down"",""good_move"",7271,2460,2152.7,4811,307.4,""smooth"",""down"",""down"",""good_move"",10638.7,3367.4,3120,7271.5,247.3,""oops"",""right"",""up"",""bad_move"",13349.4,2710.2,2347.2,10639.2,363,""while_blue"",""right"",""left"",""bad_move"",16100.9,2750.6,2278.5,13350.3,472.1,""oops"",""right"",""down"",""good_move"",18996.5,2895.4,2508.5,16101.1,386.9,""smooth"",""right"",""right"",""good_move"",22305.9,3308.8,3037.5,18997.1,271.3,""oops"",""right"",""right"",""good_move"",24654.1,2347.8,1992.3,22306.3,355.5,""oops"",""right"",""up"",""bad_move"",26988.3,2333.9,1835.6,24654.5,498.3,""smooth"",""right"",""right"",""good_move"",30432.7,3444,3130,26988.7,314,""smooth"",""down"",""down"",""good_move""]","",""
"5780","","<div style=""width:500px;"">
  <p>What determined the result of this run?</p>
  </div>","56","html-slider-response","40","535561","0.0-5.0-1.6","217","1","2025-07-23 12:16:38","1f75c3e559b7213887762d5229550c2b","162.251.248.35","Mozilla/5.0 (Windows NT 10.0; Win64; x64) AppleWebKit/537.36 (KHTML, like Gecko) Chrome/134.0.0.0 Safari/537.36","WebKit","Chrome","134.0.0.0","Windows","10.0","https://app.prolific.com/","en-US,en;q=0.9","67eab317b6f969b3df440160","683db9eb0562dbf637994deb","6880d1c60d3d5b0777b60ceb","2","1","67eab317b6f969b3df440160","2","1","2025-07-23T12:25:42.240Z","","","","","","","","","","","AttribQ","","50","","","","","","","","","","","","","","","","","","","","","","","","","","","","",""
"1519","","<div style=""width:500px;"">
  <p>How much control did you have over the ball?</p>
  </div>","63","html-slider-response","41","537083","0.0-5.0-2.6","217","1","2025-07-23 12:16:38","1f75c3e559b7213887762d5229550c2b","162.251.248.35","Mozilla/5.0 (Windows NT 10.0; Win64; x64) AppleWebKit/537.36 (KHTML, like Gecko) Chrome/134.0.0.0 Safari/537.36","WebKit","Chrome","134.0.0.0","Windows","10.0","https://app.prolific.com/","en-US,en;q=0.9","67eab317b6f969b3df440160","683db9eb0562dbf637994deb","6880d1c60d3d5b0777b60ceb","2","1","67eab317b6f969b3df440160","2","1","2025-07-23T12:25:43.762Z","","","","","","","","","","","ControlQ","","50","","","","","","","","","","","","","","","","","","","","","","","","","","","","",""
"2187","","<div style=""width:500px;"">
  <p>How would you describe your current emotional state?</p>
  </div>","64","html-slider-response","42","539273","0.0-5.0-3.6","217","1","2025-07-23 12:16:38","1f75c3e559b7213887762d5229550c2b","162.251.248.35","Mozilla/5.0 (Windows NT 10.0; Win64; x64) AppleWebKit/537.36 (KHTML, like Gecko) Chrome/134.0.0.0 Safari/537.36","WebKit","Chrome","134.0.0.0","Windows","10.0","https://app.prolific.com/","en-US,en;q=0.9","67eab317b6f969b3df440160","683db9eb0562dbf637994deb","6880d1c60d3d5b0777b60ceb","2","1","67eab317b6f969b3df440160","2","1","2025-07-23T12:25:45.952Z","","","","","","","","","","","StressQ","","50","","","","","","","","","","","","","","","","","","","","","","","","","","","","",""
"3253","","<div style=""width:500px;"">
  <p>What best describes how you currently feel?</p>
  </div>","60","html-slider-response","43","542529","0.0-5.0-4.6","217","1","2025-07-23 12:16:38","1f75c3e559b7213887762d5229550c2b","162.251.248.35","Mozilla/5.0 (Windows NT 10.0; Win64; x64) AppleWebKit/537.36 (KHTML, like Gecko) Chrome/134.0.0.0 Safari/537.36","WebKit","Chrome","134.0.0.0","Windows","10.0","https://app.prolific.com/","en-US,en;q=0.9","67eab317b6f969b3df440160","683db9eb0562dbf637994deb","6880d1c60d3d5b0777b60ceb","2","1","67eab317b6f969b3df440160","2","1","2025-07-23T12:25:49.208Z","","","","","","","","","","","MotivationQ","","50","","","","","","","","","","","","","","","","","","","","","","","","","","","","",""
"","","","","ctl-task-cpt","44","584091","0.0-5.0-0.7","217","1","2025-07-23 12:16:38","1f75c3e559b7213887762d5229550c2b","162.251.248.35","Mozilla/5.0 (Windows NT 10.0; Win64; x64) AppleWebKit/537.36 (KHTML, like Gecko) Chrome/134.0.0.0 Safari/537.36","WebKit","Chrome","134.0.0.0","Windows","10.0","https://app.prolific.com/","en-US,en;q=0.9","67eab317b6f969b3df440160","683db9eb0562dbf637994deb","6880d1c60d3d5b0777b60ceb","2","1","67eab317b6f969b3df440160","2","1","2025-07-23T12:26:30.770Z","","","","","","","","","","","","","","win-only","0","g1:NW,g2:SE","0.3","8","0","552274.6","1165.9","6168.2","38528","1","4","8","6","1","-1","-3","0","1","0","1665.4","3000","-2015","[""left"",""up""]","{""num_key_presses"":8,""num_perfect"":0,""num_errors"":2,""num_randdir"":6,""num_randdir_good_moves"":2,""num_whilered"":0,""num_whileblue"":0,""num_blue"":2,""num_good_moves"":2}","[422.57142857142856,419.1808016640799,0.2,422.57142857142856,419.1808016640799,100,422.57142857142856,419.1808016640799,202.8,422.57142857142856,419.1808016640799,306.2,422.57142857142856,419.1808016640799,417.4,422.57142857142856,419.1808016640799,518.4,422.57142857142856,419.1808016640799,619.8,422.57142857142856,419.1808016640799,721.4,422.57142857142856,419.1808016640799,826.2,422.57142857142856,419.1808016640799,928,407.57142857142856,423.6808016640799,1031.2,299.57142857142856,326.1808016640799,1131.8,194.57142857142856,171.68080166407992,1233.2,161.57142857142856,131.18080166407992,1334.7,112.07142857142857,107.18080166407994,1449.3,109.07142857142857,101.18080166407994,1550.3,109.07142857142857,99.68080166407994,1650.6,109.07142857142857,87.68080166407994,1750.6,109.07142857142857,86.18080166407994,1853.7,109.07142857142857,86.18080166407994,1970.2,109.07142857142857,86.18080166407994,2084.4,109.07142857142857,86.18080166407994,2185.2,109.07142857142857,86.18080166407994,2289.7,109.07142857142857,86.18080166407994,2391.5,109.07142857142857,86.18080166407994,2499.1,109.07142857142857,86.18080166407994,2603.8,109.07142857142857,86.18080166407994,2708.5,109.07142857142857,86.18080166407994,2809.4,109.07142857142857,86.18080166407994,2921.1,109.07142857142857,86.18080166407994,3023,109.07142857142857,86.18080166407994,3126.5,109.07142857142857,86.18080166407994,3229.3,109.07142857142857,86.18080166407994,3330.6,109.07142857142857,86.18080166407994,3431.6,109.07142857142857,86.18080166407994,3538.7,109.07142857142857,86.18080166407994,3645.3,109.07142857142857,86.18080166407994,3745.4,109.07142857142857,86.18080166407994,3848,109.07142857142857,86.18080166407994,3948.2,110.57142857142857,86.18080166407994,4051.2,110.57142857142857,86.18080166407994,4153.4,110.57142857142857,86.18080166407994,4257.6,110.57142857142857,86.18080166407994,4360.3,110.57142857142857,86.18080166407994,4462.5,110.57142857142857,86.18080166407994,4566.8,110.57142857142857,86.18080166407994,4667,110.57142857142857,86.18080166407994,4782.4,110.57142857142857,86.18080166407994,4888.6,110.57142857142857,86.18080166407994,4997.1]","[279.4,279.4,1000,0,-720.6,""error"",""-"",""-"",""no_move"",3986.5,3706.8,2185.7,1292.1,508.8,""oops"",""up"",""left"",""good_move"",7567.9,3580.7,3186.7,3987.2,394,""oops"",""up"",""right"",""bad_move"",10614.5,3046.1,2595.6,7568.4,450.5,""oops"",""up"",""right"",""bad_move"",14444.5,3829.7,1917.1,10614.8,1912.6,""oops"",""left"",""right"",""bad_move"",22517.8,8072.8,3155.7,22255.1,-2893,""error"",""-"",""-"",""no_move"",25782,3263.8,1829.1,23519.8,433.1,""oops"",""left"",""right"",""bad_move"",29262.3,3479.9,2939,25782.4,540.9,""oops"",""up"",""up"",""good_move""]","",""
"9166","","<div style=""width:500px;"">
  <p>What determined the result of this run?</p>
  </div>","62","html-slider-response","45","593258","0.0-5.0-1.7","217","1","2025-07-23 12:16:38","1f75c3e559b7213887762d5229550c2b","162.251.248.35","Mozilla/5.0 (Windows NT 10.0; Win64; x64) AppleWebKit/537.36 (KHTML, like Gecko) Chrome/134.0.0.0 Safari/537.36","WebKit","Chrome","134.0.0.0","Windows","10.0","https://app.prolific.com/","en-US,en;q=0.9","67eab317b6f969b3df440160","683db9eb0562dbf637994deb","6880d1c60d3d5b0777b60ceb","2","1","67eab317b6f969b3df440160","2","1","2025-07-23T12:26:39.937Z","","","","","","","","","","","AttribQ","","50","","","","","","","","","","","","","","","","","","","","","","","","","","","","",""
"2639","","<div style=""width:500px;"">
  <p>How much control did you have over the ball?</p>
  </div>","56","html-slider-response","46","595901","0.0-5.0-2.7","217","1","2025-07-23 12:16:38","1f75c3e559b7213887762d5229550c2b","162.251.248.35","Mozilla/5.0 (Windows NT 10.0; Win64; x64) AppleWebKit/537.36 (KHTML, like Gecko) Chrome/134.0.0.0 Safari/537.36","WebKit","Chrome","134.0.0.0","Windows","10.0","https://app.prolific.com/","en-US,en;q=0.9","67eab317b6f969b3df440160","683db9eb0562dbf637994deb","6880d1c60d3d5b0777b60ceb","2","1","67eab317b6f969b3df440160","2","1","2025-07-23T12:26:42.580Z","","","","","","","","","","","ControlQ","","50","","","","","","","","","","","","","","","","","","","","","","","","","","","","",""
"2598","","<div style=""width:500px;"">
  <p>How would you describe your current emotional state?</p>
  </div>","88","html-slider-response","47","598501","0.0-5.0-3.7","217","1","2025-07-23 12:16:38","1f75c3e559b7213887762d5229550c2b","162.251.248.35","Mozilla/5.0 (Windows NT 10.0; Win64; x64) AppleWebKit/537.36 (KHTML, like Gecko) Chrome/134.0.0.0 Safari/537.36","WebKit","Chrome","134.0.0.0","Windows","10.0","https://app.prolific.com/","en-US,en;q=0.9","67eab317b6f969b3df440160","683db9eb0562dbf637994deb","6880d1c60d3d5b0777b60ceb","2","1","67eab317b6f969b3df440160","2","1","2025-07-23T12:26:45.180Z","","","","","","","","","","","StressQ","","50","","","","","","","","","","","","","","","","","","","","","","","","","","","","",""
"4392","","<div style=""width:500px;"">
  <p>What best describes how you currently feel?</p>
  </div>","16","html-slider-response","48","602896","0.0-5.0-4.7","217","1","2025-07-23 12:16:38","1f75c3e559b7213887762d5229550c2b","162.251.248.35","Mozilla/5.0 (Windows NT 10.0; Win64; x64) AppleWebKit/537.36 (KHTML, like Gecko) Chrome/134.0.0.0 Safari/537.36","WebKit","Chrome","134.0.0.0","Windows","10.0","https://app.prolific.com/","en-US,en;q=0.9","67eab317b6f969b3df440160","683db9eb0562dbf637994deb","6880d1c60d3d5b0777b60ceb","2","1","67eab317b6f969b3df440160","2","1","2025-07-23T12:26:49.575Z","","","","","","","","","","","MotivationQ","","50","","","","","","","","","","","","","","","","","","","","","","","","","","","","",""
"","","","","ctl-task-cpt","49","654850","0.0-5.0-0.8","217","1","2025-07-23 12:16:38","1f75c3e559b7213887762d5229550c2b","162.251.248.35","Mozilla/5.0 (Windows NT 10.0; Win64; x64) AppleWebKit/537.36 (KHTML, like Gecko) Chrome/134.0.0.0 Safari/537.36","WebKit","Chrome","134.0.0.0","Windows","10.0","https://app.prolific.com/","en-US,en;q=0.9","67eab317b6f969b3df440160","683db9eb0562dbf637994deb","6880d1c60d3d5b0777b60ceb","2","1","67eab317b6f969b3df440160","2","1","2025-07-23T12:27:41.529Z","","","","","","","","","","","","","","win-only","3","g1:SW,g2:NE","0.2","9","0","612641.8","1189.8","6191.1","48935.2","1","4","4","6","1","-1","-4","0","0","0","1289.5","3000","-2110","[""down"",""left""]","{""num_key_presses"":19,""num_perfect"":2,""num_errors"":3,""num_randdir"":8,""num_randdir_good_moves"":2,""num_whilered"":6,""num_whileblue"":1,""num_blue"":3,""num_good_moves"":5}","[425.57142857142856,419.1808016640799,0.2,425.57142857142856,419.1808016640799,108.1,425.57142857142856,419.1808016640799,220.3,425.57142857142856,419.1808016640799,330.2,425.57142857142856,419.1808016640799,435.3,425.57142857142856,419.1808016640799,538.2,403.07142857142856,440.1808016640799,640.6,302.57142857142856,567.6808016640799,743.9,209.57142857142856,690.6808016640799,846,154.07142857142856,758.1808016640799,948,152.57142857142856,758.1808016640799,1050.1,121.07142857142857,767.1808016640799,1151.4,106.07142857142857,767.1808016640799,1251.7,106.07142857142857,767.1808016640799,1365.1,106.07142857142857,767.1808016640799,1469.5,106.07142857142857,767.1808016640799,1581.5,106.07142857142857,767.1808016640799,1681.6,106.07142857142857,767.1808016640799,1789.2,106.07142857142857,767.1808016640799,1892.7,106.07142857142857,767.1808016640799,1996,106.07142857142857,767.1808016640799,2097.5,106.07142857142857,767.1808016640799,2202.4,106.07142857142857,767.1808016640799,2305.7,106.07142857142857,767.1808016640799,2407.3,106.07142857142857,767.1808016640799,2508.3,106.07142857142857,767.1808016640799,2616.7,106.07142857142857,767.1808016640799,2721.7,106.07142857142857,767.1808016640799,2825.9,106.07142857142857,767.1808016640799,2930.8,106.07142857142857,767.1808016640799,3030.9,106.07142857142857,767.1808016640799,3136.9,106.07142857142857,767.1808016640799,3237.1,106.07142857142857,767.1808016640799,3339,106.07142857142857,767.1808016640799,3445.8,106.07142857142857,767.1808016640799,3546,106.07142857142857,767.1808016640799,3653.5,106.07142857142857,767.1808016640799,3756.4,106.07142857142857,767.1808016640799,3860.9,106.07142857142857,767.1808016640799,3974.5,106.07142857142857,767.1808016640799,4078.6,106.07142857142857,767.1808016640799,4181.5,106.07142857142857,767.1808016640799,4294.6,106.07142857142857,767.1808016640799,4396.3,106.07142857142857,767.1808016640799,4504.7,106.07142857142857,767.1808016640799,4613.2,106.07142857142857,767.1808016640799,4729.2,106.07142857142857,767.1808016640799,4831,106.07142857142857,767.1808016640799,4933.5]","[1392.4,1392.4,1000,0,392.4,""smooth"",""down"",""down"",""good_move"",3901.9,2508.9,2074.2,1393,434.7,""oops"",""down"",""down"",""good_move"",6439.1,2536.8,2195.8,3902.3,341,""smooth"",""left"",""left"",""good_move"",9709.1,3269.1,2910.3,6440.1,358.7,""oops"",""left"",""right"",""bad_move"",12091.8,2382,2002.3,9709.8,379.7,""oops"",""left"",""right"",""bad_move"",14674.8,2582.7,2183.6,12092.1,399.1,""oops"",""left"",""left"",""good_move"",17071.9,2396.9,2063,14675,333.9,""oops"",""left"",""up"",""bad_move"",19751.4,2679,2344.1,17072.4,334.9,""oops"",""left"",""right"",""bad_move"",22861.2,3109.5,2847.7,19751.7,261.9,""oops"",""left"",""right"",""bad_move"",25761,2899.6,2561.5,22861.4,338.1,""oops"",""left"",""right"",""bad_move"",28374.5,2613.1,2204.1,25761.5,409,""while_blue"",""left"",""down"",""good_move"",30054.4,1678.7,3395.9,28375.7,-1717.2,""error"",""-"",""-"",""no_move"",30255.7,201,3395.9,28375.7,-1515.9,""while_red"",""-"",""-"",""no_move"",30334.5,279.8,3395.9,28375.7,-1437.1,""while_red"",""-"",""-"",""no_move"",30492.1,437.4,3395.9,28375.7,-1279.5,""while_red"",""-"",""-"",""no_move"",30645.9,591.2,3395.9,28375.7,-1125.7,""while_red"",""-"",""-"",""no_move"",30789.2,734.5,3395.9,28375.7,-982.3,""while_red"",""-"",""-"",""no_move"",30926.7,872,3395.9,28375.7,-844.9,""while_red"",""-"",""-"",""no_move"",31077.6,1022.9,2178.7,31062.1,-2163.2,""error"",""-"",""-"",""no_move""]","",""
"43195","","<div style=""width:500px;"">
  <p>What determined the result of this run?</p>
  </div>","62","html-slider-response","50","698046","0.0-5.0-1.8","217","1","2025-07-23 12:16:38","1f75c3e559b7213887762d5229550c2b","162.251.248.35","Mozilla/5.0 (Windows NT 10.0; Win64; x64) AppleWebKit/537.36 (KHTML, like Gecko) Chrome/134.0.0.0 Safari/537.36","WebKit","Chrome","134.0.0.0","Windows","10.0","https://app.prolific.com/","en-US,en;q=0.9","67eab317b6f969b3df440160","683db9eb0562dbf637994deb","6880d1c60d3d5b0777b60ceb","2","1","67eab317b6f969b3df440160","2","1","2025-07-23T12:28:24.725Z","","","","","","","","","","","AttribQ","","50","","","","","","","","","","","","","","","","","","","","","","","","","","","","",""
"2966","","<div style=""width:500px;"">
  <p>How much control did you have over the ball?</p>
  </div>","34","html-slider-response","51","701014","0.0-5.0-2.8","217","1","2025-07-23 12:16:38","1f75c3e559b7213887762d5229550c2b","162.251.248.35","Mozilla/5.0 (Windows NT 10.0; Win64; x64) AppleWebKit/537.36 (KHTML, like Gecko) Chrome/134.0.0.0 Safari/537.36","WebKit","Chrome","134.0.0.0","Windows","10.0","https://app.prolific.com/","en-US,en;q=0.9","67eab317b6f969b3df440160","683db9eb0562dbf637994deb","6880d1c60d3d5b0777b60ceb","2","1","67eab317b6f969b3df440160","2","1","2025-07-23T12:28:27.693Z","","","","","","","","","","","ControlQ","","50","","","","","","","","","","","","","","","","","","","","","","","","","","","","",""
"3935","","<div style=""width:500px;"">
  <p>How would you describe your current emotional state?</p>
  </div>","97","html-slider-response","52","704952","0.0-5.0-3.8","217","1","2025-07-23 12:16:38","1f75c3e559b7213887762d5229550c2b","162.251.248.35","Mozilla/5.0 (Windows NT 10.0; Win64; x64) AppleWebKit/537.36 (KHTML, like Gecko) Chrome/134.0.0.0 Safari/537.36","WebKit","Chrome","134.0.0.0","Windows","10.0","https://app.prolific.com/","en-US,en;q=0.9","67eab317b6f969b3df440160","683db9eb0562dbf637994deb","6880d1c60d3d5b0777b60ceb","2","1","67eab317b6f969b3df440160","2","1","2025-07-23T12:28:31.631Z","","","","","","","","","","","StressQ","","50","","","","","","","","","","","","","","","","","","","","","","","","","","","","",""
"12057","","<div style=""width:500px;"">
  <p>What best describes how you currently feel?</p>
  </div>","5","html-slider-response","53","717011","0.0-5.0-4.8","217","1","2025-07-23 12:16:38","1f75c3e559b7213887762d5229550c2b","162.251.248.35","Mozilla/5.0 (Windows NT 10.0; Win64; x64) AppleWebKit/537.36 (KHTML, like Gecko) Chrome/134.0.0.0 Safari/537.36","WebKit","Chrome","134.0.0.0","Windows","10.0","https://app.prolific.com/","en-US,en;q=0.9","67eab317b6f969b3df440160","683db9eb0562dbf637994deb","6880d1c60d3d5b0777b60ceb","2","1","67eab317b6f969b3df440160","2","1","2025-07-23T12:28:43.690Z","","","","","","","","","","","MotivationQ","","50","","","","","","","","","","","","","","","","","","","","","","","","","","","","",""
"","","","","ctl-task-cpt","54","774786","0.0-5.0-0.9","217","1","2025-07-23 12:16:38","1f75c3e559b7213887762d5229550c2b","162.251.248.35","Mozilla/5.0 (Windows NT 10.0; Win64; x64) AppleWebKit/537.36 (KHTML, like Gecko) Chrome/134.0.0.0 Safari/537.36","WebKit","Chrome","134.0.0.0","Windows","10.0","https://app.prolific.com/","en-US,en;q=0.9","67eab317b6f969b3df440160","683db9eb0562dbf637994deb","6880d1c60d3d5b0777b60ceb","2","1","67eab317b6f969b3df440160","2","1","2025-07-23T12:29:41.465Z","","","","","","","","","","","","","","win-only","2","g1:SE,g2:NW","0.4","10","0","726759","1270.9","6274.9","54756.7","1","4","8","6","1","-1","-5","0","0","0","1348.9","3000","-1975","[""down"",""right""]","{""num_key_presses"":20,""num_perfect"":5,""num_errors"":4,""num_randdir"":8,""num_randdir_good_moves"":2,""num_whilered"":3,""num_whileblue"":2,""num_blue"":2,""num_good_moves"":7}","[416.57142857142856,416.1808016640799,0.4,416.57142857142856,416.1808016640799,103.7,416.57142857142856,416.1808016640799,214.5,418.07142857142856,416.1808016640799,321.2,416.57142857142856,416.1808016640799,427.6,416.57142857142856,416.1808016640799,531.1,416.57142857142856,419.1808016640799,637.9,479.57142857142856,491.1808016640799,742.6,641.5714285714286,621.6808016640799,847.4,685.0714285714286,686.1808016640799,953.4,701.5714285714286,758.1808016640799,1063.7,713.5714285714286,773.1808016640799,1172.4,725.5714285714286,761.1808016640799,1273.4,730.0714285714286,761.1808016640799,1378.6,730.0714285714286,758.1808016640799,1482.1,730.0714285714286,758.1808016640799,1582.8,730.0714285714286,758.1808016640799,1689.2,730.0714285714286,758.1808016640799,1795.2,730.0714285714286,758.1808016640799,1898.8,730.0714285714286,758.1808016640799,2003.2,730.0714285714286,758.1808016640799,2109.6,730.0714285714286,758.1808016640799,2210.5,730.0714285714286,758.1808016640799,2316.5,730.0714285714286,758.1808016640799,2419.5,730.0714285714286,758.1808016640799,2526.5,730.0714285714286,758.1808016640799,2627.4,730.0714285714286,758.1808016640799,2729.8,730.0714285714286,758.1808016640799,2833.3,730.0714285714286,758.1808016640799,2936.4,730.0714285714286,758.1808016640799,3036.7,730.0714285714286,758.1808016640799,3144.3,730.0714285714286,758.1808016640799,3245,730.0714285714286,758.1808016640799,3347.9,730.0714285714286,758.1808016640799,3451.5,730.0714285714286,758.1808016640799,3555.8,730.0714285714286,758.1808016640799,3659.7,730.0714285714286,758.1808016640799,3762.6,730.0714285714286,758.1808016640799,3865.6,730.0714285714286,758.1808016640799,3967.5,730.0714285714286,758.1808016640799,4070.3,730.0714285714286,758.1808016640799,4173.7,730.0714285714286,758.1808016640799,4281,730.0714285714286,758.1808016640799,4383.6,730.0714285714286,758.1808016640799,4485.4,730.0714285714286,758.1808016640799,4589.3,730.0714285714286,758.1808016640799,4691.4,730.0714285714286,758.1808016640799,4791.5,730.0714285714286,758.1808016640799,4897,730.0714285714286,758.1808016640799,4997]","[1407.5,1407.5,1000,0,407.5,""smooth"",""right"",""right"",""good_move"",4319.9,2912.1,2468.2,1407.8,443.9,""smooth"",""right"",""right"",""good_move"",7561.1,3241,2936.9,4320.2,304.1,""oops"",""down"",""down"",""good_move"",10354.4,2792.7,2472,7561.7,320.7,""while_blue"",""down"",""left"",""bad_move"",13339.4,2984.2,2673.4,10355.2,310.8,""while_blue"",""down"",""right"",""good_move"",16119.6,2779.8,2378,13339.8,401.8,""oops"",""down"",""left"",""bad_move"",19029.9,2909.8,2549.4,16120.1,360.4,""oops"",""down"",""up"",""bad_move"",22319.6,3289.1,2944.9,19030.5,344.2,""smooth"",""down"",""down"",""good_move"",24993.3,2673,2369.8,22320.3,303.2,""oops"",""down"",""left"",""bad_move"",27795.1,2801.4,2381.4,24993.7,420,""oops"",""down"",""down"",""good_move"",30604.8,2809.2,2532.4,27795.7,276.7,""oops"",""right"",""up"",""bad_move"",33669.3,3063.9,2577.1,30605.5,486.8,""smooth"",""right"",""right"",""good_move"",36476,2805.9,2391.6,33670.3,414.2,""oops"",""left"",""up"",""bad_move"",38942.2,2466,2072.7,36476.3,393.2,""smooth"",""up"",""up"",""bad_move"",40936,1993.5,1612.5,38942.6,381,""oops"",""up"",""up"",""bad_move"",42350.7,1414.4,1896.5,40936.3,-482.1,""error"",""-"",""-"",""no_move"",44313.5,1962.6,2282.5,43353.8,-1322.8,""error"",""-"",""-"",""no_move"",44510.5,196.7,2282.5,43353.8,-1125.8,""while_red"",""-"",""-"",""no_move"",44661.9,348.1,2282.5,43353.8,-974.4,""while_red"",""-"",""-"",""no_move"",44896.7,582.9,2282.5,43353.8,-739.6,""while_red"",""-"",""-"",""no_move""]","",""
"2734","","<div style=""width:500px;"">
  <p>What determined the result of this run?</p>
  </div>","59","html-slider-response","55","777521","0.0-5.0-1.9","217","1","2025-07-23 12:16:38","1f75c3e559b7213887762d5229550c2b","162.251.248.35","Mozilla/5.0 (Windows NT 10.0; Win64; x64) AppleWebKit/537.36 (KHTML, like Gecko) Chrome/134.0.0.0 Safari/537.36","WebKit","Chrome","134.0.0.0","Windows","10.0","https://app.prolific.com/","en-US,en;q=0.9","67eab317b6f969b3df440160","683db9eb0562dbf637994deb","6880d1c60d3d5b0777b60ceb","2","1","67eab317b6f969b3df440160","2","1","2025-07-23T12:29:44.201Z","","","","","","","","","","","AttribQ","","50","","","","","","","","","","","","","","","","","","","","","","","","","","","","",""
"2413","","<div style=""width:500px;"">
  <p>How much control did you have over the ball?</p>
  </div>","20","html-slider-response","56","779937","0.0-5.0-2.9","217","1","2025-07-23 12:16:38","1f75c3e559b7213887762d5229550c2b","162.251.248.35","Mozilla/5.0 (Windows NT 10.0; Win64; x64) AppleWebKit/537.36 (KHTML, like Gecko) Chrome/134.0.0.0 Safari/537.36","WebKit","Chrome","134.0.0.0","Windows","10.0","https://app.prolific.com/","en-US,en;q=0.9","67eab317b6f969b3df440160","683db9eb0562dbf637994deb","6880d1c60d3d5b0777b60ceb","2","1","67eab317b6f969b3df440160","2","1","2025-07-23T12:29:46.616Z","","","","","","","","","","","ControlQ","","50","","","","","","","","","","","","","","","","","","","","","","","","","","","","",""
"3531","","<div style=""width:500px;"">
  <p>How would you describe your current emotional state?</p>
  </div>","100","html-slider-response","57","783470","0.0-5.0-3.9","217","1","2025-07-23 12:16:38","1f75c3e559b7213887762d5229550c2b","162.251.248.35","Mozilla/5.0 (Windows NT 10.0; Win64; x64) AppleWebKit/537.36 (KHTML, like Gecko) Chrome/134.0.0.0 Safari/537.36","WebKit","Chrome","134.0.0.0","Windows","10.0","https://app.prolific.com/","en-US,en;q=0.9","67eab317b6f969b3df440160","683db9eb0562dbf637994deb","6880d1c60d3d5b0777b60ceb","2","1","67eab317b6f969b3df440160","2","1","2025-07-23T12:29:50.149Z","","","","","","","","","","","StressQ","","50","","","","","","","","","","","","","","","","","","","","","","","","","","","","",""
"3208","","<div style=""width:500px;"">
  <p>What best describes how you currently feel?</p>
  </div>","0","html-slider-response","58","786680","0.0-5.0-4.9","217","1","2025-07-23 12:16:38","1f75c3e559b7213887762d5229550c2b","162.251.248.35","Mozilla/5.0 (Windows NT 10.0; Win64; x64) AppleWebKit/537.36 (KHTML, like Gecko) Chrome/134.0.0.0 Safari/537.36","WebKit","Chrome","134.0.0.0","Windows","10.0","https://app.prolific.com/","en-US,en;q=0.9","67eab317b6f969b3df440160","683db9eb0562dbf637994deb","6880d1c60d3d5b0777b60ceb","2","1","67eab317b6f969b3df440160","2","1","2025-07-23T12:29:53.360Z","","","","","","","","","","","MotivationQ","","50","","","","","","","","","","","","","","","","","","","","","","","","","","","","",""
"","","","","ctl-task-cpt","59","817722","0.0-5.0-0.10","217","1","2025-07-23 12:16:38","1f75c3e559b7213887762d5229550c2b","162.251.248.35","Mozilla/5.0 (Windows NT 10.0; Win64; x64) AppleWebKit/537.36 (KHTML, like Gecko) Chrome/134.0.0.0 Safari/537.36","WebKit","Chrome","134.0.0.0","Windows","10.0","https://app.prolific.com/","en-US,en;q=0.9","67eab317b6f969b3df440160","683db9eb0562dbf637994deb","6880d1c60d3d5b0777b60ceb","2","1","67eab317b6f969b3df440160","2","1","2025-07-23T12:30:24.401Z","","","","","","","","","","","","","","win-only","3","g1:SW,g2:NE","0.5","11","0","796426.4","1345.4","6350.4","28008.4","1","4","8","6","1","-1","-3","0","0","0","1068.1","3000","-1945","[""down"",""left""]","{""num_key_presses"":8,""num_perfect"":1,""num_errors"":2,""num_randdir"":3,""num_randdir_good_moves"":1,""num_whilered"":2,""num_whileblue"":0,""num_blue"":0,""num_good_moves"":2}","[413.57142857142856,416.1808016640799,0.3,413.57142857142856,416.1808016640799,100.5,413.57142857142856,416.1808016640799,211.8,413.57142857142856,416.1808016640799,315.3,413.57142857142856,416.1808016640799,418.9,404.57142857142856,425.1808016640799,520,284.57142857142856,563.1808016640799,623.7,122.57142857142857,683.1808016640799,724.9,35.57142857142857,743.1808016640799,827.1,32.57142857142857,743.1808016640799,934.4,35.57142857142857,741.6808016640799,1039.9,41.57142857142857,729.6808016640799,1141.1,41.57142857142857,729.6808016640799,1245.7,41.57142857142857,729.6808016640799,1354.2,41.57142857142857,729.6808016640799,1458.2,41.57142857142857,729.6808016640799,1573.8,41.57142857142857,729.6808016640799,1679,41.57142857142857,729.6808016640799,1782.3,41.57142857142857,729.6808016640799,1889.1,41.57142857142857,729.6808016640799,1989.4,41.57142857142857,729.6808016640799,2090.8,41.57142857142857,729.6808016640799,2193.1,41.57142857142857,729.6808016640799,2296.5,41.57142857142857,729.6808016640799,2396.9,41.57142857142857,729.6808016640799,2514.9,41.57142857142857,729.6808016640799,2617.7,41.57142857142857,729.6808016640799,2721.1,41.57142857142857,729.6808016640799,2821.9,41.57142857142857,729.6808016640799,2937.5,41.57142857142857,729.6808016640799,3052.4,41.57142857142857,729.6808016640799,3153.1,41.57142857142857,729.6808016640799,3254.6,41.57142857142857,729.6808016640799,3355.9,41.57142857142857,729.6808016640799,3456.9,41.57142857142857,729.6808016640799,3562,41.57142857142857,729.6808016640799,3663.4,41.57142857142857,729.6808016640799,3772.4,41.57142857142857,729.6808016640799,3880.5,41.57142857142857,729.6808016640799,3984.1,41.57142857142857,729.6808016640799,4086.1,41.57142857142857,729.6808016640799,4187.9,41.57142857142857,729.6808016640799,4291.3,41.57142857142857,729.6808016640799,4397.2,41.57142857142857,729.6808016640799,4497.5,41.57142857142857,729.6808016640799,4603,41.57142857142857,729.6808016640799,4711.9,41.57142857142857,729.6808016640799,4818.8,41.57142857142857,729.6808016640799,4919.5]","[382.4,382.4,1000,0,-617.6,""error"",""-"",""-"",""no_move"",4068.5,3685.9,2056.8,1385.7,626,""oops"",""down"",""up"",""bad_move"",7610.2,3541.1,3035.3,4069.1,505.8,""smooth"",""down"",""down"",""good_move"",11552.1,3941.4,3476.8,7610.7,464.6,""oops"",""down"",""left"",""good_move"",14626.5,3074,2744,11552.5,330,""oops"",""down"",""right"",""bad_move"",15355.5,728.7,2477.1,14626.8,-1748.4,""error"",""-"",""-"",""no_move"",15564.8,209.1,2477.1,14626.8,-1539.1,""while_red"",""-"",""-"",""no_move"",15728.3,372.6,2477.1,14626.8,-1375.6,""while_red"",""-"",""-"",""no_move""]","",""
"32295","","<div style=""width:500px;"">
  <p>What determined the result of this run?</p>
  </div>","64","html-slider-response","60","850019","0.0-5.0-1.10","217","1","2025-07-23 12:16:38","1f75c3e559b7213887762d5229550c2b","162.251.248.35","Mozilla/5.0 (Windows NT 10.0; Win64; x64) AppleWebKit/537.36 (KHTML, like Gecko) Chrome/134.0.0.0 Safari/537.36","WebKit","Chrome","134.0.0.0","Windows","10.0","https://app.prolific.com/","en-US,en;q=0.9","67eab317b6f969b3df440160","683db9eb0562dbf637994deb","6880d1c60d3d5b0777b60ceb","2","1","67eab317b6f969b3df440160","2","1","2025-07-23T12:30:56.699Z","","","","","","","","","","","AttribQ","","50","","","","","","","","","","","","","","","","","","","","","","","","","","","","",""
"4164","","<div style=""width:500px;"">
  <p>How much control did you have over the ball?</p>
  </div>","0","html-slider-response","61","854188","0.0-5.0-2.10","217","1","2025-07-23 12:16:38","1f75c3e559b7213887762d5229550c2b","162.251.248.35","Mozilla/5.0 (Windows NT 10.0; Win64; x64) AppleWebKit/537.36 (KHTML, like Gecko) Chrome/134.0.0.0 Safari/537.36","WebKit","Chrome","134.0.0.0","Windows","10.0","https://app.prolific.com/","en-US,en;q=0.9","67eab317b6f969b3df440160","683db9eb0562dbf637994deb","6880d1c60d3d5b0777b60ceb","2","1","67eab317b6f969b3df440160","2","1","2025-07-23T12:31:00.867Z","","","","","","","","","","","ControlQ","","50","","","","","","","","","","","","","","","","","","","","","","","","","","","","",""
"3689","","<div style=""width:500px;"">
  <p>How would you describe your current emotional state?</p>
  </div>","100","html-slider-response","62","857879","0.0-5.0-3.10","217","1","2025-07-23 12:16:38","1f75c3e559b7213887762d5229550c2b","162.251.248.35","Mozilla/5.0 (Windows NT 10.0; Win64; x64) AppleWebKit/537.36 (KHTML, like Gecko) Chrome/134.0.0.0 Safari/537.36","WebKit","Chrome","134.0.0.0","Windows","10.0","https://app.prolific.com/","en-US,en;q=0.9","67eab317b6f969b3df440160","683db9eb0562dbf637994deb","6880d1c60d3d5b0777b60ceb","2","1","67eab317b6f969b3df440160","2","1","2025-07-23T12:31:04.558Z","","","","","","","","","","","StressQ","","50","","","","","","","","","","","","","","","","","","","","","","","","","","","","",""
"2818","","<div style=""width:500px;"">
  <p>What best describes how you currently feel?</p>
  </div>","0","html-slider-response","63","860699","0.0-5.0-4.10","217","1","2025-07-23 12:16:38","1f75c3e559b7213887762d5229550c2b","162.251.248.35","Mozilla/5.0 (Windows NT 10.0; Win64; x64) AppleWebKit/537.36 (KHTML, like Gecko) Chrome/134.0.0.0 Safari/537.36","WebKit","Chrome","134.0.0.0","Windows","10.0","https://app.prolific.com/","en-US,en;q=0.9","67eab317b6f969b3df440160","683db9eb0562dbf637994deb","6880d1c60d3d5b0777b60ceb","2","1","67eab317b6f969b3df440160","2","1","2025-07-23T12:31:07.378Z","","","","","","","","","","","MotivationQ","","50","","","","","","","","","","","","","","","","","","","","","","","","","","","","",""
"","","","","ctl-task-cpt","64","910811","0.0-5.0-0.11","217","1","2025-07-23 12:16:38","1f75c3e559b7213887762d5229550c2b","162.251.248.35","Mozilla/5.0 (Windows NT 10.0; Win64; x64) AppleWebKit/537.36 (KHTML, like Gecko) Chrome/134.0.0.0 Safari/537.36","WebKit","Chrome","134.0.0.0","Windows","10.0","https://app.prolific.com/","en-US,en;q=0.9","67eab317b6f969b3df440160","683db9eb0562dbf637994deb","6880d1c60d3d5b0777b60ceb","2","1","67eab317b6f969b3df440160","2","1","2025-07-23T12:31:57.491Z","","","","","","","","","","","","","","win-only","2","g1:SE,g2:NW","0.6","12","0","870446.4","1120.7","6127.2","47082.9","1","4","4","6","2","4","4","4","0","0.030303030303030304","951.3","3000","340","[""left"",""up""]","{""num_key_presses"":12,""num_perfect"":8,""num_errors"":0,""num_randdir"":4,""num_randdir_good_moves"":1,""num_whilered"":0,""num_whileblue"":0,""num_blue"":2,""num_good_moves"":9}","[416.57142857142856,425.1808016640799,0.3,416.57142857142856,423.6808016640799,115.3,416.57142857142856,423.6808016640799,215.8,416.57142857142856,423.6808016640799,317.8,416.57142857142856,423.6808016640799,422.2,386.57142857142856,402.6808016640799,528,131.57142857142856,200.18080166407992,637.9,119.57142857142857,146.18080166407992,740.1,110.57142857142857,114.68080166407994,844.6,83.57142857142857,81.68080166407994,948.3,83.57142857142857,80.18080166407994,1052.3,83.57142857142857,80.18080166407994,1162.1,83.57142857142857,80.18080166407994,1264.8,83.57142857142857,80.18080166407994,1370.7,83.57142857142857,80.18080166407994,1472.3,83.57142857142857,80.18080166407994,1575,83.57142857142857,80.18080166407994,1677.9,83.57142857142857,80.18080166407994,1784.9,83.57142857142857,80.18080166407994,1885.3,83.57142857142857,80.18080166407994,1987.4,83.57142857142857,80.18080166407994,2087.7,83.57142857142857,80.18080166407994,2187.8,83.57142857142857,80.18080166407994,2294.8,83.57142857142857,80.18080166407994,2398.8,83.57142857142857,80.18080166407994,2507.3,83.57142857142857,80.18080166407994,2609.6,83.57142857142857,80.18080166407994,2710.2,83.57142857142857,80.18080166407994,2819.6,83.57142857142857,80.18080166407994,2923.9,83.57142857142857,80.18080166407994,3035.6,83.57142857142857,80.18080166407994,3138.3,83.57142857142857,80.18080166407994,3245,83.57142857142857,80.18080166407994,3353.8,83.57142857142857,80.18080166407994,3460.3,83.57142857142857,80.18080166407994,3567,83.57142857142857,80.18080166407994,3672,83.57142857142857,80.18080166407994,3774.3,83.57142857142857,80.18080166407994,3883.7,83.57142857142857,80.18080166407994,3986.4,83.57142857142857,80.18080166407994,4094.7,83.57142857142857,80.18080166407994,4200.8,83.57142857142857,80.18080166407994,4302.6,83.57142857142857,80.18080166407994,4409.6,83.57142857142857,80.18080166407994,4517.1,83.57142857142857,80.18080166407994,4619.5,83.57142857142857,80.18080166407994,4726.1,83.57142857142857,80.18080166407994,4837.1,83.57142857142857,80.18080166407994,4939.1]","[1389.8,1389.8,1000,0,389.8,""smooth"",""left"",""left"",""good_move"",4286.3,2895.7,2500.3,1390.6,395.4,""smooth"",""up"",""up"",""good_move"",7566.3,3279.2,2886.2,4287.1,393,""smooth"",""up"",""up"",""good_move"",14279.2,6712.6,2316.7,11641.6,320.9,""oops"",""up"",""down"",""bad_move"",17635.2,3355.5,2929.6,14279.7,425.9,""oops"",""up"",""right"",""bad_move"",20317.4,2681.4,1970.2,17636,711.2,""oops"",""up"",""up"",""good_move"",23110.5,2792.3,2451.1,20318.2,341.2,""smooth"",""up"",""up"",""good_move"",25911.2,2799.9,2437.2,23111.3,362.7,""smooth"",""left"",""left"",""good_move"",28806.8,2895.1,2572,25911.7,323.1,""smooth"",""left"",""left"",""good_move"",31529.4,2722.4,2425.4,28807.1,296.9,""oops"",""left"",""right"",""bad_move"",34988.1,3458.2,3089,31529.9,369.2,""smooth"",""left"",""left"",""good_move"",40771.7,5783.3,2262.2,38189.9,319.6,""smooth"",""left"",""left"",""good_move""]","",""
"4696","","<div style=""width:500px;"">
  <p>What determined the result of this run?</p>
  </div>","84","html-slider-response","65","915510","0.0-5.0-1.11","217","1","2025-07-23 12:16:38","1f75c3e559b7213887762d5229550c2b","162.251.248.35","Mozilla/5.0 (Windows NT 10.0; Win64; x64) AppleWebKit/537.36 (KHTML, like Gecko) Chrome/134.0.0.0 Safari/537.36","WebKit","Chrome","134.0.0.0","Windows","10.0","https://app.prolific.com/","en-US,en;q=0.9","67eab317b6f969b3df440160","683db9eb0562dbf637994deb","6880d1c60d3d5b0777b60ceb","2","1","67eab317b6f969b3df440160","2","1","2025-07-23T12:32:02.189Z","","","","","","","","","","","AttribQ","","50","","","","","","","","","","","","","","","","","","","","","","","","","","","","",""
"4039","","<div style=""width:500px;"">
  <p>How much control did you have over the ball?</p>
  </div>","74","html-slider-response","66","919551","0.0-5.0-2.11","217","1","2025-07-23 12:16:38","1f75c3e559b7213887762d5229550c2b","162.251.248.35","Mozilla/5.0 (Windows NT 10.0; Win64; x64) AppleWebKit/537.36 (KHTML, like Gecko) Chrome/134.0.0.0 Safari/537.36","WebKit","Chrome","134.0.0.0","Windows","10.0","https://app.prolific.com/","en-US,en;q=0.9","67eab317b6f969b3df440160","683db9eb0562dbf637994deb","6880d1c60d3d5b0777b60ceb","2","1","67eab317b6f969b3df440160","2","1","2025-07-23T12:32:06.230Z","","","","","","","","","","","ControlQ","","50","","","","","","","","","","","","","","","","","","","","","","","","","","","","",""
"3516","","<div style=""width:500px;"">
  <p>How would you describe your current emotional state?</p>
  </div>","45","html-slider-response","67","923069","0.0-5.0-3.11","217","1","2025-07-23 12:16:38","1f75c3e559b7213887762d5229550c2b","162.251.248.35","Mozilla/5.0 (Windows NT 10.0; Win64; x64) AppleWebKit/537.36 (KHTML, like Gecko) Chrome/134.0.0.0 Safari/537.36","WebKit","Chrome","134.0.0.0","Windows","10.0","https://app.prolific.com/","en-US,en;q=0.9","67eab317b6f969b3df440160","683db9eb0562dbf637994deb","6880d1c60d3d5b0777b60ceb","2","1","67eab317b6f969b3df440160","2","1","2025-07-23T12:32:09.748Z","","","","","","","","","","","StressQ","","50","","","","","","","","","","","","","","","","","","","","","","","","","","","","",""
"2494","","<div style=""width:500px;"">
  <p>What best describes how you currently feel?</p>
  </div>","56","html-slider-response","68","925566","0.0-5.0-4.11","217","1","2025-07-23 12:16:38","1f75c3e559b7213887762d5229550c2b","162.251.248.35","Mozilla/5.0 (Windows NT 10.0; Win64; x64) AppleWebKit/537.36 (KHTML, like Gecko) Chrome/134.0.0.0 Safari/537.36","WebKit","Chrome","134.0.0.0","Windows","10.0","https://app.prolific.com/","en-US,en;q=0.9","67eab317b6f969b3df440160","683db9eb0562dbf637994deb","6880d1c60d3d5b0777b60ceb","2","1","67eab317b6f969b3df440160","2","1","2025-07-23T12:32:12.246Z","","","","","","","","","","","MotivationQ","","50","","","","","","","","","","","","","","","","","","","","","","","","","","","","",""
"","","","","ctl-task-cpt","69","975468","0.0-5.0-0.12","217","1","2025-07-23 12:16:38","1f75c3e559b7213887762d5229550c2b","162.251.248.35","Mozilla/5.0 (Windows NT 10.0; Win64; x64) AppleWebKit/537.36 (KHTML, like Gecko) Chrome/134.0.0.0 Safari/537.36","WebKit","Chrome","134.0.0.0","Windows","10.0","https://app.prolific.com/","en-US,en;q=0.9","67eab317b6f969b3df440160","683db9eb0562dbf637994deb","6880d1c60d3d5b0777b60ceb","2","1","67eab317b6f969b3df440160","2","1","2025-07-23T12:33:02.147Z","","","","","","","","","","","","","","win-only","0","g1:NW,g2:SE","0.7","13","0","935312.3","1529.5","6532.2","46877","1","4","4","6","2","4","1","5","4","0.03787878787878788","1904.1","3000","1450","[""down"",""right""]","{""num_key_presses"":11,""num_perfect"":5,""num_errors"":3,""num_randdir"":3,""num_randdir_good_moves"":2,""num_whilered"":0,""num_whileblue"":2,""num_blue"":6,""num_good_moves"":8}","[428.57142857142856,414.6808016640799,0.2,428.57142857142856,414.6808016640799,108.7,428.57142857142856,414.6808016640799,212.8,428.57142857142856,414.6808016640799,316.3,428.57142857142856,414.6808016640799,421.2,424.07142857142856,425.1808016640799,523.6,422.57142857142856,425.1808016640799,625.9,391.07142857142856,410.1808016640799,734.9,235.07142857142856,278.1808016640799,842,200.57142857142856,245.18080166407992,946.8,202.07142857142856,251.18080166407992,1056.2,232.07142857142856,293.1808016640799,1162.1,271.07142857142856,333.6808016640799,1266.9,484.07142857142856,519.6808016640799,1375.7,631.0714285714286,672.6808016640799,1476.8,673.0714285714286,714.6808016640799,1581.6,697.0714285714286,758.1808016640799,1687,746.5714285714286,758.1808016640799,1796.4,761.5714285714286,761.1808016640799,1898.6,764.5714285714286,761.1808016640799,2004,752.5714285714286,738.6808016640799,2109.3,748.0714285714286,729.6808016640799,2213.7,748.0714285714286,729.6808016640799,2318.9,748.0714285714286,729.6808016640799,2424.1,748.0714285714286,729.6808016640799,2524.7,748.0714285714286,729.6808016640799,2630.4,748.0714285714286,729.6808016640799,2739.1,748.0714285714286,729.6808016640799,2852.4,748.0714285714286,729.6808016640799,2955.2,748.0714285714286,729.6808016640799,3060.9,748.0714285714286,729.6808016640799,3161.5,748.0714285714286,729.6808016640799,3268.2,748.0714285714286,729.6808016640799,3373.1,748.0714285714286,729.6808016640799,3479,748.0714285714286,729.6808016640799,3586.5,748.0714285714286,729.6808016640799,3687.5,748.0714285714286,729.6808016640799,3789.7,748.0714285714286,729.6808016640799,3893.7,748.0714285714286,729.6808016640799,3997.1,748.0714285714286,729.6808016640799,4100.9,748.0714285714286,729.6808016640799,4219.6,748.0714285714286,729.6808016640799,4324.9,748.0714285714286,729.6808016640799,4433.1,748.0714285714286,729.6808016640799,4539.3,748.0714285714286,729.6808016640799,4642.2,748.0714285714286,729.6808016640799,4751.7,748.0714285714286,729.6808016640799,4854.1,748.0714285714286,729.6808016640799,4957.6]","[1828.1,1828.1,1000,0,828.1,""smooth"",""right"",""right"",""good_move"",3918.9,2090.3,1700.7,1828.6,389.6,""oops"",""down"",""up"",""bad_move"",7281.8,3362.3,2933,3919.5,429.3,""while_blue"",""right"",""up"",""bad_move"",7480,197.7,2627.7,7282.3,-2430,""error"",""-"",""-"",""no_move"",11095.1,3615,2196.8,8488.6,409.7,""oops"",""right"",""right"",""good_move"",16919.9,5824.4,2188,14362.4,369.5,""smooth"",""right"",""right"",""good_move"",22183.4,5262.9,2253.9,19644.2,285.3,""smooth"",""down"",""down"",""good_move"",28387,6202.9,3242.7,24861.4,282.9,""oops"",""down"",""down"",""good_move"",34230.4,5842.7,2080.5,31872.6,277.3,""smooth"",""down"",""down"",""good_move"",37448.7,3217.9,2957,34230.8,260.9,""smooth"",""down"",""down"",""good_move"",40197,2748,2445.8,37449,302.2,""while_blue"",""down"",""down"",""good_move""]","",""
"8494","","<div style=""width:500px;"">
  <p>What determined the result of this run?</p>
  </div>","81","html-slider-response","70","983965","0.0-5.0-1.12","217","1","2025-07-23 12:16:38","1f75c3e559b7213887762d5229550c2b","162.251.248.35","Mozilla/5.0 (Windows NT 10.0; Win64; x64) AppleWebKit/537.36 (KHTML, like Gecko) Chrome/134.0.0.0 Safari/537.36","WebKit","Chrome","134.0.0.0","Windows","10.0","https://app.prolific.com/","en-US,en;q=0.9","67eab317b6f969b3df440160","683db9eb0562dbf637994deb","6880d1c60d3d5b0777b60ceb","2","1","67eab317b6f969b3df440160","2","1","2025-07-23T12:33:10.644Z","","","","","","","","","","","AttribQ","","50","","","","","","","","","","","","","","","","","","","","","","","","","","","","",""
"7599","","<div style=""width:500px;"">
  <p>How much control did you have over the ball?</p>
  </div>","23","html-slider-response","71","991567","0.0-5.0-2.12","217","1","2025-07-23 12:16:38","1f75c3e559b7213887762d5229550c2b","162.251.248.35","Mozilla/5.0 (Windows NT 10.0; Win64; x64) AppleWebKit/537.36 (KHTML, like Gecko) Chrome/134.0.0.0 Safari/537.36","WebKit","Chrome","134.0.0.0","Windows","10.0","https://app.prolific.com/","en-US,en;q=0.9","67eab317b6f969b3df440160","683db9eb0562dbf637994deb","6880d1c60d3d5b0777b60ceb","2","1","67eab317b6f969b3df440160","2","1","2025-07-23T12:33:18.246Z","","","","","","","","","","","ControlQ","","50","","","","","","","","","","","","","","","","","","","","","","","","","","","","",""
"6890","","<div style=""width:500px;"">
  <p>How would you describe your current emotional state?</p>
  </div>","100","html-slider-response","72","998460","0.0-5.0-3.12","217","1","2025-07-23 12:16:38","1f75c3e559b7213887762d5229550c2b","162.251.248.35","Mozilla/5.0 (Windows NT 10.0; Win64; x64) AppleWebKit/537.36 (KHTML, like Gecko) Chrome/134.0.0.0 Safari/537.36","WebKit","Chrome","134.0.0.0","Windows","10.0","https://app.prolific.com/","en-US,en;q=0.9","67eab317b6f969b3df440160","683db9eb0562dbf637994deb","6880d1c60d3d5b0777b60ceb","2","1","67eab317b6f969b3df440160","2","1","2025-07-23T12:33:25.139Z","","","","","","","","","","","StressQ","","50","","","","","","","","","","","","","","","","","","","","","","","","","","","","",""
"5413","","<div style=""width:500px;"">
  <p>What best describes how you currently feel?</p>
  </div>","21","html-slider-response","73","1003876","0.0-5.0-4.12","217","1","2025-07-23 12:16:38","1f75c3e559b7213887762d5229550c2b","162.251.248.35","Mozilla/5.0 (Windows NT 10.0; Win64; x64) AppleWebKit/537.36 (KHTML, like Gecko) Chrome/134.0.0.0 Safari/537.36","WebKit","Chrome","134.0.0.0","Windows","10.0","https://app.prolific.com/","en-US,en;q=0.9","67eab317b6f969b3df440160","683db9eb0562dbf637994deb","6880d1c60d3d5b0777b60ceb","2","1","67eab317b6f969b3df440160","2","1","2025-07-23T12:33:30.555Z","","","","","","","","","","","MotivationQ","","50","","","","","","","","","","","","","","","","","","","","","","","","","","","","",""
"","","","","ctl-task-cpt","74","1030377","0.0-5.0-0.13","217","1","2025-07-23 12:16:38","1f75c3e559b7213887762d5229550c2b","162.251.248.35","Mozilla/5.0 (Windows NT 10.0; Win64; x64) AppleWebKit/537.36 (KHTML, like Gecko) Chrome/134.0.0.0 Safari/537.36","WebKit","Chrome","134.0.0.0","Windows","10.0","https://app.prolific.com/","en-US,en;q=0.9","67eab317b6f969b3df440160","683db9eb0562dbf637994deb","6880d1c60d3d5b0777b60ceb","2","1","67eab317b6f969b3df440160","2","1","2025-07-23T12:33:57.056Z","","","","","","","","","","","","","","win-only","0","g1:NW,g2:SE","0.8","14","0","1013622.6","1872.8","6886.4","23451.3","1","4","8","6","2","8","8","13","5","0.09848484848484848","1909.3","3000","2585","[""down"",""right""]","{""num_key_presses"":6,""num_perfect"":5,""num_errors"":0,""num_randdir"":1,""num_randdir_good_moves"":1,""num_whilered"":0,""num_whileblue"":0,""num_blue"":0,""num_good_moves"":6}","[416.57142857142856,422.1808016640799,0.3,416.57142857142856,422.1808016640799,103.3,416.57142857142856,422.1808016640799,204.1,416.57142857142856,422.1808016640799,304.9,416.57142857142856,422.1808016640799,406,416.57142857142856,422.1808016640799,529.9,416.57142857142856,422.1808016640799,649.9,532.0714285714286,567.6808016640799,761.2,731.5714285714286,738.6808016640799,868,751.0714285714286,758.1808016640799,973,767.5714285714286,773.1808016640799,1080,766.0714285714286,773.1808016640799,1203.3,766.0714285714286,773.1808016640799,1304.3,764.5714285714286,773.1808016640799,1424.3,764.5714285714286,774.6808016640799,1524.6,764.5714285714286,774.6808016640799,1625.8,764.5714285714286,774.6808016640799,1725.9,764.5714285714286,774.6808016640799,1847.9,764.5714285714286,774.6808016640799,1956.9,764.5714285714286,774.6808016640799,2059.4,764.5714285714286,774.6808016640799,2182.3,764.5714285714286,774.6808016640799,2306.3,764.5714285714286,774.6808016640799,2428.6,764.5714285714286,774.6808016640799,2528.8,764.5714285714286,774.6808016640799,2633.6,764.5714285714286,774.6808016640799,2753.2,764.5714285714286,774.6808016640799,2877.5,764.5714285714286,774.6808016640799,3001.8,764.5714285714286,774.6808016640799,3106.2,764.5714285714286,774.6808016640799,3210.9,764.5714285714286,774.6808016640799,3332.4,764.5714285714286,774.6808016640799,3453.4,764.5714285714286,774.6808016640799,3553.5,764.5714285714286,774.6808016640799,3653.5,764.5714285714286,774.6808016640799,3757.4,764.5714285714286,774.6808016640799,3880.3,764.5714285714286,774.6808016640799,4000.8,764.5714285714286,774.6808016640799,4103.1,764.5714285714286,774.6808016640799,4209.5,764.5714285714286,774.6808016640799,4311.6,764.5714285714286,774.6808016640799,4429.9,764.5714285714286,774.6808016640799,4558.6,764.5714285714286,774.6808016640799,4659.3,764.5714285714286,774.6808016640799,4760.6,764.5714285714286,774.6808016640799,4886.2,764.5714285714286,774.6808016640799,4987.9]","[1520.1,1520.1,1000,0,520.1,""smooth"",""down"",""down"",""good_move"",4971,3450.3,3000.5,1520.7,449.8,""smooth"",""right"",""right"",""good_move"",7277.2,2305.9,1844.7,4971.3,461.2,""smooth"",""down"",""down"",""good_move"",9815.2,2537.5,2178.4,7277.8,359.1,""oops"",""right"",""down"",""good_move"",12287.7,2472.2,2050.8,9815.5,421.4,""smooth"",""right"",""right"",""good_move"",15720.6,3432.7,2988.2,12287.9,444.5,""smooth"",""right"",""right"",""good_move""]","",""
"21983","","<div style=""width:500px;"">
  <p>What determined the result of this run?</p>
