"rt","response_timestamp","stimulus","response","trial_type","trial_index","time_elapsed","internal_node_id","run_id","condition","recorded_at","source_code_version","ip","user_agent","device","browser","browser_version","platform","platform_version","referer","accept_language","PROLIFIC_PID","STUDY_ID","SESSION_ID","WEEK","BATCH","prolific_id","week","batch","realtime","success","responses","item_order","radio_event_ids","radio_event_times","key_event_times","mouse_event_times","straightlining","zigzagging","honeypot","eventType","view_history","slider_start","which_type","canvas_config","goals_layout","control_level","trial_number","tutorial_trial_number","trial_start_time","phase1_start_time","phase2_start_time","phase3_start_time","goal_1_value","goal_1_distance","goal_2_value","goal_2_distance","goal_selected","outcome","outcome_total","participant_final_score","participant_initial_score","participant_final_score_prop","goal_choice_rt","allocated_time","allocated_time_remaining","goal_direction","counts","mouse_movements","key_presses","question_order","question_id"
"8785","1752655090036","<p style='font-size:40px;line-height:1.25'><strong>Welcome to the experiment!</strong></p><p style='font-size:1.1em;line-height:1.25'>Thank you for participanting in our experiment again! You will be asked to play the Dysfunctional Ball Game again. We will briefly recap the rules before we start.</p><p style='font-size:1.1em;line-height:1.25'>Press <strong>Next</strong> to continue.</p>","0","custom-html-button-response","0","8787","0.0-0.0","79","1","2025-07-16 08:38:56","1f75c3e559b7213887762d5229550c2b","216.120.189.235","Mozilla/5.0 (Windows NT 10.0; Win64; x64) AppleWebKit/537.36 (KHTML, like Gecko) Chrome/138.0.0.0 Safari/537.36","WebKit","Chrome","138.0.0.0","Windows","10.0","https://app.prolific.com/","en-GB,en-US;q=0.9,en;q=0.8","667b366d0d0943e90dbee7d1","686e379bc37a29ffa5cdc956","687764994d3b1fd44ee5f343","1","1","667b366d0d0943e90dbee7d1","1","1","2025-07-16T08:38:10.038Z","","","","","","","","","","","","","","","","","","","","","","","","","","","","","","","","","","","","","","","","","",""
"11622","","","","fullscreen","1","21418","0.0-1.0","79","1","2025-07-16 08:38:56","1f75c3e559b7213887762d5229550c2b","216.120.189.235","Mozilla/5.0 (Windows NT 10.0; Win64; x64) AppleWebKit/537.36 (KHTML, like Gecko) Chrome/138.0.0.0 Safari/537.36","WebKit","Chrome","138.0.0.0","Windows","10.0","https://app.prolific.com/","en-GB,en-US;q=0.9,en;q=0.8","667b366d0d0943e90dbee7d1","686e379bc37a29ffa5cdc956","687764994d3b1fd44ee5f343","1","1","667b366d0d0943e90dbee7d1","1","1","","true","","","","","","","","","","","","","","","","","","","","","","","","","","","","","","","","","","","","","","","","",""
"17246","1752655119918","<p style='font-size:1.1em;line-height:1.25'>In the following, we will ask you a few questions relating to your feelings in the last 24 hours.<br></p><p style='font-size:1.1em;line-height:1.25'>Press the <strong>Next</strong> button to continue.</p>","0","custom-html-button-response","2","38668","0.0-2.0-0.0","79","1","2025-07-16 08:38:56","1f75c3e559b7213887762d5229550c2b","216.120.189.235","Mozilla/5.0 (Windows NT 10.0; Win64; x64) AppleWebKit/537.36 (KHTML, like Gecko) Chrome/138.0.0.0 Safari/537.36","WebKit","Chrome","138.0.0.0","Windows","10.0","https://app.prolific.com/","en-GB,en-US;q=0.9,en;q=0.8","667b366d0d0943e90dbee7d1","686e379bc37a29ffa5cdc956","687764994d3b1fd44ee5f343","1","1","667b366d0d0943e90dbee7d1","1","1","2025-07-16T08:38:39.919Z","","","","","","","","","","","","","","","","","","","","","","","","","","","","","","","","","","","","","","","","","",""
"102551","","","","survey-template","3","141229","0.0-2.0-1.0","79","1","2025-07-16 08:38:56","1f75c3e559b7213887762d5229550c2b","216.120.189.235","Mozilla/5.0 (Windows NT 10.0; Win64; x64) AppleWebKit/537.36 (KHTML, like Gecko) Chrome/138.0.0.0 Safari/537.36","WebKit","Chrome","138.0.0.0","Windows","10.0","https://app.prolific.com/","en-GB,en-US;q=0.9,en;q=0.8","667b366d0d0943e90dbee7d1","686e379bc37a29ffa5cdc956","687764994d3b1fd44ee5f343","1","1","667b366d0d0943e90dbee7d1","1","1","2025-07-16T08:40:22.480Z","","{""Q01"":""1"",""Q02"":""1"",""Q03"":""1"",""Q04"":""1"",""Q05"":""1"",""Q06"":""1"",""Q07"":""1"",""Q08"":""0"",""Q09"":""0"",""Q10"":""0"",""Q11"":""0"",""Q12"":""0"",""Q13"":""5"",""Q14"":""1"",""Q15"":""1"",""Q16"":""1"",""Q17"":""0"",""Q18"":""0"",""Q19"":""1"",""Q20"":""1"",""Q21"":""1"",""Q22"":""1""}","[0,1,2,3,4,5,6,7,8,9,10,11,12,13,14,15,16,17,18,19,20,21]","[""Q01"",""Q02"",""Q03"",""Q04"",""Q05"",""Q06"",""Q07"",""Q08"",""Q09"",""Q10"",""Q11"",""Q12"",""Q13"",""Q14"",""Q15"",""Q16"",""Q17"",""Q18"",""Q19"",""Q20"",""Q21"",""Q22""]","[8375.100000023842,10442.5,11783.899999976158,14219,17134.399999976158,25533.600000023842,27681,34034.700000047684,36073.39999997616,38619.60000002384,42027.200000047684,46034.89999997616,49595.60000002384,54021.10000002384,60074,70511.39999997616,79771,82267.89999997616,89500.20000004768,96000.39999997616,99341.70000004768,101410.10000002384]","[]","[0.10000002384185791,6745.5,8375.100000023842,10442.5,11783.899999976158,14219,17134.399999976158,18677.600000023842,25533.600000023842,27681,30495.299999952316,34034.700000047684,36073.39999997616,38619.60000002384,42027.200000047684,46034.89999997616,49595.60000002384,54021.10000002384,58180.89999997616,60074,66187.89999997616,70511.39999997616,77667.10000002384,79771,82267.89999997616,89500.20000004768,96000.39999997616,99341.70000004768,101410.10000002384,102542.29999995232]","0.6363636363636364","0.19047619047619047","0","drsp","","","","","","","","","","","","","","","","","","","","","","","","","","","","","","",""
"28863.700000047684","","","","survey-template","4","170096","0.0-2.0-2.0","79","1","2025-07-16 08:38:56","1f75c3e559b7213887762d5229550c2b","216.120.189.235","Mozilla/5.0 (Windows NT 10.0; Win64; x64) AppleWebKit/537.36 (KHTML, like Gecko) Chrome/138.0.0.0 Safari/537.36","WebKit","Chrome","138.0.0.0","Windows","10.0","https://app.prolific.com/","en-GB,en-US;q=0.9,en;q=0.8","667b366d0d0943e90dbee7d1","686e379bc37a29ffa5cdc956","687764994d3b1fd44ee5f343","1","1","667b366d0d0943e90dbee7d1","1","1","2025-07-16T08:40:51.348Z","","{""Q01"":""1"",""Q02"":""1"",""Q03"":""1""}","[0,1,2]","[""Q01"",""Q02"",""Q03""]","[4907.800000071526,15065,23455.200000047684]","[]","[4907.800000071526,15065,23455.200000047684,28862.100000023842]","0.6666666666666666","0","0","stress","","","","","","","","","","","","","","","","","","","","","","","","","","","","","","",""
"152773","","","","instructions","5","322873","0.0-3.0-0.0","79","1","2025-07-16 08:38:56","1f75c3e559b7213887762d5229550c2b","216.120.189.235","Mozilla/5.0 (Windows NT 10.0; Win64; x64) AppleWebKit/537.36 (KHTML, like Gecko) Chrome/138.0.0.0 Safari/537.36","WebKit","Chrome","138.0.0.0","Windows","10.0","https://app.prolific.com/","en-GB,en-US;q=0.9,en;q=0.8","667b366d0d0943e90dbee7d1","686e379bc37a29ffa5cdc956","687764994d3b1fd44ee5f343","1","1","667b366d0d0943e90dbee7d1","1","1","","","","","","","","","","","","","[{""page_index"":0,""viewing_time"":152773}]","","","","","","","","","","","","","","","","","","","","","","","","","","","","","",""
"27240","","<p>Before you start with this game please answer the following three questions yourself. </p>
  <p>Through this game, we measure several aspects of your cognitive performance, such as reaction times, multi-tasking capabilities </p>
  <p>and the ability to assess the situation you are in.</p>
  <p></p>
  <p><b>How good do you usually are in such tasks?</b></p>","64","html-slider-response","6","350115","0.0-4.0-0.0","79","1","2025-07-16 08:38:56","1f75c3e559b7213887762d5229550c2b","216.120.189.235","Mozilla/5.0 (Windows NT 10.0; Win64; x64) AppleWebKit/537.36 (KHTML, like Gecko) Chrome/138.0.0.0 Safari/537.36","WebKit","Chrome","138.0.0.0","Windows","10.0","https://app.prolific.com/","en-GB,en-US;q=0.9,en;q=0.8","667b366d0d0943e90dbee7d1","686e379bc37a29ffa5cdc956","687764994d3b1fd44ee5f343","1","1","667b366d0d0943e90dbee7d1","1","1","2025-07-16T08:43:51.367Z","","","","","","","","","","","PreSkillQ","","50","","","","","","","","","","","","","","","","","","","","","","","","","","","","",""
"10932","","<div style=""width:500px;"">
  <p>How well do you think you will perform in this task compared to other participants?</p>
  </div>","57","html-slider-response","7","361050","0.0-4.0-1.0","79","1","2025-07-16 08:38:56","1f75c3e559b7213887762d5229550c2b","216.120.189.235","Mozilla/5.0 (Windows NT 10.0; Win64; x64) AppleWebKit/537.36 (KHTML, like Gecko) Chrome/138.0.0.0 Safari/537.36","WebKit","Chrome","138.0.0.0","Windows","10.0","https://app.prolific.com/","en-GB,en-US;q=0.9,en;q=0.8","667b366d0d0943e90dbee7d1","686e379bc37a29ffa5cdc956","687764994d3b1fd44ee5f343","1","1","667b366d0d0943e90dbee7d1","1","1","2025-07-16T08:44:02.301Z","","","","","","","","","","","PrePerfQ","","50","","","","","","","","","","","","","","","","","","","","","","","","","","","","",""
"6675","","<div style=""width:500px;"">
  <p>What best describes how you currently feel?</p>
  </div>","78","html-slider-response","8","367726","0.0-4.0-2.0","79","1","2025-07-16 08:38:56","1f75c3e559b7213887762d5229550c2b","216.120.189.235","Mozilla/5.0 (Windows NT 10.0; Win64; x64) AppleWebKit/537.36 (KHTML, like Gecko) Chrome/138.0.0.0 Safari/537.36","WebKit","Chrome","138.0.0.0","Windows","10.0","https://app.prolific.com/","en-GB,en-US;q=0.9,en;q=0.8","667b366d0d0943e90dbee7d1","686e379bc37a29ffa5cdc956","687764994d3b1fd44ee5f343","1","1","667b366d0d0943e90dbee7d1","1","1","2025-07-16T08:44:08.977Z","","","","","","","","","","","PreMotivationQ","","50","","","","","","","","","","","","","","","","","","","","","","","","","","","","",""
"","","","","ctl-task-cpt","9","422088","0.0-5.0-0.0","79","1","2025-07-16 08:38:56","1f75c3e559b7213887762d5229550c2b","216.120.189.235","Mozilla/5.0 (Windows NT 10.0; Win64; x64) AppleWebKit/537.36 (KHTML, like Gecko) Chrome/138.0.0.0 Safari/537.36","WebKit","Chrome","138.0.0.0","Windows","10.0","https://app.prolific.com/","en-GB,en-US;q=0.9,en;q=0.8","667b366d0d0943e90dbee7d1","686e379bc37a29ffa5cdc956","687764994d3b1fd44ee5f343","1","1","667b366d0d0943e90dbee7d1","1","1","2025-07-16T08:45:03.339Z","","","","","","","","","","","","","","win-only","0","g1:NW,g2:SE","1","1","0","376205.3","7458.7","12460.7","51355.1","1","4","4","6","2","4","3","3","0","0.022727272727272728","3799","3000","400","[""down"",""right""]","{""num_key_presses"":7,""num_perfect"":6,""num_errors"":1,""num_randdir"":0,""num_randdir_good_moves"":0,""num_whilered"":0,""num_whileblue"":0,""num_blue"":6,""num_good_moves"":6}","[412.07142857142856,422.1808016640799,0.2,412.07142857142856,422.1808016640799,100.1,412.07142857142856,422.1808016640799,200.2,412.07142857142856,422.1808016640799,303.1,412.07142857142856,422.1808016640799,403.4,412.07142857142856,422.1808016640799,507.4,412.07142857142856,422.1808016640799,607.7,412.07142857142856,422.1808016640799,716.8,412.07142857142856,422.1808016640799,822.6,412.07142857142856,422.1808016640799,922.7,412.07142857142856,422.1808016640799,1027.6,322.07142857142856,494.1808016640799,1133.6,263.57142857142856,555.6808016640799,1233.8,260.57142857142856,552.6808016640799,1337.8,266.57142857142856,546.6808016640799,1442.5,376.07142857142856,506.1808016640799,1542.8,380.57142857142856,500.1808016640799,1649.6,380.57142857142856,500.1808016640799,1749.8,380.57142857142856,500.1808016640799,1852.8,380.57142857142856,500.1808016640799,1952.9,380.57142857142856,500.1808016640799,2053.4,380.57142857142856,500.1808016640799,2157,380.57142857142856,500.1808016640799,2257.6,695.5714285714286,651.6808016640799,2357.8,1223.5714285714287,960.6808016640799,2466.7,1223.5714285714287,960.6808016640799,2566.8,1208.5714285714287,960.6808016640799,2671.8,1154.5714285714287,954.6808016640799,2773.3,1054.0714285714287,918.6808016640799,2883,1040.5714285714287,911.1808016640799,2986.7,1040.5714285714287,911.1808016640799,3087.3,1010.5714285714286,894.6808016640799,3187.4,884.5714285714286,851.1808016640799,3292.8,764.5714285714286,782.1808016640799,3394.6,761.5714285714286,780.6808016640799,3500.8,761.5714285714286,779.1808016640799,3602.4,761.5714285714286,779.1808016640799,3702.6,761.5714285714286,779.1808016640799,3803,761.5714285714286,779.1808016640799,3908.9,761.5714285714286,779.1808016640799,4015.2,761.5714285714286,779.1808016640799,4115.6,761.5714285714286,779.1808016640799,4216.8,761.5714285714286,779.1808016640799,4317.8,761.5714285714286,779.1808016640799,4421.9,761.5714285714286,779.1808016640799,4522.6,761.5714285714286,779.1808016640799,4632.4,761.5714285714286,779.1808016640799,4737.2,761.5714285714286,779.1808016640799,4842.5,761.5714285714286,779.1808016640799,4948.7]","[680,680,1000,0,-320,""error"",""-"",""-"",""no_move"",7202.8,6522.6,1709.8,5061.3,431.7,""smooth"",""down"",""down"",""good_move"",9765.1,2561.9,2047.5,7203.2,514.4,""smooth"",""down"",""down"",""good_move"",12627.1,2861.9,2411.6,9765.2,450.3,""smooth"",""down"",""down"",""good_move"",19284.3,6657,2294,16460.9,529.4,""smooth"",""right"",""right"",""good_move"",22290.4,3005.8,2468.5,19284.6,537.3,""smooth"",""right"",""right"",""good_move"",38799.9,16509.4,2427.7,35867.6,504.6,""smooth"",""right"",""right"",""good_move""]","",""
"14797","","<div style=""width:500px;"">
  <p>What determined the result of this run?</p>
  </div>","67","html-slider-response","10","436887","0.0-5.0-1.0","79","1","2025-07-16 08:38:56","1f75c3e559b7213887762d5229550c2b","216.120.189.235","Mozilla/5.0 (Windows NT 10.0; Win64; x64) AppleWebKit/537.36 (KHTML, like Gecko) Chrome/138.0.0.0 Safari/537.36","WebKit","Chrome","138.0.0.0","Windows","10.0","https://app.prolific.com/","en-GB,en-US;q=0.9,en;q=0.8","667b366d0d0943e90dbee7d1","686e379bc37a29ffa5cdc956","687764994d3b1fd44ee5f343","1","1","667b366d0d0943e90dbee7d1","1","1","2025-07-16T08:45:18.138Z","","","","","","","","","","","AttribQ","","50","","","","","","","","","","","","","","","","","","","","","","","","","","","","",""
"5220","","<div style=""width:500px;"">
  <p>How much control did you have over the ball?</p>
  </div>","91","html-slider-response","11","442108","0.0-5.0-2.0","79","1","2025-07-16 08:38:56","1f75c3e559b7213887762d5229550c2b","216.120.189.235","Mozilla/5.0 (Windows NT 10.0; Win64; x64) AppleWebKit/537.36 (KHTML, like Gecko) Chrome/138.0.0.0 Safari/537.36","WebKit","Chrome","138.0.0.0","Windows","10.0","https://app.prolific.com/","en-GB,en-US;q=0.9,en;q=0.8","667b366d0d0943e90dbee7d1","686e379bc37a29ffa5cdc956","687764994d3b1fd44ee5f343","1","1","667b366d0d0943e90dbee7d1","1","1","2025-07-16T08:45:23.359Z","","","","","","","","","","","ControlQ","","50","","","","","","","","","","","","","","","","","","","","","","","","","","","","",""
"45674","","<div style=""width:500px;"">
  <p>How would you describe your current emotional state?</p>
  </div>","18","html-slider-response","12","487783","0.0-5.0-3.0","79","1","2025-07-16 08:38:56","1f75c3e559b7213887762d5229550c2b","216.120.189.235","Mozilla/5.0 (Windows NT 10.0; Win64; x64) AppleWebKit/537.36 (KHTML, like Gecko) Chrome/138.0.0.0 Safari/537.36","WebKit","Chrome","138.0.0.0","Windows","10.0","https://app.prolific.com/","en-GB,en-US;q=0.9,en;q=0.8","667b366d0d0943e90dbee7d1","686e379bc37a29ffa5cdc956","687764994d3b1fd44ee5f343","1","1","667b366d0d0943e90dbee7d1","1","1","2025-07-16T08:46:09.035Z","","","","","","","","","","","StressQ","","50","","","","","","","","","","","","","","","","","","","","","","","","","","","","",""
"8227","","<div style=""width:500px;"">
  <p>What best describes how you currently feel?</p>
  </div>","85","html-slider-response","13","496012","0.0-5.0-4.0","79","1","2025-07-16 08:38:56","1f75c3e559b7213887762d5229550c2b","216.120.189.235","Mozilla/5.0 (Windows NT 10.0; Win64; x64) AppleWebKit/537.36 (KHTML, like Gecko) Chrome/138.0.0.0 Safari/537.36","WebKit","Chrome","138.0.0.0","Windows","10.0","https://app.prolific.com/","en-GB,en-US;q=0.9,en;q=0.8","667b366d0d0943e90dbee7d1","686e379bc37a29ffa5cdc956","687764994d3b1fd44ee5f343","1","1","667b366d0d0943e90dbee7d1","1","1","2025-07-16T08:46:17.263Z","","","","","","","","","","","MotivationQ","","50","","","","","","","","","","","","","","","","","","","","","","","","","","","","",""
"","","","","ctl-task-cpt","14","534957","0.0-5.0-0.1","79","1","2025-07-16 08:38:56","1f75c3e559b7213887762d5229550c2b","216.120.189.235","Mozilla/5.0 (Windows NT 10.0; Win64; x64) AppleWebKit/537.36 (KHTML, like Gecko) Chrome/138.0.0.0 Safari/537.36","WebKit","Chrome","138.0.0.0","Windows","10.0","https://app.prolific.com/","en-GB,en-US;q=0.9,en;q=0.8","667b366d0d0943e90dbee7d1","686e379bc37a29ffa5cdc956","687764994d3b1fd44ee5f343","1","1","667b366d0d0943e90dbee7d1","1","1","2025-07-16T08:46:56.208Z","","","","","","","","","","","","","","win-only","2","g1:SE,g2:NW","0.9","2","0","504492.2","2389.1","7391.6","35921.7","1","4","8","6","2","-8","-8","0","3","0","3687.4","3000","-3010","[""left"",""up""]","{""num_key_presses"":5,""num_perfect"":5,""num_errors"":0,""num_randdir"":0,""num_randdir_good_moves"":0,""num_whilered"":0,""num_whileblue"":0,""num_blue"":3,""num_good_moves"":5}","[416.57142857142856,422.1808016640799,0.4,416.57142857142856,422.1808016640799,101.6,416.57142857142856,422.1808016640799,201.9,416.57142857142856,422.1808016640799,302.4,416.57142857142856,422.1808016640799,407.5,416.57142857142856,422.1808016640799,512.5,416.57142857142856,422.1808016640799,617.1,416.57142857142856,422.1808016640799,723.4,416.57142857142856,422.1808016640799,828.6,416.57142857142856,422.1808016640799,931.9,416.57142857142856,422.1808016640799,1031.9,416.57142857142856,422.1808016640799,1132.2,416.57142857142856,437.1808016640799,1232.2,419.57142857142856,470.1808016640799,1336.8,419.57142857142856,470.1808016640799,1437.3,334.07142857142856,416.1808016640799,1542,59.57142857142857,120.68080166407994,1642.8,59.57142857142857,120.68080166407994,1749,59.57142857142857,120.68080166407994,1849.8,59.57142857142857,120.68080166407994,1952.7,59.57142857142857,120.68080166407994,2058.4,59.57142857142857,120.68080166407994,2165.9,59.57142857142857,119.18080166407994,2266.7,59.57142857142857,119.18080166407994,2367.3,59.57142857142857,119.18080166407994,2468.4,59.57142857142857,119.18080166407994,2572.3,59.57142857142857,119.18080166407994,2672.3,59.57142857142857,119.18080166407994,2772.3,59.57142857142857,119.18080166407994,2877.8,59.57142857142857,119.18080166407994,2978.6,59.57142857142857,119.18080166407994,3079,59.57142857142857,119.18080166407994,3179.5,59.57142857142857,119.18080166407994,3282.4,59.57142857142857,119.18080166407994,3387.3,59.57142857142857,119.18080166407994,3487.7,59.57142857142857,119.18080166407994,3588.3,59.57142857142857,119.18080166407994,3695.2,59.57142857142857,119.18080166407994,3796.7,59.57142857142857,119.18080166407994,3899.3,59.57142857142857,119.18080166407994,4003.3,59.57142857142857,119.18080166407994,4106.4,59.57142857142857,119.18080166407994,4207.2,59.57142857142857,119.18080166407994,4312.7,59.57142857142857,119.18080166407994,4413.3,59.57142857142857,119.18080166407994,4513.5,59.57142857142857,119.18080166407994,4614.3,83.57142857142857,134.18080166407992,4714.4,220.07142857142856,225.68080166407992,4817.9,373.07142857142856,323.1808016640799,4922.6]","[1491.7,1491.7,1000,0,491.7,""smooth"",""up"",""up"",""good_move"",5155.6,3663.4,2672.1,1492.2,991.3,""smooth"",""up"",""up"",""good_move"",12932.9,7776.8,3421,9056.5,455.4,""smooth"",""up"",""up"",""good_move"",19184.9,6251.7,2782.4,15994.7,407.8,""smooth"",""left"",""left"",""good_move"",22241.6,3056.1,2594.6,19185.5,461.5,""smooth"",""left"",""left"",""good_move""]","",""
"6539","","<div style=""width:500px;"">
  <p>What determined the result of this run?</p>
  </div>","50","html-slider-response","15","541498","0.0-5.0-1.1","79","1","2025-07-16 08:38:56","1f75c3e559b7213887762d5229550c2b","216.120.189.235","Mozilla/5.0 (Windows NT 10.0; Win64; x64) AppleWebKit/537.36 (KHTML, like Gecko) Chrome/138.0.0.0 Safari/537.36","WebKit","Chrome","138.0.0.0","Windows","10.0","https://app.prolific.com/","en-GB,en-US;q=0.9,en;q=0.8","667b366d0d0943e90dbee7d1","686e379bc37a29ffa5cdc956","687764994d3b1fd44ee5f343","1","1","667b366d0d0943e90dbee7d1","1","1","2025-07-16T08:47:02.749Z","","","","","","","","","","","AttribQ","","50","","","","","","","","","","","","","","","","","","","","","","","","","","","","",""
"16237","","<div style=""width:500px;"">
  <p>How much control did you have over the ball?</p>
  </div>","72","html-slider-response","16","557736","0.0-5.0-2.1","79","1","2025-07-16 08:38:56","1f75c3e559b7213887762d5229550c2b","216.120.189.235","Mozilla/5.0 (Windows NT 10.0; Win64; x64) AppleWebKit/537.36 (KHTML, like Gecko) Chrome/138.0.0.0 Safari/537.36","WebKit","Chrome","138.0.0.0","Windows","10.0","https://app.prolific.com/","en-GB,en-US;q=0.9,en;q=0.8","667b366d0d0943e90dbee7d1","686e379bc37a29ffa5cdc956","687764994d3b1fd44ee5f343","1","1","667b366d0d0943e90dbee7d1","1","1","2025-07-16T08:47:18.988Z","","","","","","","","","","","ControlQ","","50","","","","","","","","","","","","","","","","","","","","","","","","","","","","",""
"4619","","<div style=""width:500px;"">
  <p>How would you describe your current emotional state?</p>
  </div>","32","html-slider-response","17","562357","0.0-5.0-3.1","79","1","2025-07-16 08:38:56","1f75c3e559b7213887762d5229550c2b","216.120.189.235","Mozilla/5.0 (Windows NT 10.0; Win64; x64) AppleWebKit/537.36 (KHTML, like Gecko) Chrome/138.0.0.0 Safari/537.36","WebKit","Chrome","138.0.0.0","Windows","10.0","https://app.prolific.com/","en-GB,en-US;q=0.9,en;q=0.8","667b366d0d0943e90dbee7d1","686e379bc37a29ffa5cdc956","687764994d3b1fd44ee5f343","1","1","667b366d0d0943e90dbee7d1","1","1","2025-07-16T08:47:23.608Z","","","","","","","","","","","StressQ","","50","","","","","","","","","","","","","","","","","","","","","","","","","","","","",""
"7772","","<div style=""width:500px;"">
  <p>What best describes how you currently feel?</p>
  </div>","62","html-slider-response","18","570130","0.0-5.0-4.1","79","1","2025-07-16 08:38:56","1f75c3e559b7213887762d5229550c2b","216.120.189.235","Mozilla/5.0 (Windows NT 10.0; Win64; x64) AppleWebKit/537.36 (KHTML, like Gecko) Chrome/138.0.0.0 Safari/537.36","WebKit","Chrome","138.0.0.0","Windows","10.0","https://app.prolific.com/","en-GB,en-US;q=0.9,en;q=0.8","667b366d0d0943e90dbee7d1","686e379bc37a29ffa5cdc956","687764994d3b1fd44ee5f343","1","1","667b366d0d0943e90dbee7d1","1","1","2025-07-16T08:47:31.381Z","","","","","","","","","","","MotivationQ","","50","","","","","","","","","","","","","","","","","","","","","","","","","","","","",""
"","","","","ctl-task-cpt","19","608800","0.0-5.0-0.2","79","1","2025-07-16 08:38:56","1f75c3e559b7213887762d5229550c2b","216.120.189.235","Mozilla/5.0 (Windows NT 10.0; Win64; x64) AppleWebKit/537.36 (KHTML, like Gecko) Chrome/138.0.0.0 Safari/537.36","WebKit","Chrome","138.0.0.0","Windows","10.0","https://app.prolific.com/","en-GB,en-US;q=0.9,en;q=0.8","667b366d0d0943e90dbee7d1","686e379bc37a29ffa5cdc956","687764994d3b1fd44ee5f343","1","1","667b366d0d0943e90dbee7d1","1","1","2025-07-16T08:48:10.051Z","","","","","","","","","","","","","","win-only","3","g1:SW,g2:NE","0.8","3","0","578608.9","2178.9","7179.7","35650.4","1","4","4","6","2","-4","-4","0","0","0","3885.8","3000","-3000","[""up"",""right""]","{""num_key_presses"":7,""num_perfect"":5,""num_errors"":0,""num_randdir"":2,""num_randdir_good_moves"":1,""num_whilered"":0,""num_whileblue"":0,""num_blue"":2,""num_good_moves"":6}","[421.07142857142856,428.1808016640799,0.4,421.07142857142856,428.1808016640799,106.1,421.07142857142856,428.1808016640799,207.3,421.07142857142856,428.1808016640799,312.4,421.07142857142856,428.1808016640799,421.4,421.07142857142856,428.1808016640799,523.3,421.07142857142856,428.1808016640799,627.4,421.07142857142856,428.1808016640799,727.5,421.07142857142856,428.1808016640799,831.8,407.57142857142856,428.1808016640799,936.2,407.57142857142856,366.6808016640799,1037.2,452.57142857142856,279.6808016640799,1141.8,547.0714285714286,242.18080166407992,1250.9,671.5714285714286,168.68080166407992,1352,727.0714285714286,107.18080166407994,1452.4,740.5714285714286,83.18080166407994,1558.4,739.0714285714286,81.68080166407994,1662.9,736.0714285714286,77.18080166407994,1763.3,731.5714285714286,74.18080166407994,1867.1,719.5714285714286,71.18080166407994,1967.6,674.5714285714286,86.18080166407994,2070.6,391.07142857142856,398.1808016640799,2171.7,188.57142857142856,587.1808016640799,2273.4,242.57142857142856,530.1808016640799,2376.7,395.57142857142856,410.1808016640799,2476.9,476.57142857142856,356.1808016640799,2576.9,545.5714285714286,314.1808016640799,2678.1,694.0714285714286,192.68080166407992,2781.7,695.5714285714286,189.68080166407992,2885.4,689.5714285714286,176.18080166407992,2987.2,680.5714285714286,161.18080166407992,3087.3,746.5714285714286,77.18080166407994,3188.3,773.5714285714286,48.68080166407994,3292.7,773.5714285714286,47.18080166407994,3402.8,773.5714285714286,47.18080166407994,3505.6,770.5714285714286,50.18080166407994,3606.9,770.5714285714286,53.18080166407994,3711.8,770.5714285714286,53.18080166407994,3820.5,770.5714285714286,53.18080166407994,3923.4,770.5714285714286,53.18080166407994,4027.2,770.5714285714286,53.18080166407994,4133.4,770.5714285714286,53.18080166407994,4237.4,770.5714285714286,53.18080166407994,4337.4,770.5714285714286,53.18080166407994,4437.4,770.5714285714286,53.18080166407994,4542.3,770.5714285714286,53.18080166407994,4651.1,770.5714285714286,53.18080166407994,4751.7,770.5714285714286,53.18080166407994,4852.8,770.5714285714286,53.18080166407994,4956.4]","[1472.1,1472.1,1000,0,472.1,""smooth"",""up"",""up"",""good_move"",10805.5,9333,2821.3,7530.7,453.5,""oops"",""up"",""up"",""good_move"",13583.9,2778.2,2366.3,10805.7,411.9,""smooth"",""up"",""up"",""good_move"",16743.9,3159.6,2764.8,13584.3,394.8,""smooth"",""right"",""right"",""good_move"",20241.9,3497.5,3052.7,16744.4,444.8,""smooth"",""right"",""right"",""good_move"",22971.9,2729.7,2311,20242.3,418.7,""oops"",""right"",""down"",""bad_move"",26277,3304.6,2741.4,22972.5,563.1,""smooth"",""up"",""up"",""good_move""]","",""
"7776","","<div style=""width:500px;"">
  <p>What determined the result of this run?</p>
  </div>","35","html-slider-response","20","616577","0.0-5.0-1.2","79","1","2025-07-16 08:38:56","1f75c3e559b7213887762d5229550c2b","216.120.189.235","Mozilla/5.0 (Windows NT 10.0; Win64; x64) AppleWebKit/537.36 (KHTML, like Gecko) Chrome/138.0.0.0 Safari/537.36","WebKit","Chrome","138.0.0.0","Windows","10.0","https://app.prolific.com/","en-GB,en-US;q=0.9,en;q=0.8","667b366d0d0943e90dbee7d1","686e379bc37a29ffa5cdc956","687764994d3b1fd44ee5f343","1","1","667b366d0d0943e90dbee7d1","1","1","2025-07-16T08:48:17.828Z","","","","","","","","","","","AttribQ","","50","","","","","","","","","","","","","","","","","","","","","","","","","","","","",""
"8772","","<div style=""width:500px;"">
  <p>How much control did you have over the ball?</p>
  </div>","32","html-slider-response","21","625351","0.0-5.0-2.2","79","1","2025-07-16 08:38:56","1f75c3e559b7213887762d5229550c2b","216.120.189.235","Mozilla/5.0 (Windows NT 10.0; Win64; x64) AppleWebKit/537.36 (KHTML, like Gecko) Chrome/138.0.0.0 Safari/537.36","WebKit","Chrome","138.0.0.0","Windows","10.0","https://app.prolific.com/","en-GB,en-US;q=0.9,en;q=0.8","667b366d0d0943e90dbee7d1","686e379bc37a29ffa5cdc956","687764994d3b1fd44ee5f343","1","1","667b366d0d0943e90dbee7d1","1","1","2025-07-16T08:48:26.602Z","","","","","","","","","","","ControlQ","","50","","","","","","","","","","","","","","","","","","","","","","","","","","","","",""
"5969","","<div style=""width:500px;"">
  <p>How would you describe your current emotional state?</p>
  </div>","31","html-slider-response","22","631321","0.0-5.0-3.2","79","1","2025-07-16 08:38:56","1f75c3e559b7213887762d5229550c2b","216.120.189.235","Mozilla/5.0 (Windows NT 10.0; Win64; x64) AppleWebKit/537.36 (KHTML, like Gecko) Chrome/138.0.0.0 Safari/537.36","WebKit","Chrome","138.0.0.0","Windows","10.0","https://app.prolific.com/","en-GB,en-US;q=0.9,en;q=0.8","667b366d0d0943e90dbee7d1","686e379bc37a29ffa5cdc956","687764994d3b1fd44ee5f343","1","1","667b366d0d0943e90dbee7d1","1","1","2025-07-16T08:48:32.572Z","","","","","","","","","","","StressQ","","50","","","","","","","","","","","","","","","","","","","","","","","","","","","","",""
"4303","","<div style=""width:500px;"">
  <p>What best describes how you currently feel?</p>
  </div>","64","html-slider-response","23","635625","0.0-5.0-4.2","79","1","2025-07-16 08:38:56","1f75c3e559b7213887762d5229550c2b","216.120.189.235","Mozilla/5.0 (Windows NT 10.0; Win64; x64) AppleWebKit/537.36 (KHTML, like Gecko) Chrome/138.0.0.0 Safari/537.36","WebKit","Chrome","138.0.0.0","Windows","10.0","https://app.prolific.com/","en-GB,en-US;q=0.9,en;q=0.8","667b366d0d0943e90dbee7d1","686e379bc37a29ffa5cdc956","687764994d3b1fd44ee5f343","1","1","667b366d0d0943e90dbee7d1","1","1","2025-07-16T08:48:36.877Z","","","","","","","","","","","MotivationQ","","50","","","","","","","","","","","","","","","","","","","","","","","","","","","","",""
"","","","","ctl-task-cpt","24","682101","0.0-5.0-0.3","79","1","2025-07-16 08:38:56","1f75c3e559b7213887762d5229550c2b","216.120.189.235","Mozilla/5.0 (Windows NT 10.0; Win64; x64) AppleWebKit/537.36 (KHTML, like Gecko) Chrome/138.0.0.0 Safari/537.36","WebKit","Chrome","138.0.0.0","Windows","10.0","https://app.prolific.com/","en-GB,en-US;q=0.9,en;q=0.8","667b366d0d0943e90dbee7d1","686e379bc37a29ffa5cdc956","687764994d3b1fd44ee5f343","1","1","667b366d0d0943e90dbee7d1","1","1","2025-07-16T08:49:23.353Z","","","","","","","","","","","","","","win-only","2","g1:SE,g2:NW","0.7","4","0","644104.3","3899.5","8902.4","43456.8","1","4","8","6","2","-8","-10","0","0","0","2451","3000","-2460","[""left"",""up""]","{""num_key_presses"":7,""num_perfect"":3,""num_errors"":2,""num_randdir"":2,""num_randdir_good_moves"":0,""num_whilered"":0,""num_whileblue"":1,""num_blue"":4,""num_good_moves"":4}","[413.57142857142856,413.1808016640799,0.4,413.57142857142856,413.1808016640799,100.8,413.57142857142856,413.1808016640799,201.7,413.57142857142856,413.1808016640799,305.4,413.57142857142856,413.1808016640799,406.6,413.57142857142856,413.1808016640799,507,413.57142857142856,413.1808016640799,607.1,413.57142857142856,413.1808016640799,708.1,413.57142857142856,413.1808016640799,819.8,413.57142857142856,413.1808016640799,922,413.57142857142856,413.1808016640799,1022.1,413.57142857142856,413.1808016640799,1126.7,413.57142857142856,413.1808016640799,1229.6,413.57142857142856,413.1808016640799,1331.8,413.57142857142856,413.1808016640799,1433.3,161.57142857142856,329.1808016640799,1536.7,-18.42857142857143,200.18080166407992,1637,-60.42857142857143,167.18080166407992,1737,-60.42857142857143,164.18080166407992,1841,26.57142857142857,104.18080166407994,1941.6,56.57142857142857,87.68080166407994,2042.1,56.57142857142857,86.18080166407994,2153.6,56.57142857142857,86.18080166407994,2254.1,56.57142857142857,86.18080166407994,2356.5,56.57142857142857,86.18080166407994,2462.6,56.57142857142857,86.18080166407994,2566.2,56.57142857142857,86.18080166407994,2672,56.57142857142857,86.18080166407994,2785.4,56.57142857142857,86.18080166407994,2895.9,56.57142857142857,86.18080166407994,2995.9,56.57142857142857,86.18080166407994,3097.5,56.57142857142857,86.18080166407994,3203.6,56.57142857142857,86.18080166407994,3306.6,56.57142857142857,86.18080166407994,3411.5,56.57142857142857,86.18080166407994,3519.3,56.57142857142857,86.18080166407994,3621.9,56.57142857142857,86.18080166407994,3723.2,56.57142857142857,86.18080166407994,3827.2,56.57142857142857,86.18080166407994,3933.4,56.57142857142857,86.18080166407994,4034.8,56.57142857142857,86.18080166407994,4135.3,56.57142857142857,86.18080166407994,4239.9,56.57142857142857,86.18080166407994,4341.2,56.57142857142857,86.18080166407994,4441.9,56.57142857142857,86.18080166407994,4546.7,56.57142857142857,86.18080166407994,4651.5,56.57142857142857,86.18080166407994,4757.1,56.57142857142857,86.18080166407994,4857.4,56.57142857142857,86.18080166407994,4969.1]","[367.3,367.3,1000,0,-632.7,""error"",""-"",""-"",""no_move"",14908.6,14541.1,2362.9,12113.5,432.2,""oops"",""left"",""down"",""bad_move"",18455.3,3546.2,2605.8,14909.1,940.4,""smooth"",""left"",""left"",""good_move"",21822.7,3367,2986.4,18455.7,380.6,""smooth"",""left"",""left"",""good_move"",24858.4,3035.5,2611.5,21822.9,424,""while_blue"",""left"",""left"",""good_move"",28475,3616.4,2731.6,24858.7,884.8,""smooth"",""up"",""up"",""good_move"",31852.9,3377.4,2527.7,28475.5,849.7,""oops"",""up"",""down"",""bad_move""]","",""
"15781","","<div style=""width:500px;"">
  <p>What determined the result of this run?</p>
  </div>","29","html-slider-response","25","697884","0.0-5.0-1.3","79","1","2025-07-16 08:38:56","1f75c3e559b7213887762d5229550c2b","216.120.189.235","Mozilla/5.0 (Windows NT 10.0; Win64; x64) AppleWebKit/537.36 (KHTML, like Gecko) Chrome/138.0.0.0 Safari/537.36","WebKit","Chrome","138.0.0.0","Windows","10.0","https://app.prolific.com/","en-GB,en-US;q=0.9,en;q=0.8","667b366d0d0943e90dbee7d1","686e379bc37a29ffa5cdc956","687764994d3b1fd44ee5f343","1","1","667b366d0d0943e90dbee7d1","1","1","2025-07-16T08:49:39.135Z","","","","","","","","","","","AttribQ","","50","","","","","","","","","","","","","","","","","","","","","","","","","","","","",""
"7250","","<div style=""width:500px;"">
  <p>How much control did you have over the ball?</p>
  </div>","25","html-slider-response","26","705137","0.0-5.0-2.3","79","1","2025-07-16 08:38:56","1f75c3e559b7213887762d5229550c2b","216.120.189.235","Mozilla/5.0 (Windows NT 10.0; Win64; x64) AppleWebKit/537.36 (KHTML, like Gecko) Chrome/138.0.0.0 Safari/537.36","WebKit","Chrome","138.0.0.0","Windows","10.0","https://app.prolific.com/","en-GB,en-US;q=0.9,en;q=0.8","667b366d0d0943e90dbee7d1","686e379bc37a29ffa5cdc956","687764994d3b1fd44ee5f343","1","1","667b366d0d0943e90dbee7d1","1","1","2025-07-16T08:49:46.388Z","","","","","","","","","","","ControlQ","","50","","","","","","","","","","","","","","","","","","","","","","","","","","","","",""
"3909","","<div style=""width:500px;"">
  <p>How would you describe your current emotional state?</p>
  </div>","50","html-slider-response","27","709047","0.0-5.0-3.3","79","1","2025-07-16 08:38:56","1f75c3e559b7213887762d5229550c2b","216.120.189.235","Mozilla/5.0 (Windows NT 10.0; Win64; x64) AppleWebKit/537.36 (KHTML, like Gecko) Chrome/138.0.0.0 Safari/537.36","WebKit","Chrome","138.0.0.0","Windows","10.0","https://app.prolific.com/","en-GB,en-US;q=0.9,en;q=0.8","667b366d0d0943e90dbee7d1","686e379bc37a29ffa5cdc956","687764994d3b1fd44ee5f343","1","1","667b366d0d0943e90dbee7d1","1","1","2025-07-16T08:49:50.299Z","","","","","","","","","","","StressQ","","50","","","","","","","","","","","","","","","","","","","","","","","","","","","","",""
"3448","","<div style=""width:500px;"">
  <p>What best describes how you currently feel?</p>
  </div>","50","html-slider-response","28","712496","0.0-5.0-4.3","79","1","2025-07-16 08:38:56","1f75c3e559b7213887762d5229550c2b","216.120.189.235","Mozilla/5.0 (Windows NT 10.0; Win64; x64) AppleWebKit/537.36 (KHTML, like Gecko) Chrome/138.0.0.0 Safari/537.36","WebKit","Chrome","138.0.0.0","Windows","10.0","https://app.prolific.com/","en-GB,en-US;q=0.9,en;q=0.8","667b366d0d0943e90dbee7d1","686e379bc37a29ffa5cdc956","687764994d3b1fd44ee5f343","1","1","667b366d0d0943e90dbee7d1","1","1","2025-07-16T08:49:53.748Z","","","","","","","","","","","MotivationQ","","50","","","","","","","","","","","","","","","","","","","","","","","","","","","","",""
"","","","","ctl-task-cpt","29","751703","0.0-5.0-0.4","79","1","2025-07-16 08:38:56","1f75c3e559b7213887762d5229550c2b","216.120.189.235","Mozilla/5.0 (Windows NT 10.0; Win64; x64) AppleWebKit/537.36 (KHTML, like Gecko) Chrome/138.0.0.0 Safari/537.36","WebKit","Chrome","138.0.0.0","Windows","10.0","https://app.prolific.com/","en-GB,en-US;q=0.9,en;q=0.8","667b366d0d0943e90dbee7d1","686e379bc37a29ffa5cdc956","687764994d3b1fd44ee5f343","1","1","667b366d0d0943e90dbee7d1","1","1","2025-07-16T08:50:32.954Z","","","","","","","","","","","","","","win-only","3","g1:SW,g2:NE","0.6","5","0","720976.9","2634.9","7649.8","36187.9","1","4","8","6","2","-8","-9","0","0","0","1630.4","3000","-2410","[""up"",""right""]","{""num_key_presses"":7,""num_perfect"":3,""num_errors"":1,""num_randdir"":3,""num_randdir_good_moves"":0,""num_whilered"":0,""num_whileblue"":0,""num_blue"":2,""num_good_moves"":1}","[407.57142857142856,419.1808016640799,0.2,407.57142857142856,419.1808016640799,100.9,407.57142857142856,419.1808016640799,201.3,407.57142857142856,419.1808016640799,310.4,407.57142857142856,419.1808016640799,415.7,407.57142857142856,419.1808016640799,521,407.57142857142856,419.1808016640799,629.3,421.07142857142856,413.1808016640799,731.3,575.5714285714286,284.1808016640799,831.5,652.0714285714286,218.18080166407992,935.5,686.5714285714286,173.18080166407992,1036.2,743.5714285714286,98.18080166407994,1147.5,746.5714285714286,96.68080166407994,1251.2,748.0714285714286,95.18080166407994,1356.7,749.5714285714286,95.18080166407994,1461.1,749.5714285714286,95.18080166407994,1567.3,749.5714285714286,95.18080166407994,1670.7,749.5714285714286,95.18080166407994,1784.6,749.5714285714286,95.18080166407994,1886.9,749.5714285714286,95.18080166407994,2014.8,749.5714285714286,95.18080166407994,2142.1,749.5714285714286,95.18080166407994,2260,749.5714285714286,95.18080166407994,2361.9,749.5714285714286,95.18080166407994,2462,749.5714285714286,95.18080166407994,2567.6,749.5714285714286,95.18080166407994,2675.4,749.5714285714286,95.18080166407994,2784.2,749.5714285714286,95.18080166407994,2895.2,763.0714285714286,104.18080166407994,3003.2,773.5714285714286,101.18080166407994,3116.6,773.5714285714286,101.18080166407994,3220.9,773.5714285714286,101.18080166407994,3325.7,773.5714285714286,101.18080166407994,3434,773.5714285714286,101.18080166407994,3540.4,773.5714285714286,101.18080166407994,3645,773.5714285714286,101.18080166407994,3745.9,773.5714285714286,101.18080166407994,3855.6,773.5714285714286,101.18080166407994,3957,773.5714285714286,101.18080166407994,4070.6,773.5714285714286,101.18080166407994,4173.1,773.5714285714286,101.18080166407994,4273.1,773.5714285714286,101.18080166407994,4380.2,773.5714285714286,101.18080166407994,4484.4,773.5714285714286,101.18080166407994,4600,773.5714285714286,101.18080166407994,4701.1,773.5714285714286,101.18080166407994,4820.8,773.5714285714286,101.18080166407994,4922.5]","[4472.1,4472.2,2013.8,2006.2,452.2,""oops"",""up"",""left"",""bad_move"",7941.9,3469,2343.5,4472.9,1125.5,""smooth"",""up"",""up"",""good_move"",10807.2,2864.6,2421.9,7942.6,442.7,""oops"",""up"",""left"",""bad_move"",13564.9,2757.3,2392.8,10807.6,364.5,""smooth"",""left"",""down"",""bad_move"",17139.5,3574.1,3061.7,13565.4,512.4,""oops"",""up"",""down"",""bad_move"",17894.9,755,2884.2,17139.9,-2129.2,""error"",""-"",""-"",""no_move"",26052.6,8157.5,2916.6,22671.8,464.2,""smooth"",""down"",""down"",""bad_move""]","",""
"5184","","<div style=""width:500px;"">
  <p>What determined the result of this run?</p>
  </div>","50","html-slider-response","30","756889","0.0-5.0-1.4","79","1","2025-07-16 08:38:56","1f75c3e559b7213887762d5229550c2b","216.120.189.235","Mozilla/5.0 (Windows NT 10.0; Win64; x64) AppleWebKit/537.36 (KHTML, like Gecko) Chrome/138.0.0.0 Safari/537.36","WebKit","Chrome","138.0.0.0","Windows","10.0","https://app.prolific.com/","en-GB,en-US;q=0.9,en;q=0.8","667b366d0d0943e90dbee7d1","686e379bc37a29ffa5cdc956","687764994d3b1fd44ee5f343","1","1","667b366d0d0943e90dbee7d1","1","1","2025-07-16T08:50:38.141Z","","","","","","","","","","","AttribQ","","50","","","","","","","","","","","","","","","","","","","","","","","","","","","","",""
"2894","","<div style=""width:500px;"">
  <p>How much control did you have over the ball?</p>
  </div>","50","html-slider-response","31","759786","0.0-5.0-2.4","79","1","2025-07-16 08:38:56","1f75c3e559b7213887762d5229550c2b","216.120.189.235","Mozilla/5.0 (Windows NT 10.0; Win64; x64) AppleWebKit/537.36 (KHTML, like Gecko) Chrome/138.0.0.0 Safari/537.36","WebKit","Chrome","138.0.0.0","Windows","10.0","https://app.prolific.com/","en-GB,en-US;q=0.9,en;q=0.8","667b366d0d0943e90dbee7d1","686e379bc37a29ffa5cdc956","687764994d3b1fd44ee5f343","1","1","667b366d0d0943e90dbee7d1","1","1","2025-07-16T08:50:41.037Z","","","","","","","","","","","ControlQ","","50","","","","","","","","","","","","","","","","","","","","","","","","","","","","",""
"2582","","<div style=""width:500px;"">
  <p>How would you describe your current emotional state?</p>
  </div>","50","html-slider-response","32","762369","0.0-5.0-3.4","79","1","2025-07-16 08:38:56","1f75c3e559b7213887762d5229550c2b","216.120.189.235","Mozilla/5.0 (Windows NT 10.0; Win64; x64) AppleWebKit/537.36 (KHTML, like Gecko) Chrome/138.0.0.0 Safari/537.36","WebKit","Chrome","138.0.0.0","Windows","10.0","https://app.prolific.com/","en-GB,en-US;q=0.9,en;q=0.8","667b366d0d0943e90dbee7d1","686e379bc37a29ffa5cdc956","687764994d3b1fd44ee5f343","1","1","667b366d0d0943e90dbee7d1","1","1","2025-07-16T08:50:43.620Z","","","","","","","","","","","StressQ","","50","","","","","","","","","","","","","","","","","","","","","","","","","","","","",""
"3064","","<div style=""width:500px;"">
  <p>What best describes how you currently feel?</p>
  </div>","50","html-slider-response","33","765434","0.0-5.0-4.4","79","1","2025-07-16 08:38:56","1f75c3e559b7213887762d5229550c2b","216.120.189.235","Mozilla/5.0 (Windows NT 10.0; Win64; x64) AppleWebKit/537.36 (KHTML, like Gecko) Chrome/138.0.0.0 Safari/537.36","WebKit","Chrome","138.0.0.0","Windows","10.0","https://app.prolific.com/","en-GB,en-US;q=0.9,en;q=0.8","667b366d0d0943e90dbee7d1","686e379bc37a29ffa5cdc956","687764994d3b1fd44ee5f343","1","1","667b366d0d0943e90dbee7d1","1","1","2025-07-16T08:50:46.685Z","","","","","","","","","","","MotivationQ","","50","","","","","","","","","","","","","","","","","","","","","","","","","","","","",""
"","","","","ctl-task-cpt","34","813111","0.0-5.0-0.5","79","1","2025-07-16 08:38:56","1f75c3e559b7213887762d5229550c2b","216.120.189.235","Mozilla/5.0 (Windows NT 10.0; Win64; x64) AppleWebKit/537.36 (KHTML, like Gecko) Chrome/138.0.0.0 Safari/537.36","WebKit","Chrome","138.0.0.0","Windows","10.0","https://app.prolific.com/","en-GB,en-US;q=0.9,en;q=0.8","667b366d0d0943e90dbee7d1","686e379bc37a29ffa5cdc956","687764994d3b1fd44ee5f343","1","1","667b366d0d0943e90dbee7d1","1","1","2025-07-16T08:51:34.362Z","","","","","","","","","","","","","","win-only","3","g1:SW,g2:NE","0.5","6","0","773914.9","1452.6","6456.4","44655.6","1","4","4","6","2","-4","-4","0","0","0","2463.9","3000","-2185","[""up"",""right""]","{""num_key_presses"":8,""num_perfect"":4,""num_errors"":0,""num_randdir"":4,""num_randdir_good_moves"":2,""num_whilered"":0,""num_whileblue"":0,""num_blue"":4,""num_good_moves"":6}","[416.57142857142856,417.6808016640799,0.7,416.57142857142856,417.6808016640799,101.5,416.57142857142856,417.6808016640799,201.6,416.57142857142856,417.6808016640799,337.1,416.57142857142856,417.6808016640799,455.4,416.57142857142856,417.6808016640799,558,416.57142857142856,417.6808016640799,662.7,416.57142857142856,417.6808016640799,764.1,416.57142857142856,417.6808016640799,869.3,416.57142857142856,417.6808016640799,982.5,416.57142857142856,417.6808016640799,1083.1,416.57142857142856,417.6808016640799,1184.4,416.57142857142856,417.6808016640799,1284.5,416.57142857142856,417.6808016640799,1388.1,416.57142857142856,417.6808016640799,1488.8,716.5714285714286,135.68080166407992,1589.1,761.5714285714286,116.18080166407994,1689.3,758.5714285714286,110.18080166407994,1793.5,763.0714285714286,26.180801664079937,1897.7,763.0714285714286,26.180801664079937,1997.8,763.0714285714286,27.680801664079937,2098.8,763.0714285714286,32.18080166407994,2199.1,763.0714285714286,35.18080166407994,2303.5,763.0714285714286,35.18080166407994,2408.1,763.0714285714286,35.18080166407994,2513.4,763.0714285714286,35.18080166407994,2614.8,763.0714285714286,35.18080166407994,2718.2,763.0714285714286,35.18080166407994,2819.8,763.0714285714286,35.18080166407994,2924,763.0714285714286,35.18080166407994,3027.4,763.0714285714286,35.18080166407994,3128.1,763.0714285714286,35.18080166407994,3229.7,763.0714285714286,35.18080166407994,3334.3,763.0714285714286,35.18080166407994,3438.7,763.0714285714286,35.18080166407994,3544.7,763.0714285714286,35.18080166407994,3656.3,763.0714285714286,35.18080166407994,3760,763.0714285714286,35.18080166407994,3862.9,763.0714285714286,35.18080166407994,3963.4,763.0714285714286,35.18080166407994,4067.8,763.0714285714286,35.18080166407994,4168.2,763.0714285714286,35.18080166407994,4269.1,763.0714285714286,35.18080166407994,4378.5,763.0714285714286,35.18080166407994,4479.2,763.0714285714286,35.18080166407994,4584.2,763.0714285714286,35.18080166407994,4697.1,763.0714285714286,35.18080166407994,4797.6,763.0714285714286,35.18080166407994,4897.7]","[1608.7,1608.7,1000,0,608.7,""smooth"",""up"",""up"",""good_move"",4645.3,3035.6,2604.3,1609.7,431.3,""smooth"",""right"",""right"",""good_move"",10876.4,6230.6,1980.6,8429.4,466.4,""oops"",""right"",""right"",""good_move"",19840,8963.3,1688.5,17659.7,491.8,""oops"",""right"",""down"",""bad_move"",22569.1,2728.5,2229.8,19840.6,498.7,""smooth"",""right"",""right"",""good_move"",25643.5,3074.1,2646.8,22569.4,427.3,""oops"",""up"",""up"",""good_move"",29091.1,3446.9,2842.9,25644.2,604,""oops"",""up"",""left"",""bad_move"",31666.4,2574.8,2105.7,29091.6,469.1,""smooth"",""up"",""up"",""good_move""]","",""
"27370","","<div style=""width:500px;"">
  <p>What determined the result of this run?</p>
  </div>","49","html-slider-response","35","840482","0.0-5.0-1.5","79","1","2025-07-16 08:38:56","1f75c3e559b7213887762d5229550c2b","216.120.189.235","Mozilla/5.0 (Windows NT 10.0; Win64; x64) AppleWebKit/537.36 (KHTML, like Gecko) Chrome/138.0.0.0 Safari/537.36","WebKit","Chrome","138.0.0.0","Windows","10.0","https://app.prolific.com/","en-GB,en-US;q=0.9,en;q=0.8","667b366d0d0943e90dbee7d1","686e379bc37a29ffa5cdc956","687764994d3b1fd44ee5f343","1","1","667b366d0d0943e90dbee7d1","1","1","2025-07-16T08:52:01.733Z","","","","","","","","","","","AttribQ","","50","","","","","","","","","","","","","","","","","","","","","","","","","","","","",""
"5252","","<div style=""width:500px;"">
  <p>How much control did you have over the ball?</p>
  </div>","39","html-slider-response","36","845736","0.0-5.0-2.5","79","1","2025-07-16 08:38:56","1f75c3e559b7213887762d5229550c2b","216.120.189.235","Mozilla/5.0 (Windows NT 10.0; Win64; x64) AppleWebKit/537.36 (KHTML, like Gecko) Chrome/138.0.0.0 Safari/537.36","WebKit","Chrome","138.0.0.0","Windows","10.0","https://app.prolific.com/","en-GB,en-US;q=0.9,en;q=0.8","667b366d0d0943e90dbee7d1","686e379bc37a29ffa5cdc956","687764994d3b1fd44ee5f343","1","1","667b366d0d0943e90dbee7d1","1","1","2025-07-16T08:52:06.987Z","","","","","","","","","","","ControlQ","","50","","","","","","","","","","","","","","","","","","","","","","","","","","","","",""
"3312","","<div style=""width:500px;"">
  <p>How would you describe your current emotional state?</p>
  </div>","49","html-slider-response","37","849048","0.0-5.0-3.5","79","1","2025-07-16 08:38:56","1f75c3e559b7213887762d5229550c2b","216.120.189.235","Mozilla/5.0 (Windows NT 10.0; Win64; x64) AppleWebKit/537.36 (KHTML, like Gecko) Chrome/138.0.0.0 Safari/537.36","WebKit","Chrome","138.0.0.0","Windows","10.0","https://app.prolific.com/","en-GB,en-US;q=0.9,en;q=0.8","667b366d0d0943e90dbee7d1","686e379bc37a29ffa5cdc956","687764994d3b1fd44ee5f343","1","1","667b366d0d0943e90dbee7d1","1","1","2025-07-16T08:52:10.300Z","","","","","","","","","","","StressQ","","50","","","","","","","","","","","","","","","","","","","","","","","","","","","","",""
"1725","","<div style=""width:500px;"">
  <p>What best describes how you currently feel?</p>
  </div>","52","html-slider-response","38","850775","0.0-5.0-4.5","79","1","2025-07-16 08:38:56","1f75c3e559b7213887762d5229550c2b","216.120.189.235","Mozilla/5.0 (Windows NT 10.0; Win64; x64) AppleWebKit/537.36 (KHTML, like Gecko) Chrome/138.0.0.0 Safari/537.36","WebKit","Chrome","138.0.0.0","Windows","10.0","https://app.prolific.com/","en-GB,en-US;q=0.9,en;q=0.8","667b366d0d0943e90dbee7d1","686e379bc37a29ffa5cdc956","687764994d3b1fd44ee5f343","1","1","667b366d0d0943e90dbee7d1","1","1","2025-07-16T08:52:12.026Z","","","","","","","","","","","MotivationQ","","50","","","","","","","","","","","","","","","","","","","","","","","","","","","","",""
"","","","","ctl-task-cpt","39","884331","0.0-5.0-0.6","79","1","2025-07-16 08:38:56","1f75c3e559b7213887762d5229550c2b","216.120.189.235","Mozilla/5.0 (Windows NT 10.0; Win64; x64) AppleWebKit/537.36 (KHTML, like Gecko) Chrome/138.0.0.0 Safari/537.36","WebKit","Chrome","138.0.0.0","Windows","10.0","https://app.prolific.com/","en-GB,en-US;q=0.9,en;q=0.8","667b366d0d0943e90dbee7d1","686e379bc37a29ffa5cdc956","687764994d3b1fd44ee5f343","1","1","667b366d0d0943e90dbee7d1","1","1","2025-07-16T08:52:45.582Z","","","","","","","","","","","","","","win-only","1","g1:NE,g2:SW","0.4","7","0","859255","6053.7","11056.1","30526.3","1","4","4","6","2","4","4","4","0","0.030303030303030304","2298.8","3000","1170","[""down"",""left""]","{""num_key_presses"":6,""num_perfect"":4,""num_errors"":0,""num_randdir"":2,""num_randdir_good_moves"":2,""num_whilered"":0,""num_whileblue"":0,""num_blue"":1,""num_good_moves"":6}","[406.07142857142856,419.1808016640799,1,406.07142857142856,419.1808016640799,106.5,406.07142857142856,419.1808016640799,232.6,406.07142857142856,419.1808016640799,336.3,406.07142857142856,419.1808016640799,437.4,406.07142857142856,419.1808016640799,543,406.07142857142856,419.1808016640799,644.7,406.07142857142856,419.1808016640799,747.7,406.07142857142856,419.1808016640799,858.5,406.07142857142856,419.1808016640799,959.1,406.07142857142856,419.1808016640799,1063,406.07142857142856,419.1808016640799,1175.1,406.07142857142856,419.1808016640799,1284.5,406.07142857142856,419.1808016640799,1396.9,338.57142857142856,437.1808016640799,1498.8,194.57142857142856,497.1808016640799,1602.2,56.57142857142857,698.1808016640799,1715.6,53.57142857142857,722.1808016640799,1826.3,65.57142857142857,755.1808016640799,1928.2,65.57142857142857,761.1808016640799,2030.6,65.57142857142857,767.1808016640799,2132.1,65.57142857142857,767.1808016640799,2240.7,65.57142857142857,767.1808016640799,2342,65.57142857142857,767.1808016640799,2460.9,65.57142857142857,767.1808016640799,2565,65.57142857142857,767.1808016640799,2665,65.57142857142857,767.1808016640799,2767.4,65.57142857142857,767.1808016640799,2867.4,65.57142857142857,767.1808016640799,2968.3,65.57142857142857,767.1808016640799,3070.1,65.57142857142857,767.1808016640799,3175.6,65.57142857142857,767.1808016640799,3277.3,65.57142857142857,767.1808016640799,3380.1,65.57142857142857,767.1808016640799,3484.1,65.57142857142857,767.1808016640799,3592,65.57142857142857,767.1808016640799,3696.8,65.57142857142857,767.1808016640799,3799.1,65.57142857142857,767.1808016640799,3903.2,65.57142857142857,767.1808016640799,4016.6,65.57142857142857,767.1808016640799,4116.7,65.57142857142857,767.1808016640799,4217.7,65.57142857142857,767.1808016640799,4329.9,65.57142857142857,767.1808016640799,4433.3,65.57142857142857,767.1808016640799,4542.4,65.57142857142857,767.1808016640799,4643.7,65.57142857142857,767.1808016640799,4744.9,65.57142857142857,767.1808016640799,4847.1,65.57142857142857,767.1808016640799,4952.9]","[5500.6,5500.6,3064.8,2006.8,429,""oops"",""down"",""down"",""good_move"",8192.8,2691.7,2246.1,5501.1,445.6,""smooth"",""down"",""down"",""good_move"",10605.6,2412.6,2024,8193.1,388.5,""smooth"",""down"",""down"",""good_move"",13480.6,2874.8,2399.9,10605.9,474.8,""smooth"",""left"",""left"",""good_move"",16835,3354,2876,13481,478,""oops"",""left"",""left"",""good_move"",19347.8,2512.6,2120.9,16835.2,391.7,""smooth"",""left"",""left"",""good_move""]","",""
"5387","","<div style=""width:500px;"">
  <p>What determined the result of this run?</p>
  </div>","50","html-slider-response","40","889720","0.0-5.0-1.6","79","1","2025-07-16 08:38:56","1f75c3e559b7213887762d5229550c2b","216.120.189.235","Mozilla/5.0 (Windows NT 10.0; Win64; x64) AppleWebKit/537.36 (KHTML, like Gecko) Chrome/138.0.0.0 Safari/537.36","WebKit","Chrome","138.0.0.0","Windows","10.0","https://app.prolific.com/","en-GB,en-US;q=0.9,en;q=0.8","667b366d0d0943e90dbee7d1","686e379bc37a29ffa5cdc956","687764994d3b1fd44ee5f343","1","1","667b366d0d0943e90dbee7d1","1","1","2025-07-16T08:52:50.971Z","","","","","","","","","","","AttribQ","","50","","","","","","","","","","","","","","","","","","","","","","","","","","","","",""
"3634","","<div style=""width:500px;"">
  <p>How much control did you have over the ball?</p>
  </div>","50","html-slider-response","41","893356","0.0-5.0-2.6","79","1","2025-07-16 08:38:56","1f75c3e559b7213887762d5229550c2b","216.120.189.235","Mozilla/5.0 (Windows NT 10.0; Win64; x64) AppleWebKit/537.36 (KHTML, like Gecko) Chrome/138.0.0.0 Safari/537.36","WebKit","Chrome","138.0.0.0","Windows","10.0","https://app.prolific.com/","en-GB,en-US;q=0.9,en;q=0.8","667b366d0d0943e90dbee7d1","686e379bc37a29ffa5cdc956","687764994d3b1fd44ee5f343","1","1","667b366d0d0943e90dbee7d1","1","1","2025-07-16T08:52:54.607Z","","","","","","","","","","","ControlQ","","50","","","","","","","","","","","","","","","","","","","","","","","","","","","","",""
"4762","","<div style=""width:500px;"">
  <p>How would you describe your current emotional state?</p>
  </div>","50","html-slider-response","42","898120","0.0-5.0-3.6","79","1","2025-07-16 08:38:56","1f75c3e559b7213887762d5229550c2b","216.120.189.235","Mozilla/5.0 (Windows NT 10.0; Win64; x64) AppleWebKit/537.36 (KHTML, like Gecko) Chrome/138.0.0.0 Safari/537.36","WebKit","Chrome","138.0.0.0","Windows","10.0","https://app.prolific.com/","en-GB,en-US;q=0.9,en;q=0.8","667b366d0d0943e90dbee7d1","686e379bc37a29ffa5cdc956","687764994d3b1fd44ee5f343","1","1","667b366d0d0943e90dbee7d1","1","1","2025-07-16T08:52:59.371Z","","","","","","","","","","","StressQ","","50","","","","","","","","","","","","","","","","","","","","","","","","","","","","",""
"28623","","<div style=""width:500px;"">
  <p>What best describes how you currently feel?</p>
  </div>","50","html-slider-response","43","926744","0.0-5.0-4.6","79","1","2025-07-16 08:38:56","1f75c3e559b7213887762d5229550c2b","216.120.189.235","Mozilla/5.0 (Windows NT 10.0; Win64; x64) AppleWebKit/537.36 (KHTML, like Gecko) Chrome/138.0.0.0 Safari/537.36","WebKit","Chrome","138.0.0.0","Windows","10.0","https://app.prolific.com/","en-GB,en-US;q=0.9,en;q=0.8","667b366d0d0943e90dbee7d1","686e379bc37a29ffa5cdc956","687764994d3b1fd44ee5f343","1","1","667b366d0d0943e90dbee7d1","1","1","2025-07-16T08:53:27.995Z","","","","","","","","","","","MotivationQ","","50","","","","","","","","","","","","","","","","","","","","","","","","","","","","",""
"","","","","ctl-task-cpt","44","974629","0.0-5.0-0.7","79","1","2025-07-16 08:38:56","1f75c3e559b7213887762d5229550c2b","216.120.189.235","Mozilla/5.0 (Windows NT 10.0; Win64; x64) AppleWebKit/537.36 (KHTML, like Gecko) Chrome/138.0.0.0 Safari/537.36","WebKit","Chrome","138.0.0.0","Windows","10.0","https://app.prolific.com/","en-GB,en-US;q=0.9,en;q=0.8","667b366d0d0943e90dbee7d1","686e379bc37a29ffa5cdc956","687764994d3b1fd44ee5f343","1","1","667b366d0d0943e90dbee7d1","1","1","2025-07-16T08:54:15.880Z","","","","","","","","","","","","","","win-only","1","g1:NE,g2:SW","0.3","8","0","935224.8","13791","18796.3","44855.7","1","4","8","6","2","-8","-8","0","4","0","1600.5","3000","-2055","[""down"",""left""]","{""num_key_presses"":8,""num_perfect"":2,""num_errors"":0,""num_randdir"":6,""num_randdir_good_moves"":1,""num_whilered"":0,""num_whileblue"":0,""num_blue"":0,""num_good_moves"":3}","[409.07142857142856,416.1808016640799,0.4,409.07142857142856,416.1808016640799,105.5,409.07142857142856,416.1808016640799,212.8,409.07142857142856,416.1808016640799,325.4,409.07142857142856,416.1808016640799,429.8,409.07142857142856,416.1808016640799,536.8,409.07142857142856,416.1808016640799,640.2,409.07142857142856,416.1808016640799,758.4,209.57142857142856,591.6808016640799,863.2,92.57142857142857,678.6808016640799,980.2,32.57142857142857,792.6808016640799,1088.4,26.57142857142857,803.1808016640799,1196.7,26.57142857142857,803.1808016640799,1304.5,26.57142857142857,800.1808016640799,1406.4,26.57142857142857,800.1808016640799,1512.9,26.57142857142857,800.1808016640799,1618.8,26.57142857142857,800.1808016640799,1726.1,26.57142857142857,800.1808016640799,1828.7,26.57142857142857,800.1808016640799,1930.5,26.57142857142857,800.1808016640799,2036.3,26.57142857142857,800.1808016640799,2139.9,26.57142857142857,800.1808016640799,2240.2,26.57142857142857,800.1808016640799,2354.9,26.57142857142857,800.1808016640799,2470.5,26.57142857142857,800.1808016640799,2572.4,26.57142857142857,800.1808016640799,2672.8,26.57142857142857,800.1808016640799,2789,26.57142857142857,800.1808016640799,2890.4,26.57142857142857,800.1808016640799,2994.9,26.57142857142857,800.1808016640799,3103.3,26.57142857142857,800.1808016640799,3205.1,26.57142857142857,800.1808016640799,3310.2,26.57142857142857,800.1808016640799,3422.9,26.57142857142857,800.1808016640799,3527,26.57142857142857,800.1808016640799,3627.1,26.57142857142857,800.1808016640799,3746.1,26.57142857142857,800.1808016640799,3850.3,26.57142857142857,800.1808016640799,3951.8,26.57142857142857,800.1808016640799,4055.1,26.57142857142857,800.1808016640799,4162.8,26.57142857142857,800.1808016640799,4263.6,26.57142857142857,800.1808016640799,4370.1,26.57142857142857,800.1808016640799,4471.1,26.57142857142857,800.1808016640799,4580.8,26.57142857142857,800.1808016640799,4684.8,26.57142857142857,800.1808016640799,4784.9,26.57142857142857,800.1808016640799,4884.9,26.57142857142857,800.1808016640799,4984.9]","[1805.7,1805.7,1000,0,805.7,""oops"",""down"",""left"",""good_move"",4453.1,2646.1,2174.5,1807,471.6,""smooth"",""down"",""down"",""good_move"",7576.2,3122.5,2715.4,4453.7,407.1,""oops"",""down"",""right"",""bad_move"",10800.6,3223.9,2846.1,7576.8,377.8,""smooth"",""left"",""left"",""good_move"",14199.6,3398.5,2931.9,10801.1,466.6,""oops"",""left"",""right"",""bad_move"",16622.8,2422.9,1921.1,14199.9,501.8,""oops"",""down"",""up"",""bad_move"",19923.9,3300.4,2553.6,16623.5,746.8,""oops"",""down"",""right"",""bad_move"",23178.2,3253.9,2408.1,19924.3,845.8,""oops"",""down"",""right"",""bad_move""]","",""
"8417","","<div style=""width:500px;"">
  <p>What determined the result of this run?</p>
  </div>","48","html-slider-response","45","983048","0.0-5.0-1.7","79","1","2025-07-16 08:38:56","1f75c3e559b7213887762d5229550c2b","216.120.189.235","Mozilla/5.0 (Windows NT 10.0; Win64; x64) AppleWebKit/537.36 (KHTML, like Gecko) Chrome/138.0.0.0 Safari/537.36","WebKit","Chrome","138.0.0.0","Windows","10.0","https://app.prolific.com/","en-GB,en-US;q=0.9,en;q=0.8","667b366d0d0943e90dbee7d1","686e379bc37a29ffa5cdc956","687764994d3b1fd44ee5f343","1","1","667b366d0d0943e90dbee7d1","1","1","2025-07-16T08:54:24.299Z","","","","","","","","","","","AttribQ","","50","","","","","","","","","","","","","","","","","","","","","","","","","","","","",""
"3540","","<div style=""width:500px;"">
  <p>How much control did you have over the ball?</p>
  </div>","50","html-slider-response","46","986590","0.0-5.0-2.7","79","1","2025-07-16 08:38:56","1f75c3e559b7213887762d5229550c2b","216.120.189.235","Mozilla/5.0 (Windows NT 10.0; Win64; x64) AppleWebKit/537.36 (KHTML, like Gecko) Chrome/138.0.0.0 Safari/537.36","WebKit","Chrome","138.0.0.0","Windows","10.0","https://app.prolific.com/","en-GB,en-US;q=0.9,en;q=0.8","667b366d0d0943e90dbee7d1","686e379bc37a29ffa5cdc956","687764994d3b1fd44ee5f343","1","1","667b366d0d0943e90dbee7d1","1","1","2025-07-16T08:54:27.841Z","","","","","","","","","","","ControlQ","","50","","","","","","","","","","","","","","","","","","","","","","","","","","","","",""
"3298","","<div style=""width:500px;"">
  <p>How would you describe your current emotional state?</p>
  </div>","50","html-slider-response","47","989889","0.0-5.0-3.7","79","1","2025-07-16 08:38:56","1f75c3e559b7213887762d5229550c2b","216.120.189.235","Mozilla/5.0 (Windows NT 10.0; Win64; x64) AppleWebKit/537.36 (KHTML, like Gecko) Chrome/138.0.0.0 Safari/537.36","WebKit","Chrome","138.0.0.0","Windows","10.0","https://app.prolific.com/","en-GB,en-US;q=0.9,en;q=0.8","667b366d0d0943e90dbee7d1","686e379bc37a29ffa5cdc956","687764994d3b1fd44ee5f343","1","1","667b366d0d0943e90dbee7d1","1","1","2025-07-16T08:54:31.140Z","","","","","","","","","","","StressQ","","50","","","","","","","","","","","","","","","","","","","","","","","","","","","","",""
"4111","","<div style=""width:500px;"">
  <p>What best describes how you currently feel?</p>
  </div>","50","html-slider-response","48","994002","0.0-5.0-4.7","79","1","2025-07-16 08:38:56","1f75c3e559b7213887762d5229550c2b","216.120.189.235","Mozilla/5.0 (Windows NT 10.0; Win64; x64) AppleWebKit/537.36 (KHTML, like Gecko) Chrome/138.0.0.0 Safari/537.36","WebKit","Chrome","138.0.0.0","Windows","10.0","https://app.prolific.com/","en-GB,en-US;q=0.9,en;q=0.8","667b366d0d0943e90dbee7d1","686e379bc37a29ffa5cdc956","687764994d3b1fd44ee5f343","1","1","667b366d0d0943e90dbee7d1","1","1","2025-07-16T08:54:35.253Z","","","","","","","","","","","MotivationQ","","50","","","","","","","","","","","","","","","","","","","","","","","","","","","","",""
"","","","","ctl-task-cpt","49","1029648","0.0-5.0-0.8","79","1","2025-07-16 08:38:56","1f75c3e559b7213887762d5229550c2b","216.120.189.235","Mozilla/5.0 (Windows NT 10.0; Win64; x64) AppleWebKit/537.36 (KHTML, like Gecko) Chrome/138.0.0.0 Safari/537.36","WebKit","Chrome","138.0.0.0","Windows","10.0","https://app.prolific.com/","en-GB,en-US;q=0.9,en;q=0.8","667b366d0d0943e90dbee7d1","686e379bc37a29ffa5cdc956","687764994d3b1fd44ee5f343","1","1","667b366d0d0943e90dbee7d1","1","1","2025-07-16T08:55:10.899Z","","","","","","","","","","","","","","win-only","2","g1:SE,g2:NW","0.2","9","0","1002484.9","1864.7","6867.1","32611.4","1","4","4","6","2","-4","-5","0","0","0","1438.9","3000","-1865","[""left"",""up""]","{""num_key_presses"":9,""num_perfect"":1,""num_errors"":1,""num_randdir"":7,""num_randdir_good_moves"":4,""num_whilered"":0,""num_whileblue"":0,""num_blue"":0,""num_good_moves"":5}","[409.07142857142856,413.1808016640799,0.5,409.07142857142856,413.1808016640799,100.1,409.07142857142856,413.1808016640799,200.8,409.07142857142856,413.1808016640799,304.2,409.07142857142856,413.1808016640799,404.7,409.07142857142856,413.1808016640799,515.2,409.07142857142856,413.1808016640799,624.1,341.57142857142856,339.6808016640799,726.3,95.57142857142857,75.68080166407994,834.3,70.07142857142857,54.68080166407994,939.1,73.07142857142857,54.68080166407994,1048.6,76.07142857142857,59.18080166407994,1151.2,77.57142857142857,60.68080166407994,1251.4,77.57142857142857,60.68080166407994,1351.8,77.57142857142857,60.68080166407994,1459.8,77.57142857142857,60.68080166407994,1571.5,77.57142857142857,60.68080166407994,1671.6,77.57142857142857,60.68080166407994,1772.9,110.57142857142857,95.18080166407994,1873.5,266.57142857142856,246.68080166407992,1976.9,302.57142857142856,299.1808016640799,2082.3,302.57142857142856,311.1808016640799,2186.4,302.57142857142856,311.1808016640799,2287.3,302.57142857142856,311.1808016640799,2388.1,302.57142857142856,311.1808016640799,2492.5,302.57142857142856,311.1808016640799,2597.6,302.57142857142856,311.1808016640799,2702.6,302.57142857142856,311.1808016640799,2807,302.57142857142856,311.1808016640799,2913.3,302.57142857142856,311.1808016640799,3017.3,302.57142857142856,311.1808016640799,3121.7,302.57142857142856,311.1808016640799,3228.4,302.57142857142856,311.1808016640799,3335,302.57142857142856,311.1808016640799,3436.6,302.57142857142856,311.1808016640799,3552,302.57142857142856,311.1808016640799,3656.5,302.57142857142856,311.1808016640799,3757.6,302.57142857142856,311.1808016640799,3862.7,302.57142857142856,311.1808016640799,3972,302.57142857142856,311.1808016640799,4077.9,302.57142857142856,311.1808016640799,4178.2,302.57142857142856,311.1808016640799,4286.5,302.57142857142856,311.1808016640799,4401.5,302.57142857142856,311.1808016640799,4501.9,302.57142857142856,311.1808016640799,4607.4,302.57142857142856,311.1808016640799,4711.4,302.57142857142856,311.1808016640799,4812.5,302.57142857142856,311.1808016640799,4918.2]","[1456.6,1456.6,1000,0,456.6,""oops"",""up"",""down"",""bad_move"",4245.6,2788.5,2346.4,1457.1,442.1,""oops"",""left"",""left"",""good_move"",7571.8,3325.7,2806,4246.1,519.7,""oops"",""left"",""left"",""good_move"",10236.9,2664.9,2114.1,7572.1,550.8,""oops"",""left"",""down"",""bad_move"",12853,2615.3,1902.7,10237.7,712.6,""smooth"",""left"",""left"",""good_move"",15437.3,2583.9,2229,12853.4,354.9,""oops"",""down"",""up"",""good_move"",18278.7,2840.6,2306.8,15438.1,533.8,""oops"",""up"",""down"",""bad_move"",18861.2,582,2209.5,18279.2,-1627.5,""error"",""-"",""-"",""no_move"",22943.8,4082.2,2101.9,19865.9,976,""oops"",""up"",""up"",""good_move""]","",""
"36051","","<div style=""width:500px;"">
  <p>What determined the result of this run?</p>
  </div>","50","html-slider-response","50","1065701","0.0-5.0-1.8","79","1","2025-07-16 08:38:56","1f75c3e559b7213887762d5229550c2b","216.120.189.235","Mozilla/5.0 (Windows NT 10.0; Win64; x64) AppleWebKit/537.36 (KHTML, like Gecko) Chrome/138.0.0.0 Safari/537.36","WebKit","Chrome","138.0.0.0","Windows","10.0","https://app.prolific.com/","en-GB,en-US;q=0.9,en;q=0.8","667b366d0d0943e90dbee7d1","686e379bc37a29ffa5cdc956","687764994d3b1fd44ee5f343","1","1","667b366d0d0943e90dbee7d1","1","1","2025-07-16T08:55:46.952Z","","","","","","","","","","","AttribQ","","50","","","","","","","","","","","","","","","","","","","","","","","","","","","","",""
"2908","","<div style=""width:500px;"">
  <p>How much control did you have over the ball?</p>
  </div>","50","html-slider-response","51","1068610","0.0-5.0-2.8","79","1","2025-07-16 08:38:56","1f75c3e559b7213887762d5229550c2b","216.120.189.235","Mozilla/5.0 (Windows NT 10.0; Win64; x64) AppleWebKit/537.36 (KHTML, like Gecko) Chrome/138.0.0.0 Safari/537.36","WebKit","Chrome","138.0.0.0","Windows","10.0","https://app.prolific.com/","en-GB,en-US;q=0.9,en;q=0.8","667b366d0d0943e90dbee7d1","686e379bc37a29ffa5cdc956","687764994d3b1fd44ee5f343","1","1","667b366d0d0943e90dbee7d1","1","1","2025-07-16T08:55:49.861Z","","","","","","","","","","","ControlQ","","50","","","","","","","","","","","","","","","","","","","","","","","","","","","","",""
"3061","","<div style=""width:500px;"">
  <p>How would you describe your current emotional state?</p>
  </div>","50","html-slider-response","52","1071672","0.0-5.0-3.8","79","1","2025-07-16 08:38:56","1f75c3e559b7213887762d5229550c2b","216.120.189.235","Mozilla/5.0 (Windows NT 10.0; Win64; x64) AppleWebKit/537.36 (KHTML, like Gecko) Chrome/138.0.0.0 Safari/537.36","WebKit","Chrome","138.0.0.0","Windows","10.0","https://app.prolific.com/","en-GB,en-US;q=0.9,en;q=0.8","667b366d0d0943e90dbee7d1","686e379bc37a29ffa5cdc956","687764994d3b1fd44ee5f343","1","1","667b366d0d0943e90dbee7d1","1","1","2025-07-16T08:55:52.924Z","","","","","","","","","","","StressQ","","50","","","","","","","","","","","","","","","","","","","","","","","","","","","","",""
"2902","","<div style=""width:500px;"">
  <p>What best describes how you currently feel?</p>
  </div>","50","html-slider-response","53","1074577","0.0-5.0-4.8","79","1","2025-07-16 08:38:56","1f75c3e559b7213887762d5229550c2b","216.120.189.235","Mozilla/5.0 (Windows NT 10.0; Win64; x64) AppleWebKit/537.36 (KHTML, like Gecko) Chrome/138.0.0.0 Safari/537.36","WebKit","Chrome","138.0.0.0","Windows","10.0","https://app.prolific.com/","en-GB,en-US;q=0.9,en;q=0.8","667b366d0d0943e90dbee7d1","686e379bc37a29ffa5cdc956","687764994d3b1fd44ee5f343","1","1","667b366d0d0943e90dbee7d1","1","1","2025-07-16T08:55:55.828Z","","","","","","","","","","","MotivationQ","","50","","","","","","","","","","","","","","","","","","","","","","","","","","","","",""
"","","","","ctl-task-cpt","54","1118564","0.0-5.0-0.9","79","1","2025-07-16 08:38:56","1f75c3e559b7213887762d5229550c2b","216.120.189.235","Mozilla/5.0 (Windows NT 10.0; Win64; x64) AppleWebKit/537.36 (KHTML, like Gecko) Chrome/138.0.0.0 Safari/537.36","WebKit","Chrome","138.0.0.0","Windows","10.0","https://app.prolific.com/","en-GB,en-US;q=0.9,en;q=0.8","667b366d0d0943e90dbee7d1","686e379bc37a29ffa5cdc956","687764994d3b1fd44ee5f343","1","1","667b366d0d0943e90dbee7d1","1","1","2025-07-16T08:56:39.815Z","","","","","","","","","","","","","","win-only","0","g1:NW,g2:SE","0.4","10","0","1083058.2","1430.6","6433.4","40976","1","4","8","6","2","-8","-9","0","0","0","2110.3","3000","-1735","[""down"",""right""]","{""num_key_presses"":9,""num_perfect"":2,""num_errors"":1,""num_randdir"":6,""num_randdir_good_moves"":4,""num_whilered"":0,""num_whileblue"":0,""num_blue"":2,""num_good_moves"":6}","[416.57142857142856,414.6808016640799,0.5,416.57142857142856,414.6808016640799,105.2,416.57142857142856,414.6808016640799,208.5,416.57142857142856,414.6808016640799,314.3,416.57142857142856,414.6808016640799,431.5,416.57142857142856,414.6808016640799,538.2,416.57142857142856,414.6808016640799,638.7,416.57142857142856,414.6808016640799,743.3,416.57142857142856,414.6808016640799,846.9,416.57142857142856,414.6808016640799,949.3,416.57142857142856,414.6808016640799,1053.1,416.57142857142856,414.6808016640799,1156.6,478.07142857142856,497.1808016640799,1259.8,554.5714285714286,669.6808016640799,1361.4,643.0714285714286,737.1808016640799,1462,688.0714285714286,777.6808016640799,1580.9,734.5714285714286,776.1808016640799,1685.1,760.0714285714286,773.1808016640799,1798.5,769.0714285714286,773.1808016640799,1901.1,769.0714285714286,773.1808016640799,2002.2,769.0714285714286,773.1808016640799,2102.8,769.0714285714286,773.1808016640799,2203,769.0714285714286,773.1808016640799,2306.3,769.0714285714286,773.1808016640799,2410.6,769.0714285714286,773.1808016640799,2527.8,769.0714285714286,773.1808016640799,2629.4,769.0714285714286,773.1808016640799,2731.3,769.0714285714286,773.1808016640799,2836.8,769.0714285714286,773.1808016640799,2941.8,769.0714285714286,773.1808016640799,3047,769.0714285714286,773.1808016640799,3161.5,769.0714285714286,773.1808016640799,3282.4,769.0714285714286,773.1808016640799,3388.8,769.0714285714286,773.1808016640799,3497.1,769.0714285714286,773.1808016640799,3601.4,769.0714285714286,773.1808016640799,3718.3,769.0714285714286,773.1808016640799,3822.3,769.0714285714286,773.1808016640799,3928.9,769.0714285714286,773.1808016640799,4034.5,769.0714285714286,773.1808016640799,4148.3,769.0714285714286,773.1808016640799,4256.2,769.0714285714286,773.1808016640799,4363.5,769.0714285714286,773.1808016640799,4467,769.0714285714286,773.1808016640799,4574.2,769.0714285714286,773.1808016640799,4674.4,769.0714285714286,773.1808016640799,4774.4,769.0714285714286,773.1808016640799,4874.4,769.0714285714286,773.1808016640799,4977.6]","[4396.9,4396.9,1906.1,2014.4,476.4,""smooth"",""down"",""down"",""good_move"",7754,3356.4,2832.6,4397.6,523.8,""oops"",""down"",""right"",""good_move"",10574.5,2820,2370.8,7754.5,449.3,""oops"",""right"",""up"",""bad_move"",12935.7,2359.7,1672,10576,687.7,""oops"",""down"",""left"",""bad_move"",16426,3489.9,3012.9,12936.1,477,""oops"",""down"",""right"",""good_move"",21413.1,4986.2,2322.3,19433.6,-342.8,""error"",""-"",""-"",""no_move"",25081.3,3667.6,2182.6,22418.4,480.3,""oops"",""down"",""down"",""good_move"",28871.3,3789.1,2921.1,25082.3,868,""smooth"",""down"",""down"",""good_move"",32229.3,3357.5,2304.1,28871.9,1053.4,""oops"",""down"",""down"",""good_move""]","",""
"43954","","<div style=""width:500px;"">
  <p>What determined the result of this run?</p>
  </div>","50","html-slider-response","55","1162520","0.0-5.0-1.9","79","1","2025-07-16 08:38:56","1f75c3e559b7213887762d5229550c2b","216.120.189.235","Mozilla/5.0 (Windows NT 10.0; Win64; x64) AppleWebKit/537.36 (KHTML, like Gecko) Chrome/138.0.0.0 Safari/537.36","WebKit","Chrome","138.0.0.0","Windows","10.0","https://app.prolific.com/","en-GB,en-US;q=0.9,en;q=0.8","667b366d0d0943e90dbee7d1","686e379bc37a29ffa5cdc956","687764994d3b1fd44ee5f343","1","1","667b366d0d0943e90dbee7d1","1","1","2025-07-16T08:57:23.771Z","","","","","","","","","","","AttribQ","","50","","","","","","","","","","","","","","","","","","","","","","","","","","","","",""
"4675","","<div style=""width:500px;"">
  <p>How much control did you have over the ball?</p>
  </div>","28","html-slider-response","56","1167196","0.0-5.0-2.9","79","1","2025-07-16 08:38:56","1f75c3e559b7213887762d5229550c2b","216.120.189.235","Mozilla/5.0 (Windows NT 10.0; Win64; x64) AppleWebKit/537.36 (KHTML, like Gecko) Chrome/138.0.0.0 Safari/537.36","WebKit","Chrome","138.0.0.0","Windows","10.0","https://app.prolific.com/","en-GB,en-US;q=0.9,en;q=0.8","667b366d0d0943e90dbee7d1","686e379bc37a29ffa5cdc956","687764994d3b1fd44ee5f343","1","1","667b366d0d0943e90dbee7d1","1","1","2025-07-16T08:57:28.448Z","","","","","","","","","","","ControlQ","","50","","","","","","","","","","","","","","","","","","","","","","","","","","","","",""
"5750","","<div style=""width:500px;"">
  <p>How would you describe your current emotional state?</p>
  </div>","50","html-slider-response","57","1172948","0.0-5.0-3.9","79","1","2025-07-16 08:38:56","1f75c3e559b7213887762d5229550c2b","216.120.189.235","Mozilla/5.0 (Windows NT 10.0; Win64; x64) AppleWebKit/537.36 (KHTML, like Gecko) Chrome/138.0.0.0 Safari/537.36","WebKit","Chrome","138.0.0.0","Windows","10.0","https://app.prolific.com/","en-GB,en-US;q=0.9,en;q=0.8","667b366d0d0943e90dbee7d1","686e379bc37a29ffa5cdc956","687764994d3b1fd44ee5f343","1","1","667b366d0d0943e90dbee7d1","1","1","2025-07-16T08:57:34.199Z","","","","","","","","","","","StressQ","","50","","","","","","","","","","","","","","","","","","","","","","","","","","","","",""
"3124","","<div style=""width:500px;"">
  <p>What best describes how you currently feel?</p>
  </div>","50","html-slider-response","58","1176074","0.0-5.0-4.9","79","1","2025-07-16 08:38:56","1f75c3e559b7213887762d5229550c2b","216.120.189.235","Mozilla/5.0 (Windows NT 10.0; Win64; x64) AppleWebKit/537.36 (KHTML, like Gecko) Chrome/138.0.0.0 Safari/537.36","WebKit","Chrome","138.0.0.0","Windows","10.0","https://app.prolific.com/","en-GB,en-US;q=0.9,en;q=0.8","667b366d0d0943e90dbee7d1","686e379bc37a29ffa5cdc956","687764994d3b1fd44ee5f343","1","1","667b366d0d0943e90dbee7d1","1","1","2025-07-16T08:57:37.325Z","","","","","","","","","","","MotivationQ","","50","","","","","","","","","","","","","","","","","","","","","","","","","","","","",""
"","","","","ctl-task-cpt","59","1214512","0.0-5.0-0.10","79","1","2025-07-16 08:38:56","1f75c3e559b7213887762d5229550c2b","216.120.189.235","Mozilla/5.0 (Windows NT 10.0; Win64; x64) AppleWebKit/537.36 (KHTML, like Gecko) Chrome/138.0.0.0 Safari/537.36","WebKit","Chrome","138.0.0.0","Windows","10.0","https://app.prolific.com/","en-GB,en-US;q=0.9,en;q=0.8","667b366d0d0943e90dbee7d1","686e379bc37a29ffa5cdc956","687764994d3b1fd44ee5f343","1","1","667b366d0d0943e90dbee7d1","1","1","2025-07-16T08:58:15.763Z","","","","","","","","","","","","","","win-only","3","g1:SW,g2:NE","0.5","11","0","1184553.1","3281.1","8281.9","35413.7","1","4","4","6","2","4","4","4","0","0.030303030303030304","1577.1","3000","435","[""up"",""right""]","{""num_key_presses"":10,""num_perfect"":5,""num_errors"":0,""num_randdir"":5,""num_randdir_good_moves"":3,""num_whilered"":0,""num_whileblue"":0,""num_blue"":0,""num_good_moves"":8}","[419.57142857142856,407.1808016640799,1.1,419.57142857142856,407.1808016640799,100.1,419.57142857142856,407.1808016640799,229.8,419.57142857142856,407.1808016640799,333.7,419.57142857142856,407.1808016640799,436.5,419.57142857142856,407.1808016640799,543.6,419.57142857142856,407.1808016640799,644.6,542.5714285714286,342.6808016640799,759.9,671.5714285714286,212.18080166407992,860.1,737.5714285714286,119.18080166407994,961.2,737.5714285714286,116.18080166407994,1071.9,737.5714285714286,114.68080166407994,1172.5,740.5714285714286,110.18080166407994,1278,740.5714285714286,110.18080166407994,1379.2,740.5714285714286,110.18080166407994,1482.8,740.5714285714286,110.18080166407994,1594.2,740.5714285714286,110.18080166407994,1698.3,740.5714285714286,110.18080166407994,1801.3,740.5714285714286,110.18080166407994,1913.5,740.5714285714286,110.18080166407994,2015,674.5714285714286,182.18080166407992,2128.5,566.5714285714286,302.1808016640799,2232.5,511.07142857142856,386.1808016640799,2332.8,491.57142857142856,416.1808016640799,2442.4,490.07142857142856,416.1808016640799,2569.2,490.07142857142856,411.6808016640799,2672.2,490.07142857142856,411.6808016640799,2778.2,490.07142857142856,411.6808016640799,2880.3,490.07142857142856,411.6808016640799,2987.9,490.07142857142856,411.6808016640799,3108.9,490.07142857142856,411.6808016640799,3234.7,490.07142857142856,411.6808016640799,3336.2,490.07142857142856,411.6808016640799,3440.9,490.07142857142856,411.6808016640799,3557.4,490.07142857142856,411.6808016640799,3676.8,490.07142857142856,411.6808016640799,3780.2,490.07142857142856,411.6808016640799,3888.9,490.07142857142856,411.6808016640799,3992.6,490.07142857142856,411.6808016640799,4094.6,490.07142857142856,411.6808016640799,4203.7,490.07142857142856,411.6808016640799,4308.6,490.07142857142856,411.6808016640799,4419,490.07142857142856,411.6808016640799,4519.5,490.07142857142856,411.6808016640799,4623.8,490.07142857142856,411.6808016640799,4728.4,490.07142857142856,411.6808016640799,4842.2,490.07142857142856,411.6808016640799,4951.8]","[1502.3,1502.3,1000,0,502.3,""oops"",""up"",""left"",""bad_move"",4312.8,2809.9,2315.4,1502.9,494.5,""smooth"",""up"",""up"",""good_move"",7472.4,3159.2,2633.5,4313.2,525.7,""smooth"",""up"",""up"",""good_move"",10413.4,2940.2,2433.1,7473.3,507,""smooth"",""up"",""up"",""good_move"",12631.7,2217.8,1743.2,10414,474.5,""oops"",""right"",""right"",""good_move"",15315.2,2683.3,2270.7,12632,412.6,""oops"",""right"",""right"",""good_move"",18992.8,3677.2,3207.3,15315.7,469.9,""smooth"",""right"",""right"",""good_move"",21237.5,2243.7,1793.5,18993.8,450.2,""oops"",""right"",""left"",""bad_move"",24298,3060.2,2506.3,21237.8,553.9,""oops"",""right"",""right"",""good_move"",26991.2,2692.2,2228.5,24299,463.7,""smooth"",""right"",""right"",""good_move""]","",""
"6342","","<div style=""width:500px;"">
  <p>What determined the result of this run?</p>
  </div>","50","html-slider-response","60","1220855","0.0-5.0-1.10","79","1","2025-07-16 08:38:56","1f75c3e559b7213887762d5229550c2b","216.120.189.235","Mozilla/5.0 (Windows NT 10.0; Win64; x64) AppleWebKit/537.36 (KHTML, like Gecko) Chrome/138.0.0.0 Safari/537.36","WebKit","Chrome","138.0.0.0","Windows","10.0","https://app.prolific.com/","en-GB,en-US;q=0.9,en;q=0.8","667b366d0d0943e90dbee7d1","686e379bc37a29ffa5cdc956","687764994d3b1fd44ee5f343","1","1","667b366d0d0943e90dbee7d1","1","1","2025-07-16T08:58:22.107Z","","","","","","","","","","","AttribQ","","50","","","","","","","","","","","","","","","","","","","","","","","","","","","","",""
"4326","","<div style=""width:500px;"">
  <p>How much control did you have over the ball?</p>
  </div>","50","html-slider-response","61","1225183","0.0-5.0-2.10","79","1","2025-07-16 08:38:56","1f75c3e559b7213887762d5229550c2b","216.120.189.235","Mozilla/5.0 (Windows NT 10.0; Win64; x64) AppleWebKit/537.36 (KHTML, like Gecko) Chrome/138.0.0.0 Safari/537.36","WebKit","Chrome","138.0.0.0","Windows","10.0","https://app.prolific.com/","en-GB,en-US;q=0.9,en;q=0.8","667b366d0d0943e90dbee7d1","686e379bc37a29ffa5cdc956","687764994d3b1fd44ee5f343","1","1","667b366d0d0943e90dbee7d1","1","1","2025-07-16T08:58:26.434Z","","","","","","","","","","","ControlQ","","50","","","","","","","","","","","","","","","","","","","","","","","","","","","","",""
"5133","","<div style=""width:500px;"">
  <p>How would you describe your current emotional state?</p>
  </div>","50","html-slider-response","62","1230316","0.0-5.0-3.10","79","1","2025-07-16 08:38:56","1f75c3e559b7213887762d5229550c2b","216.120.189.235","Mozilla/5.0 (Windows NT 10.0; Win64; x64) AppleWebKit/537.36 (KHTML, like Gecko) Chrome/138.0.0.0 Safari/537.36","WebKit","Chrome","138.0.0.0","Windows","10.0","https://app.prolific.com/","en-GB,en-US;q=0.9,en;q=0.8","667b366d0d0943e90dbee7d1","686e379bc37a29ffa5cdc956","687764994d3b1fd44ee5f343","1","1","667b366d0d0943e90dbee7d1","1","1","2025-07-16T08:58:31.568Z","","","","","","","","","","","StressQ","","50","","","","","","","","","","","","","","","","","","","","","","","","","","","","",""
"3820","","<div style=""width:500px;"">
  <p>What best describes how you currently feel?</p>
  </div>","50","html-slider-response","63","1234138","0.0-5.0-4.10","79","1","2025-07-16 08:38:56","1f75c3e559b7213887762d5229550c2b","216.120.189.235","Mozilla/5.0 (Windows NT 10.0; Win64; x64) AppleWebKit/537.36 (KHTML, like Gecko) Chrome/138.0.0.0 Safari/537.36","WebKit","Chrome","138.0.0.0","Windows","10.0","https://app.prolific.com/","en-GB,en-US;q=0.9,en;q=0.8","667b366d0d0943e90dbee7d1","686e379bc37a29ffa5cdc956","687764994d3b1fd44ee5f343","1","1","667b366d0d0943e90dbee7d1","1","1","2025-07-16T08:58:35.389Z","","","","","","","","","","","MotivationQ","","50","","","","","","","","","","","","","","","","","","","","","","","","","","","","",""
"","","","","ctl-task-cpt","64","1262489","0.0-5.0-0.11","79","1","2025-07-16 08:38:56","1f75c3e559b7213887762d5229550c2b","216.120.189.235","Mozilla/5.0 (Windows NT 10.0; Win64; x64) AppleWebKit/537.36 (KHTML, like Gecko) Chrome/138.0.0.0 Safari/537.36","WebKit","Chrome","138.0.0.0","Windows","10.0","https://app.prolific.com/","en-GB,en-US;q=0.9,en;q=0.8","667b366d0d0943e90dbee7d1","686e379bc37a29ffa5cdc956","687764994d3b1fd44ee5f343","1","1","667b366d0d0943e90dbee7d1","1","1","2025-07-16T08:59:03.740Z","","","","","","","","","","","","","","win-only","0","g1:NW,g2:SE","0.6","12","0","1242617.8","1959.4","6961.6","25316.9","1","4","8","6","2","8","8","12","4","0.09090909090909091","1917.6","3000","1235","[""down"",""right""]","{""num_key_presses"":6,""num_perfect"":4,""num_errors"":0,""num_randdir"":2,""num_randdir_good_moves"":2,""num_whilered"":0,""num_whileblue"":0,""num_blue"":0,""num_good_moves"":6}","[412.07142857142856,422.1808016640799,0.5,412.07142857142856,422.1808016640799,104,412.07142857142856,422.1808016640799,205.3,412.07142857142856,422.1808016640799,307.2,412.07142857142856,422.1808016640799,409.3,412.07142857142856,422.1808016640799,510.6,412.07142857142856,422.1808016640799,634.2,412.07142857142856,422.1808016640799,737.7,412.07142857142856,422.1808016640799,853.2,650.5714285714286,638.1808016640799,967.8,691.0714285714286,684.6808016640799,1071.4,772.0714285714286,732.6808016640799,1174.8,812.5714285714286,758.1808016640799,1281.9,791.5714285714286,768.6808016640799,1382,790.0714285714286,768.6808016640799,1492.7,790.0714285714286,768.6808016640799,1611.7,790.0714285714286,768.6808016640799,1733.7,790.0714285714286,768.6808016640799,1837.4,790.0714285714286,768.6808016640799,1944.3,790.0714285714286,768.6808016640799,2044.3,790.0714285714286,768.6808016640799,2162.3,790.0714285714286,768.6808016640799,2270.7,790.0714285714286,768.6808016640799,2376.8,790.0714285714286,768.6808016640799,2479.7,790.0714285714286,768.6808016640799,2594.1,790.0714285714286,768.6808016640799,2725.5,790.0714285714286,768.6808016640799,2834,790.0714285714286,768.6808016640799,2955.2,790.0714285714286,768.6808016640799,3061.2,790.0714285714286,768.6808016640799,3181.9,790.0714285714286,768.6808016640799,3282.3,790.0714285714286,768.6808016640799,3383.5,790.0714285714286,768.6808016640799,3483.7,790.0714285714286,768.6808016640799,3583.8,790.0714285714286,768.6808016640799,3686.7,790.0714285714286,768.6808016640799,3800.1,790.0714285714286,768.6808016640799,3905.1,790.0714285714286,768.6808016640799,4021.3,790.0714285714286,768.6808016640799,4125.5,790.0714285714286,768.6808016640799,4231.8,790.0714285714286,768.6808016640799,4339.5,790.0714285714286,768.6808016640799,4474.7,790.0714285714286,768.6808016640799,4576.3,790.0714285714286,768.6808016640799,4680.1,790.0714285714286,768.6808016640799,4789.6,790.0714285714286,768.6808016640799,4908.2]","[1802.3,1802.3,1000,0,802.3,""smooth"",""down"",""down"",""good_move"",4113.4,2309.9,1775.8,1803.5,534.1,""smooth"",""down"",""down"",""good_move"",7332.7,3218.6,2787.6,4114.1,431,""smooth"",""down"",""down"",""good_move"",10363.3,3029.2,2597.9,7334.1,431.3,""oops"",""right"",""right"",""good_move"",15088.7,4724.9,3799.3,10363.8,925.6,""smooth"",""right"",""right"",""good_move"",18108,3018.9,2222.9,15089.1,796,""oops"",""right"",""right"",""good_move""]","",""
"6078","","<div style=""width:500px;"">
  <p>What determined the result of this run?</p>
  </div>","50","html-slider-response","65","1268569","0.0-5.0-1.11","79","1","2025-07-16 08:38:56","1f75c3e559b7213887762d5229550c2b","216.120.189.235","Mozilla/5.0 (Windows NT 10.0; Win64; x64) AppleWebKit/537.36 (KHTML, like Gecko) Chrome/138.0.0.0 Safari/537.36","WebKit","Chrome","138.0.0.0","Windows","10.0","https://app.prolific.com/","en-GB,en-US;q=0.9,en;q=0.8","667b366d0d0943e90dbee7d1","686e379bc37a29ffa5cdc956","687764994d3b1fd44ee5f343","1","1","667b366d0d0943e90dbee7d1","1","1","2025-07-16T08:59:09.820Z","","","","","","","","","","","AttribQ","","50","","","","","","","","","","","","","","","","","","","","","","","","","","","","",""
"2928","","<div style=""width:500px;"">
  <p>How much control did you have over the ball?</p>
  </div>","50","html-slider-response","66","1271500","0.0-5.0-2.11","79","1","2025-07-16 08:38:56","1f75c3e559b7213887762d5229550c2b","216.120.189.235","Mozilla/5.0 (Windows NT 10.0; Win64; x64) AppleWebKit/537.36 (KHTML, like Gecko) Chrome/138.0.0.0 Safari/537.36","WebKit","Chrome","138.0.0.0","Windows","10.0","https://app.prolific.com/","en-GB,en-US;q=0.9,en;q=0.8","667b366d0d0943e90dbee7d1","686e379bc37a29ffa5cdc956","687764994d3b1fd44ee5f343","1","1","667b366d0d0943e90dbee7d1","1","1","2025-07-16T08:59:12.751Z","","","","","","","","","","","ControlQ","","50","","","","","","","","","","","","","","","","","","","","","","","","","","","","",""
"2854","","<div style=""width:500px;"">
  <p>How would you describe your current emotional state?</p>
  </div>","50","html-slider-response","67","1274356","0.0-5.0-3.11","79","1","2025-07-16 08:38:56","1f75c3e559b7213887762d5229550c2b","216.120.189.235","Mozilla/5.0 (Windows NT 10.0; Win64; x64) AppleWebKit/537.36 (KHTML, like Gecko) Chrome/138.0.0.0 Safari/537.36","WebKit","Chrome","138.0.0.0","Windows","10.0","https://app.prolific.com/","en-GB,en-US;q=0.9,en;q=0.8","667b366d0d0943e90dbee7d1","686e379bc37a29ffa5cdc956","687764994d3b1fd44ee5f343","1","1","667b366d0d0943e90dbee7d1","1","1","2025-07-16T08:59:15.607Z","","","","","","","","","","","StressQ","","50","","","","","","","","","","","","","","","","","","","","","","","","","","","","",""
"2773","","<div style=""width:500px;"">
  <p>What best describes how you currently feel?</p>
  </div>","50","html-slider-response","68","1277131","0.0-5.0-4.11","79","1","2025-07-16 08:38:56","1f75c3e559b7213887762d5229550c2b","216.120.189.235","Mozilla/5.0 (Windows NT 10.0; Win64; x64) AppleWebKit/537.36 (KHTML, like Gecko) Chrome/138.0.0.0 Safari/537.36","WebKit","Chrome","138.0.0.0","Windows","10.0","https://app.prolific.com/","en-GB,en-US;q=0.9,en;q=0.8","667b366d0d0943e90dbee7d1","686e379bc37a29ffa5cdc956","687764994d3b1fd44ee5f343","1","1","667b366d0d0943e90dbee7d1","1","1","2025-07-16T08:59:18.382Z","","","","","","","","","","","MotivationQ","","50","","","","","","","","","","","","","","","","","","","","","","","","","","","","",""
"","","","","ctl-task-cpt","69","1344769","0.0-5.0-0.12","79","1","2025-07-16 08:38:56","1f75c3e559b7213887762d5229550c2b","216.120.189.235","Mozilla/5.0 (Windows NT 10.0; Win64; x64) AppleWebKit/537.36 (KHTML, like Gecko) Chrome/138.0.0.0 Safari/537.36","WebKit","Chrome","138.0.0.0","Windows","10.0","https://app.prolific.com/","en-GB,en-US;q=0.9,en;q=0.8","667b366d0d0943e90dbee7d1","686e379bc37a29ffa5cdc956","687764994d3b1fd44ee5f343","1","1","667b366d0d0943e90dbee7d1","1","1","2025-07-16T09:00:26.020Z","","","","","","","","","","","","","","win-only","2","g1:SE,g2:NW","0.7","13","0","1285611.4","3615.5","8623.9","64613.9","1","4","8","6","2","8","8","20","12","0.15151515151515152","1924.7","3000","1050","[""left"",""up""]","{""num_key_presses"":12,""num_perfect"":9,""num_errors"":0,""num_randdir"":3,""num_randdir_good_moves"":0,""num_whilered"":0,""num_whileblue"":0,""num_blue"":2,""num_good_moves"":9}","[404.57142857142856,422.1808016640799,0.2,404.57142857142856,422.1808016640799,106,404.57142857142856,422.1808016640799,222.1,404.57142857142856,422.1808016640799,334.6,404.57142857142856,422.1808016640799,446.2,404.57142857142856,422.1808016640799,553.2,404.57142857142856,422.1808016640799,670.5,383.57142857142856,407.1808016640799,785.3,251.57142857142856,278.1808016640799,909.3,197.57142857142856,236.18080166407992,1030.6,182.57142857142856,219.68080166407992,1151.1,146.57142857142856,161.18080166407992,1252.5,137.57142857142856,128.18080166407992,1375.1,134.57142857142856,116.18080166407994,1496.6,124.07142857142857,105.68080166407994,1599.9,113.57142857142857,99.68080166407994,1718.3,113.57142857142857,99.68080166407994,1821.1,113.57142857142857,99.68080166407994,1948.1,113.57142857142857,99.68080166407994,2062.3,113.57142857142857,99.68080166407994,2171.3,113.57142857142857,99.68080166407994,2286,113.57142857142857,99.68080166407994,2394.7,113.57142857142857,99.68080166407994,2513.4,113.57142857142857,99.68080166407994,2632.1,113.57142857142857,99.68080166407994,2745.4,113.57142857142857,99.68080166407994,2861.8,113.57142857142857,99.68080166407994,2979.8,113.57142857142857,99.68080166407994,3097.4,113.57142857142857,99.68080166407994,3213.7,113.57142857142857,99.68080166407994,3317,113.57142857142857,99.68080166407994,3431.6,113.57142857142857,99.68080166407994,3545.1,113.57142857142857,99.68080166407994,3656,113.57142857142857,99.68080166407994,3774.5,643.0714285714286,888.6808016640799,3883.9,643.0714285714286,888.6808016640799,4004.4,643.0714285714286,888.6808016640799,4105,643.0714285714286,888.6808016640799,4222.9,643.0714285714286,888.6808016640799,4340.4,643.0714285714286,888.6808016640799,4460.5,643.0714285714286,888.6808016640799,4579.8,643.0714285714286,888.6808016640799,4699.3,643.0714285714286,888.6808016640799,4816.6,643.0714285714286,888.6808016640799,4939.6]","[2176.6,2176.6,1000,0,1176.6,""oops"",""up"",""down"",""bad_move"",4680.1,2503.2,2027.7,2176.9,475.5,""smooth"",""left"",""left"",""good_move"",11602.3,6921.9,2684.7,4680.4,4237.2,""smooth"",""left"",""left"",""good_move"",18859,7256.4,2155.1,11602.6,5101.3,""smooth"",""left"",""left"",""good_move"",34231.9,15372.7,2931.3,30789.2,511.5,""oops"",""up"",""down"",""bad_move"",37835.8,3603.1,2864.2,34232.8,738.9,""smooth"",""up"",""up"",""good_move"",39969.4,2133.2,1671.1,37836.2,462.1,""smooth"",""up"",""up"",""good_move"",42958.4,2988.8,2590.6,39969.6,398.2,""oops"",""up"",""right"",""bad_move"",45708.3,2749.5,2374.7,42958.8,374.8,""smooth"",""up"",""up"",""good_move"",48629.4,2920.8,2499.4,45708.6,421.4,""smooth"",""up"",""up"",""good_move"",51896.2,3266.6,2153.4,48629.6,1113.2,""smooth"",""up"",""up"",""good_move"",55619,3722.4,2997,51896.6,725.4,""smooth"",""left"",""left"",""good_move""]","",""
"4960","","<div style=""width:500px;"">
  <p>What determined the result of this run?</p>
  </div>","63","html-slider-response","70","1349732","0.0-5.0-1.12","79","1","2025-07-16 08:38:56","1f75c3e559b7213887762d5229550c2b","216.120.189.235","Mozilla/5.0 (Windows NT 10.0; Win64; x64) AppleWebKit/537.36 (KHTML, like Gecko) Chrome/138.0.0.0 Safari/537.36","WebKit","Chrome","138.0.0.0","Windows","10.0","https://app.prolific.com/","en-GB,en-US;q=0.9,en;q=0.8","667b366d0d0943e90dbee7d1","686e379bc37a29ffa5cdc956","687764994d3b1fd44ee5f343","1","1","667b366d0d0943e90dbee7d1","1","1","2025-07-16T09:00:30.983Z","","","","","","","","","","","AttribQ","","50","","","","","","","","","","","","","","","","","","","","","","","","","","","","",""
"3623","","<div style=""width:500px;"">
  <p>How much control did you have over the ball?</p>
  </div>","59","html-slider-response","71","1353357","0.0-5.0-2.12","79","1","2025-07-16 08:38:56","1f75c3e559b7213887762d5229550c2b","216.120.189.235","Mozilla/5.0 (Windows NT 10.0; Win64; x64) AppleWebKit/537.36 (KHTML, like Gecko) Chrome/138.0.0.0 Safari/537.36","WebKit","Chrome","138.0.0.0","Windows","10.0","https://app.prolific.com/","en-GB,en-US;q=0.9,en;q=0.8","667b366d0d0943e90dbee7d1","686e379bc37a29ffa5cdc956","687764994d3b1fd44ee5f343","1","1","667b366d0d0943e90dbee7d1","1","1","2025-07-16T09:00:34.608Z","","","","","","","","","","","ControlQ","","50","","","","","","","","","","","","","","","","","","","","","","","","","","","","",""
"4158","","<div style=""width:500px;"">
  <p>How would you describe your current emotional state?</p>
  </div>","33","html-slider-response","72","1357517","0.0-5.0-3.12","79","1","2025-07-16 08:38:56","1f75c3e559b7213887762d5229550c2b","216.120.189.235","Mozilla/5.0 (Windows NT 10.0; Win64; x64) AppleWebKit/537.36 (KHTML, like Gecko) Chrome/138.0.0.0 Safari/537.36","WebKit","Chrome","138.0.0.0","Windows","10.0","https://app.prolific.com/","en-GB,en-US;q=0.9,en;q=0.8","667b366d0d0943e90dbee7d1","686e379bc37a29ffa5cdc956","687764994d3b1fd44ee5f343","1","1","667b366d0d0943e90dbee7d1","1","1","2025-07-16T09:00:38.768Z","","","","","","","","","","","StressQ","","50","","","","","","","","","","","","","","","","","","","","","","","","","","","","",""
"4981","","<div style=""width:500px;"">
  <p>What best describes how you currently feel?</p>
  </div>","62","html-slider-response","73","1362501","0.0-5.0-4.12","79","1","2025-07-16 08:38:56","1f75c3e559b7213887762d5229550c2b","216.120.189.235","Mozilla/5.0 (Windows NT 10.0; Win64; x64) AppleWebKit/537.36 (KHTML, like Gecko) Chrome/138.0.0.0 Safari/537.36","WebKit","Chrome","138.0.0.0","Windows","10.0","https://app.prolific.com/","en-GB,en-US;q=0.9,en;q=0.8","667b366d0d0943e90dbee7d1","686e379bc37a29ffa5cdc956","687764994d3b1fd44ee5f343","1","1","667b366d0d0943e90dbee7d1","1","1","2025-07-16T09:00:43.752Z","","","","","","","","","","","MotivationQ","","50","","","","","","","","","","","","","","","","","","","","","","","","","","","","",""
"","","","","ctl-task-cpt","74","1396941","0.0-5.0-0.13","79","1","2025-07-16 08:38:56","1f75c3e559b7213887762d5229550c2b","216.120.189.235","Mozilla/5.0 (Windows NT 10.0; Win64; x64) AppleWebKit/537.36 (KHTML, like Gecko) Chrome/138.0.0.0 Safari/537.36","WebKit","Chrome","138.0.0.0","Windows","10.0","https://app.prolific.com/","en-GB,en-US;q=0.9,en;q=0.8","667b366d0d0943e90dbee7d1","686e379bc37a29ffa5cdc956","687764994d3b1fd44ee5f343","1","1","667b366d0d0943e90dbee7d1","1","1","2025-07-16T09:01:18.192Z","","","","","","","","","","","","","","win-only","0","g1:NW,g2:SE","0.8","14","0","1370981.2","2707.1","7734.9","31377.8","1","4","4","6","2","4","4","24","20","0.18181818181818182","1815.9","3000","2640","[""down"",""right""]","{""num_key_presses"":6,""num_perfect"":4,""num_errors"":0,""num_randdir"":2,""num_randdir_good_moves"":2,""num_whilered"":0,""num_whileblue"":0,""num_blue"":2,""num_good_moves"":6}","[419.57142857142856,417.6808016640799,0.2,419.57142857142856,417.6808016640799,124.1,419.57142857142856,417.6808016640799,245.6,419.57142857142856,417.6808016640799,369,419.57142857142856,417.6808016640799,497,419.57142857142856,417.6808016640799,619.6,419.57142857142856,417.6808016640799,741.7,542.5714285714286,599.1808016640799,877.7,610.0714285714286,683.1808016640799,1007.4,671.5714285714286,720.6808016640799,1148.7,728.5714285714286,732.6808016640799,1283.8,745.0714285714286,738.6808016640799,1410.4,748.0714285714286,743.1808016640799,1546.1,751.0714285714286,746.1808016640799,1669.8,751.0714285714286,746.1808016640799,1790.1,751.0714285714286,746.1808016640799,1916.9,751.0714285714286,746.1808016640799,2037,751.0714285714286,746.1808016640799,2159.5,751.0714285714286,746.1808016640799,2289.8,751.0714285714286,746.1808016640799,2423.6,751.0714285714286,746.1808016640799,2546.1,751.0714285714286,746.1808016640799,2666.9,751.0714285714286,746.1808016640799,2794.3,751.0714285714286,746.1808016640799,2913.2,751.0714285714286,746.1808016640799,3037.1,751.0714285714286,746.1808016640799,3158.3,751.0714285714286,746.1808016640799,3274.6,751.0714285714286,746.1808016640799,3393.8,751.0714285714286,746.1808016640799,3517.2,751.0714285714286,746.1808016640799,3636.8,751.0714285714286,746.1808016640799,3762.5,751.0714285714286,746.1808016640799,3887.1,751.0714285714286,746.1808016640799,4006.6,751.0714285714286,746.1808016640799,4127.5,751.0714285714286,746.1808016640799,4250.5,751.0714285714286,746.1808016640799,4370.9,751.0714285714286,746.1808016640799,4489.1,751.0714285714286,746.1808016640799,4611.6,751.0714285714286,746.1808016640799,4733.6,751.0714285714286,746.1808016640799,4862.1,751.0714285714286,746.1808016640799,4986.5]","[8278.2,8278.2,2521,5239.8,517.4,""smooth"",""down"",""down"",""good_move"",11786.5,3507.9,2986,8278.6,521.9,""smooth"",""down"",""down"",""good_move"",14144.4,2357.6,1812.6,11786.8,545,""smooth"",""down"",""down"",""good_move"",16620.6,2475.9,1884.9,14144.7,591,""smooth"",""right"",""right"",""good_move"",19246.4,2625.3,1995.2,16621.1,630.1,""oops"",""right"",""right"",""good_move"",22516.4,3269.9,2714.4,19246.5,555.5,""oops"",""right"",""right"",""good_move""]","",""
"38628","","<div style=""width:500px;"">
  <p>What determined the result of this run?</p>
  </div>","53","html-slider-response","75","1435573","0.0-5.0-1.13","79","1","2025-07-16 08:38:56","1f75c3e559b7213887762d5229550c2b","216.120.189.235","Mozilla/5.0 (Windows NT 10.0; Win64; x64) AppleWebKit/537.36 (KHTML, like Gecko) Chrome/138.0.0.0 Safari/537.36","WebKit","Chrome","138.0.0.0","Windows","10.0","https://app.prolific.com/","en-GB,en-US;q=0.9,en;q=0.8","667b366d0d0943e90dbee7d1","686e379bc37a29ffa5cdc956","687764994d3b1fd44ee5f343","1","1","667b366d0d0943e90dbee7d1","1","1","2025-07-16T09:01:56.824Z","","","","","","","","","","","AttribQ","","50","","","","","","","","","","","","","","","","","","","","","","","","","","","","",""
"4571","","<div style=""width:500px;"">
  <p>How much control did you have over the ball?</p>
  </div>","61","html-slider-response","76","1440148","0.0-5.0-2.13","79","1","2025-07-16 08:38:56","1f75c3e559b7213887762d5229550c2b","216.120.189.235","Mozilla/5.0 (Windows NT 10.0; Win64; x64) AppleWebKit/537.36 (KHTML, like Gecko) Chrome/138.0.0.0 Safari/537.36","WebKit","Chrome","138.0.0.0","Windows","10.0","https://app.prolific.com/","en-GB,en-US;q=0.9,en;q=0.8","667b366d0d0943e90dbee7d1","686e379bc37a29ffa5cdc956","687764994d3b1fd44ee5f343","1","1","667b366d0d0943e90dbee7d1","1","1","2025-07-16T09:02:01.399Z","","","","","","","","","","","ControlQ","","50","","","","","","","","","","","","","","","","","","","","","","","","","","","","",""
"3562","","<div style=""width:500px;"">
  <p>How would you describe your current emotional state?</p>
