"rt","response_timestamp","stimulus","response","trial_type","trial_index","time_elapsed","internal_node_id","run_id","condition","recorded_at","source_code_version","ip","user_agent","device","browser","browser_version","platform","platform_version","referer","accept_language","PROLIFIC_PID","STUDY_ID","SESSION_ID","WEEK","BATCH","prolific_id","week","batch","realtime","success","responses","item_order","radio_event_ids","radio_event_times","key_event_times","mouse_event_times","straightlining","zigzagging","honeypot","eventType","view_history","slider_start","which_type","canvas_config","goals_layout","control_level","trial_number","tutorial_trial_number","trial_start_time","phase1_start_time","phase2_start_time","phase3_start_time","goal_1_value","goal_1_distance","goal_2_value","goal_2_distance","goal_selected","outcome","outcome_total","participant_final_score","participant_initial_score","participant_final_score_prop","goal_choice_rt","allocated_time","allocated_time_remaining","goal_direction","counts","mouse_movements","key_presses","question_order","question_id"
"7795","1753869648679","<p style='font-size:40px;line-height:1.25'><strong>Welcome to the experiment!</strong></p><p style='font-size:1.1em;line-height:1.25'>Thank you for participanting in our experiment again! You will be asked to play the Dysfunctional Ball Game again. We will briefly recap the rules before we start.</p><p style='font-size:1.1em;line-height:1.25'>Press <strong>Next</strong> to continue.</p>","0","custom-html-button-response","0","7798","0.0-0.0","283","1","2025-07-30 10:00:39","1f75c3e559b7213887762d5229550c2b","41.144.3.253","Mozilla/5.0 (Windows NT 10.0; Win64; x64) AppleWebKit/537.36 (KHTML, like Gecko) Chrome/138.0.0.0 Safari/537.36","WebKit","Chrome","138.0.0.0","Windows","10.0","https://app.prolific.com/","en-US,en;q=0.9","669f76a7112b8713f104644c","6877631c9844ddd5501205fc","6889ebe657f3c0d0a3ff7beb","3","1","669f76a7112b8713f104644c","3","1","2025-07-30T10:00:48.680Z","","","","","","","","","","","","","","","","","","","","","","","","","","","","","","","","","","","","","","","","","",""
"11414","","","","fullscreen","1","20220","0.0-1.0","283","1","2025-07-30 10:00:39","1f75c3e559b7213887762d5229550c2b","41.144.3.253","Mozilla/5.0 (Windows NT 10.0; Win64; x64) AppleWebKit/537.36 (KHTML, like Gecko) Chrome/138.0.0.0 Safari/537.36","WebKit","Chrome","138.0.0.0","Windows","10.0","https://app.prolific.com/","en-US,en;q=0.9","669f76a7112b8713f104644c","6877631c9844ddd5501205fc","6889ebe657f3c0d0a3ff7beb","3","1","669f76a7112b8713f104644c","3","1","","true","","","","","","","","","","","","","","","","","","","","","","","","","","","","","","","","","","","","","","","","",""
"1432","1753869662536","<p style='font-size:1.1em;line-height:1.25'>In the following, we will ask you a few questions relating to your feelings in the last 24 hours.<br></p><p style='font-size:1.1em;line-height:1.25'>Press the <strong>Next</strong> button to continue.</p>","0","custom-html-button-response","2","21655","0.0-2.0-0.0","283","1","2025-07-30 10:00:39","1f75c3e559b7213887762d5229550c2b","41.144.3.253","Mozilla/5.0 (Windows NT 10.0; Win64; x64) AppleWebKit/537.36 (KHTML, like Gecko) Chrome/138.0.0.0 Safari/537.36","WebKit","Chrome","138.0.0.0","Windows","10.0","https://app.prolific.com/","en-US,en;q=0.9","669f76a7112b8713f104644c","6877631c9844ddd5501205fc","6889ebe657f3c0d0a3ff7beb","3","1","669f76a7112b8713f104644c","3","1","2025-07-30T10:01:02.537Z","","","","","","","","","","","","","","","","","","","","","","","","","","","","","","","","","","","","","","","","","",""
"138376.19999999553","","","","survey-template","3","160038","0.0-2.0-1.0","283","1","2025-07-30 10:00:39","1f75c3e559b7213887762d5229550c2b","41.144.3.253","Mozilla/5.0 (Windows NT 10.0; Win64; x64) AppleWebKit/537.36 (KHTML, like Gecko) Chrome/138.0.0.0 Safari/537.36","WebKit","Chrome","138.0.0.0","Windows","10.0","https://app.prolific.com/","en-US,en;q=0.9","669f76a7112b8713f104644c","6877631c9844ddd5501205fc","6889ebe657f3c0d0a3ff7beb","3","1","669f76a7112b8713f104644c","3","1","2025-07-30T10:03:20.920Z","","{""Q01"":""2"",""Q02"":""1"",""Q03"":""1"",""Q04"":""4"",""Q05"":""1"",""Q06"":""1"",""Q07"":""1"",""Q08"":""1"",""Q09"":""1"",""Q10"":""1"",""Q11"":""5"",""Q12"":""4"",""Q13"":""5"",""Q14"":""5"",""Q15"":""4"",""Q16"":""4"",""Q17"":""4"",""Q18"":""4"",""Q19"":""1"",""Q20"":""1"",""Q21"":""3"",""Q22"":""3""}","[0,1,2,3,4,5,6,7,8,9,10,11,12,13,14,15,16,17,18,19,20,21]","[""Q01"",""Q02"",""Q03"",""Q03"",""Q04"",""Q05"",""Q06"",""Q07"",""Q07"",""Q08"",""Q09"",""Q10"",""Q11"",""Q12"",""Q13"",""Q14"",""Q15"",""Q16"",""Q17"",""Q18"",""Q19"",""Q20"",""Q21"",""Q22""]","[28169.89999999851,31751.69999999553,33659.19999999553,44501,45776.19999999553,48903,53123.79999999702,56863.10000000149,57043.29999999702,59089.60000000149,64423,66628.89999999851,69285.39999999851,71453.79999999702,77139.39999999851,83869.5,89158.39999999851,95929.39999999851,117272,118892.5,120465.5,123300.69999999553,131317.79999999702,136482.3999999985]","[]","[0.19999999552965164,28169.89999999851,29508.60000000149,30457,31171.19999999553,31751.69999999553,33659.19999999553,41930.19999999553,43863.5,44501,45397,45776.19999999553,48092.60000000149,48903,52310.39999999851,53123.79999999702,55212.39999999851,55995.60000000149,56863.10000000149,57043.29999999702,58497.5,59089.60000000149,60235.29999999702,64423,66628.89999999851,69285.39999999851,71453.79999999702,76150.60000000149,77139.39999999851,82660,83201.10000000149,83869.5,89158.39999999851,89994.19999999553,94906.79999999702,95929.39999999851,115566.19999999553,116360.39999999851,117272,118892.5,120465.5,123300.69999999553,128957.39999999851,129751.89999999851,131317.79999999702,136053.5,136482.3999999985,138368.5]","0.45454545454545453","0.19047619047619047","0","drsp","","","","","","","","","","","","","","","","","","","","","","","","","","","","","","",""
"8590.69999999553","","","","survey-template","4","168631","0.0-2.0-2.0","283","1","2025-07-30 10:00:39","1f75c3e559b7213887762d5229550c2b","41.144.3.253","Mozilla/5.0 (Windows NT 10.0; Win64; x64) AppleWebKit/537.36 (KHTML, like Gecko) Chrome/138.0.0.0 Safari/537.36","WebKit","Chrome","138.0.0.0","Windows","10.0","https://app.prolific.com/","en-US,en;q=0.9","669f76a7112b8713f104644c","6877631c9844ddd5501205fc","6889ebe657f3c0d0a3ff7beb","3","1","669f76a7112b8713f104644c","3","1","2025-07-30T10:03:29.513Z","","{""Q01"":""4"",""Q02"":""2"",""Q03"":""3""}","[0,1,2]","[""Q01"",""Q02"",""Q03""]","[3630.10000000149,5234.89999999851,7694.5]","[]","[1949.2999999970198,2734.6999999955297,3630.10000000149,5234.89999999851,7694.5,8589.69999999553]","0.6666666666666666","0.5","0","stress","","","","","","","","","","","","","","","","","","","","","","","","","","","","","","",""
"2660","","","","instructions","5","171292","0.0-3.0-0.0","283","1","2025-07-30 10:00:39","1f75c3e559b7213887762d5229550c2b","41.144.3.253","Mozilla/5.0 (Windows NT 10.0; Win64; x64) AppleWebKit/537.36 (KHTML, like Gecko) Chrome/138.0.0.0 Safari/537.36","WebKit","Chrome","138.0.0.0","Windows","10.0","https://app.prolific.com/","en-US,en;q=0.9","669f76a7112b8713f104644c","6877631c9844ddd5501205fc","6889ebe657f3c0d0a3ff7beb","3","1","669f76a7112b8713f104644c","3","1","","","","","","","","","","","","","[{""page_index"":0,""viewing_time"":2660}]","","","","","","","","","","","","","","","","","","","","","","","","","","","","","",""
"9282","","<p>Before you start with this game please answer the following three questions yourself. </p>
  <p>Through this game, we measure several aspects of your cognitive performance, such as reaction times, multi-tasking capabilities </p>
  <p>and the ability to assess the situation you are in.</p>
  <p></p>
  <p><b>How good do you usually are in such tasks?</b></p>","78","html-slider-response","6","180577","0.0-4.0-0.0","283","1","2025-07-30 10:00:39","1f75c3e559b7213887762d5229550c2b","41.144.3.253","Mozilla/5.0 (Windows NT 10.0; Win64; x64) AppleWebKit/537.36 (KHTML, like Gecko) Chrome/138.0.0.0 Safari/537.36","WebKit","Chrome","138.0.0.0","Windows","10.0","https://app.prolific.com/","en-US,en;q=0.9","669f76a7112b8713f104644c","6877631c9844ddd5501205fc","6889ebe657f3c0d0a3ff7beb","3","1","669f76a7112b8713f104644c","3","1","2025-07-30T10:03:41.459Z","","","","","","","","","","","PreSkillQ","","50","","","","","","","","","","","","","","","","","","","","","","","","","","","","",""
"6849","","<div style=""width:500px;"">
  <p>How well do you think you will perform in this task compared to other participants?</p>
  </div>","87","html-slider-response","7","187428","0.0-4.0-1.0","283","1","2025-07-30 10:00:39","1f75c3e559b7213887762d5229550c2b","41.144.3.253","Mozilla/5.0 (Windows NT 10.0; Win64; x64) AppleWebKit/537.36 (KHTML, like Gecko) Chrome/138.0.0.0 Safari/537.36","WebKit","Chrome","138.0.0.0","Windows","10.0","https://app.prolific.com/","en-US,en;q=0.9","669f76a7112b8713f104644c","6877631c9844ddd5501205fc","6889ebe657f3c0d0a3ff7beb","3","1","669f76a7112b8713f104644c","3","1","2025-07-30T10:03:48.310Z","","","","","","","","","","","PrePerfQ","","50","","","","","","","","","","","","","","","","","","","","","","","","","","","","",""
"8201","","<div style=""width:500px;"">
  <p>What best describes how you currently feel?</p>
  </div>","91","html-slider-response","8","195630","0.0-4.0-2.0","283","1","2025-07-30 10:00:39","1f75c3e559b7213887762d5229550c2b","41.144.3.253","Mozilla/5.0 (Windows NT 10.0; Win64; x64) AppleWebKit/537.36 (KHTML, like Gecko) Chrome/138.0.0.0 Safari/537.36","WebKit","Chrome","138.0.0.0","Windows","10.0","https://app.prolific.com/","en-US,en;q=0.9","669f76a7112b8713f104644c","6877631c9844ddd5501205fc","6889ebe657f3c0d0a3ff7beb","3","1","669f76a7112b8713f104644c","3","1","2025-07-30T10:03:56.512Z","","","","","","","","","","","PreMotivationQ","","50","","","","","","","","","","","","","","","","","","","","","","","","","","","","",""
"","","","","ctl-task-cpt","9","237720","0.0-5.0-0.0","283","1","2025-07-30 10:00:39","1f75c3e559b7213887762d5229550c2b","41.144.3.253","Mozilla/5.0 (Windows NT 10.0; Win64; x64) AppleWebKit/537.36 (KHTML, like Gecko) Chrome/138.0.0.0 Safari/537.36","WebKit","Chrome","138.0.0.0","Windows","10.0","https://app.prolific.com/","en-US,en;q=0.9","669f76a7112b8713f104644c","6877631c9844ddd5501205fc","6889ebe657f3c0d0a3ff7beb","3","1","669f76a7112b8713f104644c","3","1","2025-07-30T10:04:38.602Z","","","","","","","","","","","","","","win-only","1","g1:NE,g2:SW","1","1","0","199257.7","2850.6","7854.2","39073","1","4","4","6","2","4","4","4","0","0.030303030303030304","1954.1","3000","755","[""down"",""left""]","{""num_key_presses"":6,""num_perfect"":6,""num_errors"":0,""num_randdir"":0,""num_randdir_good_moves"":0,""num_whilered"":0,""num_whileblue"":0,""num_blue"":3,""num_good_moves"":6}","[294.22232142857143,293.12857142857143,1.4,294.22232142857143,293.12857142857143,102.4,294.22232142857143,293.12857142857143,216.4,294.22232142857143,293.12857142857143,328.7,294.22232142857143,293.12857142857143,438.8,294.22232142857143,293.12857142857143,548,294.22232142857143,293.12857142857143,649.8,317.22232142857143,271.12857142857143,767.9,340.22232142857143,260.12857142857143,870,340.22232142857143,260.12857142857143,973.7,340.22232142857143,260.12857142857143,1077.6,340.22232142857143,260.12857142857143,1181,187.22232142857143,404.12857142857143,1285.3,103.22232142857143,478.12857142857143,1385.7,103.22232142857143,478.12857142857143,1490.5,97.22232142857143,484.12857142857143,1602.8,77.22232142857143,512.1285714285714,1706,75.22232142857143,514.1285714285714,1818.8,75.22232142857143,514.1285714285714,1936.1,75.22232142857143,514.1285714285714,2049.6,75.22232142857143,514.1285714285714,2161.9,236.22232142857143,417.12857142857143,2269.8,319.22232142857143,332.12857142857143,2371.8,377.22232142857143,268.12857142857143,2480.5,377.22232142857143,268.12857142857143,2586.1,377.22232142857143,268.12857142857143,2687.8,355.22232142857143,270.12857142857143,2788.2,353.22232142857143,253.12857142857143,2892.6,353.22232142857143,253.12857142857143,2999.3,353.22232142857143,253.12857142857143,3103.2,353.22232142857143,253.12857142857143,3214.2,353.22232142857143,253.12857142857143,3325.2,353.22232142857143,253.12857142857143,3429.6,353.22232142857143,253.12857142857143,3530.4,353.22232142857143,253.12857142857143,3631.6,353.22232142857143,253.12857142857143,3736.7,353.22232142857143,253.12857142857143,3848.1,353.22232142857143,253.12857142857143,3959.2,353.22232142857143,253.12857142857143,4072.6,353.22232142857143,253.12857142857143,4172.6,353.22232142857143,253.12857142857143,4278.4,353.22232142857143,253.12857142857143,4388.7,353.22232142857143,253.12857142857143,4497.3,353.22232142857143,253.12857142857143,4601.6,353.22232142857143,253.12857142857143,4702.9,353.22232142857143,253.12857142857143,4811.4,353.22232142857143,253.12857142857143,4918.1]","[5576.3,5576.3,3102.9,2006.8,466.7,""smooth"",""left"",""left"",""good_move"",8475.4,2897.3,1941.8,5578.3,955.4,""smooth"",""left"",""left"",""good_move"",15912.9,7436.3,2840,12588.6,484.4,""smooth"",""left"",""left"",""good_move"",23410.2,7495.3,2659.1,20272.2,479,""smooth"",""down"",""down"",""good_move"",27191,3779.3,3282.8,23411.7,496.6,""smooth"",""down"",""down"",""good_move"",31068.2,3876,3379.3,27192.2,496.7,""smooth"",""down"",""down"",""good_move""]","",""
"3176","","<div style=""width:500px;"">
  <p>What determined the result of this run?</p>
  </div>","100","html-slider-response","10","240901","0.0-5.0-1.0","283","1","2025-07-30 10:00:39","1f75c3e559b7213887762d5229550c2b","41.144.3.253","Mozilla/5.0 (Windows NT 10.0; Win64; x64) AppleWebKit/537.36 (KHTML, like Gecko) Chrome/138.0.0.0 Safari/537.36","WebKit","Chrome","138.0.0.0","Windows","10.0","https://app.prolific.com/","en-US,en;q=0.9","669f76a7112b8713f104644c","6877631c9844ddd5501205fc","6889ebe657f3c0d0a3ff7beb","3","1","669f76a7112b8713f104644c","3","1","2025-07-30T10:04:41.783Z","","","","","","","","","","","AttribQ","","50","","","","","","","","","","","","","","","","","","","","","","","","","","","","",""
"2925","","<div style=""width:500px;"">
  <p>How much control did you have over the ball?</p>
  </div>","100","html-slider-response","11","243827","0.0-5.0-2.0","283","1","2025-07-30 10:00:39","1f75c3e559b7213887762d5229550c2b","41.144.3.253","Mozilla/5.0 (Windows NT 10.0; Win64; x64) AppleWebKit/537.36 (KHTML, like Gecko) Chrome/138.0.0.0 Safari/537.36","WebKit","Chrome","138.0.0.0","Windows","10.0","https://app.prolific.com/","en-US,en;q=0.9","669f76a7112b8713f104644c","6877631c9844ddd5501205fc","6889ebe657f3c0d0a3ff7beb","3","1","669f76a7112b8713f104644c","3","1","2025-07-30T10:04:44.709Z","","","","","","","","","","","ControlQ","","50","","","","","","","","","","","","","","","","","","","","","","","","","","","","",""
"2195","","<div style=""width:500px;"">
  <p>How would you describe your current emotional state?</p>
  </div>","25","html-slider-response","12","246023","0.0-5.0-3.0","283","1","2025-07-30 10:00:39","1f75c3e559b7213887762d5229550c2b","41.144.3.253","Mozilla/5.0 (Windows NT 10.0; Win64; x64) AppleWebKit/537.36 (KHTML, like Gecko) Chrome/138.0.0.0 Safari/537.36","WebKit","Chrome","138.0.0.0","Windows","10.0","https://app.prolific.com/","en-US,en;q=0.9","669f76a7112b8713f104644c","6877631c9844ddd5501205fc","6889ebe657f3c0d0a3ff7beb","3","1","669f76a7112b8713f104644c","3","1","2025-07-30T10:04:46.905Z","","","","","","","","","","","StressQ","","50","","","","","","","","","","","","","","","","","","","","","","","","","","","","",""
"2154","","<div style=""width:500px;"">
  <p>What best describes how you currently feel?</p>
  </div>","96","html-slider-response","13","248178","0.0-5.0-4.0","283","1","2025-07-30 10:00:39","1f75c3e559b7213887762d5229550c2b","41.144.3.253","Mozilla/5.0 (Windows NT 10.0; Win64; x64) AppleWebKit/537.36 (KHTML, like Gecko) Chrome/138.0.0.0 Safari/537.36","WebKit","Chrome","138.0.0.0","Windows","10.0","https://app.prolific.com/","en-US,en;q=0.9","669f76a7112b8713f104644c","6877631c9844ddd5501205fc","6889ebe657f3c0d0a3ff7beb","3","1","669f76a7112b8713f104644c","3","1","2025-07-30T10:04:49.061Z","","","","","","","","","","","MotivationQ","","50","","","","","","","","","","","","","","","","","","","","","","","","","","","","",""
"","","","","ctl-task-cpt","14","290038","0.0-5.0-0.1","283","1","2025-07-30 10:00:39","1f75c3e559b7213887762d5229550c2b","41.144.3.253","Mozilla/5.0 (Windows NT 10.0; Win64; x64) AppleWebKit/537.36 (KHTML, like Gecko) Chrome/138.0.0.0 Safari/537.36","WebKit","Chrome","138.0.0.0","Windows","10.0","https://app.prolific.com/","en-US,en;q=0.9","669f76a7112b8713f104644c","6877631c9844ddd5501205fc","6889ebe657f3c0d0a3ff7beb","3","1","669f76a7112b8713f104644c","3","1","2025-07-30T10:05:30.921Z","","","","","","","","","","","","","","win-only","3","g1:SW,g2:NE","0.9","2","0","251803","1260.7","6268.7","38852.2","1","4","8","6","2","8","8","12","4","0.09090909090909091","1318.8","3000","610","[""up"",""right""]","{""num_key_presses"":8,""num_perfect"":7,""num_errors"":0,""num_randdir"":1,""num_randdir_good_moves"":0,""num_whilered"":0,""num_whileblue"":0,""num_blue"":3,""num_good_moves"":7}","[298.22232142857143,295.12857142857143,5.4,298.22232142857143,295.12857142857143,101,298.22232142857143,295.12857142857143,205.3,298.22232142857143,295.12857142857143,308.5,298.22232142857143,295.12857142857143,416.4,337.22232142857143,191.12857142857143,521,516.2223214285714,70.12857142857143,632,533.2223214285714,66.12857142857143,735.1,529.2223214285714,67.12857142857143,840.5,529.2223214285714,67.12857142857143,943.7,529.2223214285714,67.12857142857143,1044.6,529.2223214285714,67.12857142857143,1150.3,529.2223214285714,67.12857142857143,1250.9,529.2223214285714,67.12857142857143,1355.9,529.2223214285714,67.12857142857143,1458.4,529.2223214285714,67.12857142857143,1562.9,529.2223214285714,70.12857142857143,1673.4,494.22232142857143,146.12857142857143,1773.7,354.22232142857143,259.12857142857143,1877,305.22232142857143,294.12857142857143,1980.3,301.22232142857143,286.12857142857143,2080.5,301.22232142857143,286.12857142857143,2182.8,297.22232142857143,293.12857142857143,2288.5,281.22232142857143,323.12857142857143,2396.7,278.22232142857143,326.12857142857143,2499.1,278.22232142857143,328.12857142857143,2600.4,272.22232142857143,332.12857142857143,2710.3,270.22232142857143,334.12857142857143,2813,270.22232142857143,334.12857142857143,2913.3,270.22232142857143,334.12857142857143,3025.6,270.22232142857143,334.12857142857143,3136.9,270.22232142857143,334.12857142857143,3239.4,270.22232142857143,334.12857142857143,3344.2,270.22232142857143,334.12857142857143,3446.7,270.22232142857143,334.12857142857143,3549.2,270.22232142857143,334.12857142857143,3651.7,270.22232142857143,334.12857142857143,3759.9,270.22232142857143,334.12857142857143,3862.5,270.22232142857143,334.12857142857143,3964.1,270.22232142857143,334.12857142857143,4071,270.22232142857143,334.12857142857143,4174.2,270.22232142857143,334.12857142857143,4281.2,270.22232142857143,334.12857142857143,4387.5,270.22232142857143,334.12857142857143,4498.1,270.22232142857143,334.12857142857143,4603.1,270.22232142857143,334.12857142857143,4711.2,270.22232142857143,334.12857142857143,4811.4,270.22232142857143,334.12857142857143,4913.5]","[1605.5,1605.5,1000,0,605.6,""smooth"",""right"",""right"",""good_move"",3894.2,2287,1805.4,1607.2,481.6,""oops"",""right"",""left"",""bad_move"",10681.7,6786.5,3108,7154.8,419,""smooth"",""up"",""up"",""good_move"",13075.6,2381.1,1756.2,10694.5,624.9,""smooth"",""up"",""up"",""good_move"",19905.3,6829.3,2187.2,17266.1,452.1,""smooth"",""up"",""up"",""good_move"",26898.6,6991.3,2217.3,24238,443.3,""smooth"",""right"",""right"",""good_move"",30032,3133.1,2609,26898.9,524.1,""smooth"",""right"",""right"",""good_move"",32454.7,2422.1,1939.5,30032.7,482.5,""smooth"",""right"",""right"",""good_move""]","",""
"1845","","<div style=""width:500px;"">
  <p>What determined the result of this run?</p>
  </div>","94","html-slider-response","15","291885","0.0-5.0-1.1","283","1","2025-07-30 10:00:39","1f75c3e559b7213887762d5229550c2b","41.144.3.253","Mozilla/5.0 (Windows NT 10.0; Win64; x64) AppleWebKit/537.36 (KHTML, like Gecko) Chrome/138.0.0.0 Safari/537.36","WebKit","Chrome","138.0.0.0","Windows","10.0","https://app.prolific.com/","en-US,en;q=0.9","669f76a7112b8713f104644c","6877631c9844ddd5501205fc","6889ebe657f3c0d0a3ff7beb","3","1","669f76a7112b8713f104644c","3","1","2025-07-30T10:05:32.767Z","","","","","","","","","","","AttribQ","","50","","","","","","","","","","","","","","","","","","","","","","","","","","","","",""
"2352","","<div style=""width:500px;"">
  <p>How much control did you have over the ball?</p>
  </div>","99","html-slider-response","16","294239","0.0-5.0-2.1","283","1","2025-07-30 10:00:39","1f75c3e559b7213887762d5229550c2b","41.144.3.253","Mozilla/5.0 (Windows NT 10.0; Win64; x64) AppleWebKit/537.36 (KHTML, like Gecko) Chrome/138.0.0.0 Safari/537.36","WebKit","Chrome","138.0.0.0","Windows","10.0","https://app.prolific.com/","en-US,en;q=0.9","669f76a7112b8713f104644c","6877631c9844ddd5501205fc","6889ebe657f3c0d0a3ff7beb","3","1","669f76a7112b8713f104644c","3","1","2025-07-30T10:05:35.121Z","","","","","","","","","","","ControlQ","","50","","","","","","","","","","","","","","","","","","","","","","","","","","","","",""
"3568","","<div style=""width:500px;"">
  <p>How would you describe your current emotional state?</p>
  </div>","15","html-slider-response","17","297808","0.0-5.0-3.1","283","1","2025-07-30 10:00:39","1f75c3e559b7213887762d5229550c2b","41.144.3.253","Mozilla/5.0 (Windows NT 10.0; Win64; x64) AppleWebKit/537.36 (KHTML, like Gecko) Chrome/138.0.0.0 Safari/537.36","WebKit","Chrome","138.0.0.0","Windows","10.0","https://app.prolific.com/","en-US,en;q=0.9","669f76a7112b8713f104644c","6877631c9844ddd5501205fc","6889ebe657f3c0d0a3ff7beb","3","1","669f76a7112b8713f104644c","3","1","2025-07-30T10:05:38.690Z","","","","","","","","","","","StressQ","","50","","","","","","","","","","","","","","","","","","","","","","","","","","","","",""
"1938","","<div style=""width:500px;"">
  <p>What best describes how you currently feel?</p>
  </div>","88","html-slider-response","18","299747","0.0-5.0-4.1","283","1","2025-07-30 10:00:39","1f75c3e559b7213887762d5229550c2b","41.144.3.253","Mozilla/5.0 (Windows NT 10.0; Win64; x64) AppleWebKit/537.36 (KHTML, like Gecko) Chrome/138.0.0.0 Safari/537.36","WebKit","Chrome","138.0.0.0","Windows","10.0","https://app.prolific.com/","en-US,en;q=0.9","669f76a7112b8713f104644c","6877631c9844ddd5501205fc","6889ebe657f3c0d0a3ff7beb","3","1","669f76a7112b8713f104644c","3","1","2025-07-30T10:05:40.629Z","","","","","","","","","","","MotivationQ","","50","","","","","","","","","","","","","","","","","","","","","","","","","","","","",""
"","","","","ctl-task-cpt","19","340536","0.0-5.0-0.2","283","1","2025-07-30 10:00:39","1f75c3e559b7213887762d5229550c2b","41.144.3.253","Mozilla/5.0 (Windows NT 10.0; Win64; x64) AppleWebKit/537.36 (KHTML, like Gecko) Chrome/138.0.0.0 Safari/537.36","WebKit","Chrome","138.0.0.0","Windows","10.0","https://app.prolific.com/","en-US,en;q=0.9","669f76a7112b8713f104644c","6877631c9844ddd5501205fc","6889ebe657f3c0d0a3ff7beb","3","1","669f76a7112b8713f104644c","3","1","2025-07-30T10:06:21.419Z","","","","","","","","","","","","","","win-only","0","g1:NW,g2:SE","0.8","3","0","303372.9","1031","6033.6","37767.5","1","4","8","6","2","8","8","20","12","0.15151515151515152","1457.2","3000","355","[""down"",""right""]","{""num_key_presses"":10,""num_perfect"":8,""num_errors"":0,""num_randdir"":2,""num_randdir_good_moves"":0,""num_whilered"":0,""num_whileblue"":0,""num_blue"":1,""num_good_moves"":8}","[300.22232142857143,295.12857142857143,1.4,300.22232142857143,295.12857142857143,100.1,300.22232142857143,295.12857142857143,200.7,300.22232142857143,295.12857142857143,304,300.22232142857143,295.12857142857143,421.4,300.22232142857143,295.12857142857143,521.6,440.22232142857143,410.12857142857143,625.2,490.22232142857143,447.12857142857143,728.5,490.22232142857143,447.12857142857143,832.2,490.22232142857143,447.12857142857143,935,510.22232142857143,498.12857142857143,1039.6,533.2223214285714,533.1285714285714,1143.8,533.2223214285714,533.1285714285714,1246.6,533.2223214285714,533.1285714285714,1347.8,533.2223214285714,533.1285714285714,1466.7,533.2223214285714,533.1285714285714,1568.1,533.2223214285714,533.1285714285714,1670.4,415.22232142857143,466.12857142857143,1775.8,308.22232142857143,369.12857142857143,1885.1,267.22232142857143,332.12857142857143,1987.8,261.22232142857143,326.12857142857143,2095.9,261.22232142857143,326.12857142857143,2199.7,260.22232142857143,324.12857142857143,2303.1,257.22232142857143,303.12857142857143,2407.2,255.22232142857143,296.12857142857143,2517.5,255.22232142857143,293.12857142857143,2618.2,255.22232142857143,293.12857142857143,2738.5,255.22232142857143,293.12857142857143,2846,254.22232142857143,284.12857142857143,2946.2,254.22232142857143,277.12857142857143,3047.3,254.22232142857143,274.12857142857143,3151.9,254.22232142857143,274.12857142857143,3260.3,254.22232142857143,274.12857142857143,3361,254.22232142857143,274.12857142857143,3464.2,254.22232142857143,274.12857142857143,3567.5,254.22232142857143,274.12857142857143,3670,254.22232142857143,274.12857142857143,3774.1,254.22232142857143,274.12857142857143,3885.6,254.22232142857143,274.12857142857143,4002.8,254.22232142857143,274.12857142857143,4104.1,254.22232142857143,274.12857142857143,4206.4,254.22232142857143,274.12857142857143,4308.5,254.22232142857143,274.12857142857143,4412.4,254.22232142857143,274.12857142857143,4521.9,254.22232142857143,274.12857142857143,4626.2,254.22232142857143,274.12857142857143,4732,254.22232142857143,274.12857142857143,4833.7,254.22232142857143,274.12857142857143,4937.9]","[1581.1,1581.1,1000,0,581.1,""smooth"",""right"",""right"",""good_move"",8615.1,7032.6,2663.9,5524.3,426.9,""smooth"",""right"",""right"",""good_move"",11591.5,2975.3,2542.3,8616.2,433.1,""oops"",""right"",""up"",""bad_move"",14408.4,2813.6,2436.2,11594.8,377.4,""smooth"",""right"",""right"",""good_move"",17180.2,2771.5,2305.4,14408.8,466.1,""smooth"",""down"",""down"",""good_move"",19971.8,2790.2,2373.1,17181.6,417.2,""smooth"",""down"",""down"",""good_move"",22766.9,2793,2467.8,19973.9,325.2,""smooth"",""down"",""down"",""good_move"",25821.6,3053,2664.5,22768.6,388.5,""oops"",""down"",""left"",""bad_move"",28322.7,2499.3,2125.3,25823.4,374,""smooth"",""down"",""down"",""good_move"",31575.4,3251.7,2871.6,28323.7,380.1,""smooth"",""right"",""right"",""good_move""]","",""
"2720","","<div style=""width:500px;"">
  <p>What determined the result of this run?</p>
  </div>","95","html-slider-response","20","343259","0.0-5.0-1.2","283","1","2025-07-30 10:00:39","1f75c3e559b7213887762d5229550c2b","41.144.3.253","Mozilla/5.0 (Windows NT 10.0; Win64; x64) AppleWebKit/537.36 (KHTML, like Gecko) Chrome/138.0.0.0 Safari/537.36","WebKit","Chrome","138.0.0.0","Windows","10.0","https://app.prolific.com/","en-US,en;q=0.9","669f76a7112b8713f104644c","6877631c9844ddd5501205fc","6889ebe657f3c0d0a3ff7beb","3","1","669f76a7112b8713f104644c","3","1","2025-07-30T10:06:24.141Z","","","","","","","","","","","AttribQ","","50","","","","","","","","","","","","","","","","","","","","","","","","","","","","",""
"3409","","<div style=""width:500px;"">
  <p>How much control did you have over the ball?</p>
  </div>","91","html-slider-response","21","346669","0.0-5.0-2.2","283","1","2025-07-30 10:00:39","1f75c3e559b7213887762d5229550c2b","41.144.3.253","Mozilla/5.0 (Windows NT 10.0; Win64; x64) AppleWebKit/537.36 (KHTML, like Gecko) Chrome/138.0.0.0 Safari/537.36","WebKit","Chrome","138.0.0.0","Windows","10.0","https://app.prolific.com/","en-US,en;q=0.9","669f76a7112b8713f104644c","6877631c9844ddd5501205fc","6889ebe657f3c0d0a3ff7beb","3","1","669f76a7112b8713f104644c","3","1","2025-07-30T10:06:27.551Z","","","","","","","","","","","ControlQ","","50","","","","","","","","","","","","","","","","","","","","","","","","","","","","",""
"2768","","<div style=""width:500px;"">
  <p>How would you describe your current emotional state?</p>
  </div>","14","html-slider-response","22","349438","0.0-5.0-3.2","283","1","2025-07-30 10:00:39","1f75c3e559b7213887762d5229550c2b","41.144.3.253","Mozilla/5.0 (Windows NT 10.0; Win64; x64) AppleWebKit/537.36 (KHTML, like Gecko) Chrome/138.0.0.0 Safari/537.36","WebKit","Chrome","138.0.0.0","Windows","10.0","https://app.prolific.com/","en-US,en;q=0.9","669f76a7112b8713f104644c","6877631c9844ddd5501205fc","6889ebe657f3c0d0a3ff7beb","3","1","669f76a7112b8713f104644c","3","1","2025-07-30T10:06:30.321Z","","","","","","","","","","","StressQ","","50","","","","","","","","","","","","","","","","","","","","","","","","","","","","",""
"3308","","<div style=""width:500px;"">
  <p>What best describes how you currently feel?</p>
  </div>","81","html-slider-response","23","352748","0.0-5.0-4.2","283","1","2025-07-30 10:00:39","1f75c3e559b7213887762d5229550c2b","41.144.3.253","Mozilla/5.0 (Windows NT 10.0; Win64; x64) AppleWebKit/537.36 (KHTML, like Gecko) Chrome/138.0.0.0 Safari/537.36","WebKit","Chrome","138.0.0.0","Windows","10.0","https://app.prolific.com/","en-US,en;q=0.9","669f76a7112b8713f104644c","6877631c9844ddd5501205fc","6889ebe657f3c0d0a3ff7beb","3","1","669f76a7112b8713f104644c","3","1","2025-07-30T10:06:33.630Z","","","","","","","","","","","MotivationQ","","50","","","","","","","","","","","","","","","","","","","","","","","","","","","","",""
"","","","","ctl-task-cpt","24","385229","0.0-5.0-0.3","283","1","2025-07-30 10:00:39","1f75c3e559b7213887762d5229550c2b","41.144.3.253","Mozilla/5.0 (Windows NT 10.0; Win64; x64) AppleWebKit/537.36 (KHTML, like Gecko) Chrome/138.0.0.0 Safari/537.36","WebKit","Chrome","138.0.0.0","Windows","10.0","https://app.prolific.com/","en-US,en;q=0.9","669f76a7112b8713f104644c","6877631c9844ddd5501205fc","6889ebe657f3c0d0a3ff7beb","3","1","669f76a7112b8713f104644c","3","1","2025-07-30T10:07:06.111Z","","","","","","","","","","","","","","win-only","0","g1:NW,g2:SE","0.7","4","0","356373.9","1100.3","6105.1","29470","1","4","4","6","2","4","4","24","20","0.18181818181818182","1422.1","3000","890","[""down"",""right""]","{""num_key_presses"":8,""num_perfect"":7,""num_errors"":0,""num_randdir"":1,""num_randdir_good_moves"":0,""num_whilered"":0,""num_whileblue"":0,""num_blue"":0,""num_good_moves"":7}","[291.22232142857143,295.12857142857143,1.6,291.22232142857143,295.12857142857143,100.5,291.22232142857143,295.12857142857143,207.4,291.22232142857143,295.12857142857143,307.8,291.22232142857143,295.12857142857143,408.6,291.22232142857143,295.12857142857143,515.4,307.22232142857143,306.12857142857143,625.9,514.2223214285714,480.12857142857143,733.5,538.2223214285714,510.12857142857143,838.7,538.2223214285714,510.12857142857143,938.8,542.2223214285714,513.1285714285714,1044.5,550.2223214285714,530.1285714285714,1148.4,550.2223214285714,530.1285714285714,1255.2,550.2223214285714,530.1285714285714,1360.6,550.2223214285714,530.1285714285714,1463.7,550.2223214285714,530.1285714285714,1566.2,550.2223214285714,530.1285714285714,1681.8,550.2223214285714,530.1285714285714,1784.4,521.2223214285714,522.1285714285714,1887.9,326.22232142857143,431.12857142857143,1993,271.22232142857143,365.12857142857143,2099.8,271.22232142857143,365.12857142857143,2200.8,271.22232142857143,365.12857142857143,2303.2,262.22232142857143,332.12857142857143,2406,251.22232142857143,287.12857142857143,2508.9,244.22232142857143,262.12857142857143,2616.7,243.22232142857143,262.12857142857143,2730.7,243.22232142857143,262.12857142857143,2833.6,243.22232142857143,262.12857142857143,2942.2,243.22232142857143,262.12857142857143,3045.2,243.22232142857143,262.12857142857143,3147.4,243.22232142857143,262.12857142857143,3254.1,243.22232142857143,262.12857142857143,3354.6,243.22232142857143,262.12857142857143,3465.8,243.22232142857143,262.12857142857143,3568.4,243.22232142857143,257.12857142857143,3674.6,243.22232142857143,257.12857142857143,3779.1,243.22232142857143,257.12857142857143,3883.5,243.22232142857143,257.12857142857143,3984,243.22232142857143,257.12857142857143,4085.2,243.22232142857143,257.12857142857143,4189.4,243.22232142857143,257.12857142857143,4295.3,243.22232142857143,257.12857142857143,4408.8,243.22232142857143,257.12857142857143,4513.1,243.22232142857143,257.12857142857143,4624.2,243.22232142857143,257.12857142857143,4735.5,243.22232142857143,257.12857142857143,4836,243.22232142857143,257.12857142857143,4943.7]","[1531.8,1531.8,1000,0,531.8,""oops"",""right"",""up"",""bad_move"",4698.3,3165.4,2584.1,1533,581.3,""smooth"",""right"",""right"",""good_move"",7635.1,2934.7,2519.9,4700.4,414.8,""smooth"",""right"",""right"",""good_move"",10597,2960,2519.7,7637.1,440.2,""smooth"",""right"",""right"",""good_move"",13856.5,3258.9,2859.8,10597.7,399.1,""smooth"",""down"",""down"",""good_move"",17298.2,3437.9,3005.9,13860.4,431.9,""smooth"",""down"",""down"",""good_move"",19948.4,2647.9,2248.9,17300.5,399,""smooth"",""down"",""down"",""good_move"",23202.7,3253,2893.4,19949.7,359.6,""smooth"",""down"",""down"",""good_move""]","",""
"2603","","<div style=""width:500px;"">
  <p>What determined the result of this run?</p>
  </div>","93","html-slider-response","25","387834","0.0-5.0-1.3","283","1","2025-07-30 10:00:39","1f75c3e559b7213887762d5229550c2b","41.144.3.253","Mozilla/5.0 (Windows NT 10.0; Win64; x64) AppleWebKit/537.36 (KHTML, like Gecko) Chrome/138.0.0.0 Safari/537.36","WebKit","Chrome","138.0.0.0","Windows","10.0","https://app.prolific.com/","en-US,en;q=0.9","669f76a7112b8713f104644c","6877631c9844ddd5501205fc","6889ebe657f3c0d0a3ff7beb","3","1","669f76a7112b8713f104644c","3","1","2025-07-30T10:07:08.716Z","","","","","","","","","","","AttribQ","","50","","","","","","","","","","","","","","","","","","","","","","","","","","","","",""
"2809","","<div style=""width:500px;"">
  <p>How much control did you have over the ball?</p>
  </div>","88","html-slider-response","26","390644","0.0-5.0-2.3","283","1","2025-07-30 10:00:39","1f75c3e559b7213887762d5229550c2b","41.144.3.253","Mozilla/5.0 (Windows NT 10.0; Win64; x64) AppleWebKit/537.36 (KHTML, like Gecko) Chrome/138.0.0.0 Safari/537.36","WebKit","Chrome","138.0.0.0","Windows","10.0","https://app.prolific.com/","en-US,en;q=0.9","669f76a7112b8713f104644c","6877631c9844ddd5501205fc","6889ebe657f3c0d0a3ff7beb","3","1","669f76a7112b8713f104644c","3","1","2025-07-30T10:07:11.526Z","","","","","","","","","","","ControlQ","","50","","","","","","","","","","","","","","","","","","","","","","","","","","","","",""
"2418","","<div style=""width:500px;"">
  <p>How would you describe your current emotional state?</p>
  </div>","11","html-slider-response","27","393064","0.0-5.0-3.3","283","1","2025-07-30 10:00:39","1f75c3e559b7213887762d5229550c2b","41.144.3.253","Mozilla/5.0 (Windows NT 10.0; Win64; x64) AppleWebKit/537.36 (KHTML, like Gecko) Chrome/138.0.0.0 Safari/537.36","WebKit","Chrome","138.0.0.0","Windows","10.0","https://app.prolific.com/","en-US,en;q=0.9","669f76a7112b8713f104644c","6877631c9844ddd5501205fc","6889ebe657f3c0d0a3ff7beb","3","1","669f76a7112b8713f104644c","3","1","2025-07-30T10:07:13.947Z","","","","","","","","","","","StressQ","","50","","","","","","","","","","","","","","","","","","","","","","","","","","","","",""
"2106","","<div style=""width:500px;"">
  <p>What best describes how you currently feel?</p>
  </div>","88","html-slider-response","28","395172","0.0-5.0-4.3","283","1","2025-07-30 10:00:39","1f75c3e559b7213887762d5229550c2b","41.144.3.253","Mozilla/5.0 (Windows NT 10.0; Win64; x64) AppleWebKit/537.36 (KHTML, like Gecko) Chrome/138.0.0.0 Safari/537.36","WebKit","Chrome","138.0.0.0","Windows","10.0","https://app.prolific.com/","en-US,en;q=0.9","669f76a7112b8713f104644c","6877631c9844ddd5501205fc","6889ebe657f3c0d0a3ff7beb","3","1","669f76a7112b8713f104644c","3","1","2025-07-30T10:07:16.054Z","","","","","","","","","","","MotivationQ","","50","","","","","","","","","","","","","","","","","","","","","","","","","","","","",""
"","","","","ctl-task-cpt","29","435363","0.0-5.0-0.4","283","1","2025-07-30 10:00:39","1f75c3e559b7213887762d5229550c2b","41.144.3.253","Mozilla/5.0 (Windows NT 10.0; Win64; x64) AppleWebKit/537.36 (KHTML, like Gecko) Chrome/138.0.0.0 Safari/537.36","WebKit","Chrome","138.0.0.0","Windows","10.0","https://app.prolific.com/","en-US,en;q=0.9","669f76a7112b8713f104644c","6877631c9844ddd5501205fc","6889ebe657f3c0d0a3ff7beb","3","1","669f76a7112b8713f104644c","3","1","2025-07-30T10:07:56.245Z","","","","","","","","","","","","","","win-only","1","g1:NE,g2:SW","0.6","5","0","398798.9","2452.5","7459.4","37174.4","1","4","4","6","2","4","4","28","24","0.21212121212121213","1798.6","3000","125","[""down"",""left""]","{""num_key_presses"":10,""num_perfect"":6,""num_errors"":0,""num_randdir"":4,""num_randdir_good_moves"":2,""num_whilered"":0,""num_whileblue"":0,""num_blue"":1,""num_good_moves"":8}","[298.22232142857143,304.12857142857143,3.3,298.22232142857143,304.12857142857143,113.3,298.22232142857143,304.12857142857143,224.5,298.22232142857143,304.12857142857143,324.6,298.22232142857143,304.12857142857143,436.8,298.22232142857143,304.12857142857143,537.8,298.22232142857143,304.12857142857143,644.8,246.22232142857143,332.12857142857143,749.4,157.22232142857143,404.12857142857143,853.7,91.22232142857143,479.12857142857143,971.7,91.22232142857143,479.12857142857143,1082.3,91.22232142857143,479.12857142857143,1184.4,77.22232142857143,503.12857142857143,1293.3,69.22232142857143,512.1285714285714,1406.1,69.22232142857143,512.1285714285714,1513.5,69.22232142857143,512.1285714285714,1615.1,69.22232142857143,512.1285714285714,1715.3,69.22232142857143,512.1285714285714,1819.3,69.22232142857143,512.1285714285714,1932.3,69.22232142857143,512.1285714285714,2037,69.22232142857143,512.1285714285714,2139.2,71.22232142857143,504.12857142857143,2242.5,161.22232142857143,331.12857142857143,2344.5,229.22232142857143,243.12857142857143,2448.9,230.22232142857143,242.12857142857143,2562.2,266.22232142857143,243.12857142857143,2671.1,279.22232142857143,245.12857142857143,2771.5,279.22232142857143,245.12857142857143,2871.5,279.22232142857143,245.12857142857143,2976.7,281.22232142857143,245.12857142857143,3076.8,332.22232142857143,245.12857142857143,3180,333.22232142857143,245.12857142857143,3282.2,333.22232142857143,245.12857142857143,3388.5,333.22232142857143,245.12857142857143,3499,333.22232142857143,245.12857142857143,3602.2,333.22232142857143,245.12857142857143,3706.1,328.22232142857143,245.12857142857143,3811.8,328.22232142857143,245.12857142857143,3916.2,328.22232142857143,245.12857142857143,4019.4,328.22232142857143,245.12857142857143,4123.9,328.22232142857143,245.12857142857143,4226.5,328.22232142857143,245.12857142857143,4336.6,328.22232142857143,245.12857142857143,4437.8,328.22232142857143,245.12857142857143,4538.5,328.22232142857143,245.12857142857143,4645.9,328.22232142857143,245.12857142857143,4752.4,328.22232142857143,245.12857142857143,4853.1,328.22232142857143,245.12857142857143,4959]","[3982.3,3982.3,1488.6,2010.8,483,""smooth"",""left"",""left"",""good_move"",7797.3,3814,3397.5,3983.3,416.6,""oops"",""left"",""right"",""bad_move"",10883.3,3085.1,2700.7,7798.2,384.4,""oops"",""down"",""down"",""good_move"",13944.6,3059.1,2553.4,10885.6,505.7,""oops"",""down"",""down"",""good_move"",16430.3,2483.5,1976.7,13946.8,506.9,""smooth"",""down"",""down"",""good_move"",19508.9,3077.5,2638,16431.4,439.5,""smooth"",""left"",""left"",""good_move"",21689.4,2179.9,1446.3,19509.6,733.6,""smooth"",""left"",""left"",""good_move"",24257.1,2565.6,2184.9,21691.5,380.7,""oops"",""left"",""right"",""bad_move"",26965.1,2706.6,2298.9,24258.5,407.7,""smooth"",""left"",""left"",""good_move"",29571.8,2605.5,1856.5,26966.3,749,""smooth"",""left"",""left"",""good_move""]","",""
"2842","","<div style=""width:500px;"">
  <p>What determined the result of this run?</p>
  </div>","88","html-slider-response","30","438209","0.0-5.0-1.4","283","1","2025-07-30 10:00:39","1f75c3e559b7213887762d5229550c2b","41.144.3.253","Mozilla/5.0 (Windows NT 10.0; Win64; x64) AppleWebKit/537.36 (KHTML, like Gecko) Chrome/138.0.0.0 Safari/537.36","WebKit","Chrome","138.0.0.0","Windows","10.0","https://app.prolific.com/","en-US,en;q=0.9","669f76a7112b8713f104644c","6877631c9844ddd5501205fc","6889ebe657f3c0d0a3ff7beb","3","1","669f76a7112b8713f104644c","3","1","2025-07-30T10:07:59.092Z","","","","","","","","","","","AttribQ","","50","","","","","","","","","","","","","","","","","","","","","","","","","","","","",""
"1749","","<div style=""width:500px;"">
  <p>How much control did you have over the ball?</p>
  </div>","96","html-slider-response","31","439960","0.0-5.0-2.4","283","1","2025-07-30 10:00:39","1f75c3e559b7213887762d5229550c2b","41.144.3.253","Mozilla/5.0 (Windows NT 10.0; Win64; x64) AppleWebKit/537.36 (KHTML, like Gecko) Chrome/138.0.0.0 Safari/537.36","WebKit","Chrome","138.0.0.0","Windows","10.0","https://app.prolific.com/","en-US,en;q=0.9","669f76a7112b8713f104644c","6877631c9844ddd5501205fc","6889ebe657f3c0d0a3ff7beb","3","1","669f76a7112b8713f104644c","3","1","2025-07-30T10:08:00.842Z","","","","","","","","","","","ControlQ","","50","","","","","","","","","","","","","","","","","","","","","","","","","","","","",""
"6326","","<div style=""width:500px;"">
  <p>How would you describe your current emotional state?</p>
  </div>","19","html-slider-response","32","446287","0.0-5.0-3.4","283","1","2025-07-30 10:00:39","1f75c3e559b7213887762d5229550c2b","41.144.3.253","Mozilla/5.0 (Windows NT 10.0; Win64; x64) AppleWebKit/537.36 (KHTML, like Gecko) Chrome/138.0.0.0 Safari/537.36","WebKit","Chrome","138.0.0.0","Windows","10.0","https://app.prolific.com/","en-US,en;q=0.9","669f76a7112b8713f104644c","6877631c9844ddd5501205fc","6889ebe657f3c0d0a3ff7beb","3","1","669f76a7112b8713f104644c","3","1","2025-07-30T10:08:07.170Z","","","","","","","","","","","StressQ","","50","","","","","","","","","","","","","","","","","","","","","","","","","","","","",""
"2903","","<div style=""width:500px;"">
  <p>What best describes how you currently feel?</p>
  </div>","96","html-slider-response","33","449192","0.0-5.0-4.4","283","1","2025-07-30 10:00:39","1f75c3e559b7213887762d5229550c2b","41.144.3.253","Mozilla/5.0 (Windows NT 10.0; Win64; x64) AppleWebKit/537.36 (KHTML, like Gecko) Chrome/138.0.0.0 Safari/537.36","WebKit","Chrome","138.0.0.0","Windows","10.0","https://app.prolific.com/","en-US,en;q=0.9","669f76a7112b8713f104644c","6877631c9844ddd5501205fc","6889ebe657f3c0d0a3ff7beb","3","1","669f76a7112b8713f104644c","3","1","2025-07-30T10:08:10.074Z","","","","","","","","","","","MotivationQ","","50","","","","","","","","","","","","","","","","","","","","","","","","","","","","",""
"","","","","ctl-task-cpt","34","486260","0.0-5.0-0.5","283","1","2025-07-30 10:00:39","1f75c3e559b7213887762d5229550c2b","41.144.3.253","Mozilla/5.0 (Windows NT 10.0; Win64; x64) AppleWebKit/537.36 (KHTML, like Gecko) Chrome/138.0.0.0 Safari/537.36","WebKit","Chrome","138.0.0.0","Windows","10.0","https://app.prolific.com/","en-US,en;q=0.9","669f76a7112b8713f104644c","6877631c9844ddd5501205fc","6889ebe657f3c0d0a3ff7beb","3","1","669f76a7112b8713f104644c","3","1","2025-07-30T10:08:47.142Z","","","","","","","","","","","","","","win-only","3","g1:SW,g2:NE","0.5","6","0","452819.3","1238.2","6253.5","34057.3","1","4","8","6","2","8","8","36","28","0.2727272727272727","1388.4","3000","1375","[""up"",""right""]","{""num_key_presses"":6,""num_perfect"":4,""num_errors"":0,""num_randdir"":2,""num_randdir_good_moves"":2,""num_whilered"":0,""num_whileblue"":0,""num_blue"":3,""num_good_moves"":6}","[297.22232142857143,299.12857142857143,4.6,297.22232142857143,299.12857142857143,100.9,297.22232142857143,299.12857142857143,203.4,297.22232142857143,299.12857142857143,307.3,297.22232142857143,299.12857142857143,409.7,297.22232142857143,299.12857142857143,511.1,403.22232142857143,197.12857142857143,618.1,464.22232142857143,146.12857142857143,727.3,464.22232142857143,146.12857142857143,827.5,468.22232142857143,136.12857142857143,935.5,541.2223214285714,35.128571428571426,1035.5,541.2223214285714,35.128571428571426,1145.8,541.2223214285714,35.128571428571426,1248.8,541.2223214285714,35.128571428571426,1353.4,541.2223214285714,35.128571428571426,1457.2,541.2223214285714,35.128571428571426,1561.2,541.2223214285714,35.128571428571426,1666.4,437.22232142857143,132.12857142857143,1773.6,317.22232142857143,266.12857142857143,1875.2,307.22232142857143,273.12857142857143,1979.5,307.22232142857143,273.12857142857143,2087.6,265.22232142857143,336.12857142857143,2196.6,248.22232142857143,353.12857142857143,2305.2,248.22232142857143,353.12857142857143,2414.7,248.22232142857143,353.12857142857143,2517.4,248.22232142857143,353.12857142857143,2619.8,248.22232142857143,353.12857142857143,2726.7,248.22232142857143,353.12857142857143,2829.5,248.22232142857143,353.12857142857143,2932.7,248.22232142857143,353.12857142857143,3039.5,248.22232142857143,353.12857142857143,3141.1,248.22232142857143,353.12857142857143,3244.9,248.22232142857143,353.12857142857143,3354.6,248.22232142857143,353.12857142857143,3464.5,248.22232142857143,353.12857142857143,3567.4,248.22232142857143,353.12857142857143,3676.7,248.22232142857143,353.12857142857143,3779.5,248.22232142857143,353.12857142857143,3879.6,248.22232142857143,353.12857142857143,3981.1,248.22232142857143,353.12857142857143,4082.5,248.22232142857143,353.12857142857143,4188.9,248.22232142857143,353.12857142857143,4293.6,248.22232142857143,353.12857142857143,4404,248.22232142857143,353.12857142857143,4511.5,248.22232142857143,353.12857142857143,4615.3,248.22232142857143,353.12857142857143,4721.9,248.22232142857143,353.12857142857143,4829.9,248.22232142857143,353.12857142857143,4938.4]","[1500.9,1500.9,1000,0,500.9,""oops"",""right"",""right"",""good_move"",10489.7,8987.7,2768.5,7277.5,443.7,""oops"",""right"",""up"",""good_move"",13612.2,3120.4,2660.4,10491.9,459.9,""smooth"",""up"",""up"",""good_move"",16739.6,3126.1,2672,13613.5,454.1,""smooth"",""up"",""up"",""good_move"",19943.9,3202.5,2695.9,16741.4,506.6,""smooth"",""right"",""right"",""good_move"",27637.9,7693,3452.4,23604.3,581.2,""smooth"",""right"",""right"",""good_move""]","",""
"6352","","<div style=""width:500px;"">
  <p>What determined the result of this run?</p>
  </div>","94","html-slider-response","35","492614","0.0-5.0-1.5","283","1","2025-07-30 10:00:39","1f75c3e559b7213887762d5229550c2b","41.144.3.253","Mozilla/5.0 (Windows NT 10.0; Win64; x64) AppleWebKit/537.36 (KHTML, like Gecko) Chrome/138.0.0.0 Safari/537.36","WebKit","Chrome","138.0.0.0","Windows","10.0","https://app.prolific.com/","en-US,en;q=0.9","669f76a7112b8713f104644c","6877631c9844ddd5501205fc","6889ebe657f3c0d0a3ff7beb","3","1","669f76a7112b8713f104644c","3","1","2025-07-30T10:08:53.496Z","","","","","","","","","","","AttribQ","","50","","","","","","","","","","","","","","","","","","","","","","","","","","","","",""
"3285","","<div style=""width:500px;"">
  <p>How much control did you have over the ball?</p>
  </div>","98","html-slider-response","36","495901","0.0-5.0-2.5","283","1","2025-07-30 10:00:39","1f75c3e559b7213887762d5229550c2b","41.144.3.253","Mozilla/5.0 (Windows NT 10.0; Win64; x64) AppleWebKit/537.36 (KHTML, like Gecko) Chrome/138.0.0.0 Safari/537.36","WebKit","Chrome","138.0.0.0","Windows","10.0","https://app.prolific.com/","en-US,en;q=0.9","669f76a7112b8713f104644c","6877631c9844ddd5501205fc","6889ebe657f3c0d0a3ff7beb","3","1","669f76a7112b8713f104644c","3","1","2025-07-30T10:08:56.783Z","","","","","","","","","","","ControlQ","","50","","","","","","","","","","","","","","","","","","","","","","","","","","","","",""
"1994","","<div style=""width:500px;"">
  <p>How would you describe your current emotional state?</p>
  </div>","19","html-slider-response","37","497897","0.0-5.0-3.5","283","1","2025-07-30 10:00:39","1f75c3e559b7213887762d5229550c2b","41.144.3.253","Mozilla/5.0 (Windows NT 10.0; Win64; x64) AppleWebKit/537.36 (KHTML, like Gecko) Chrome/138.0.0.0 Safari/537.36","WebKit","Chrome","138.0.0.0","Windows","10.0","https://app.prolific.com/","en-US,en;q=0.9","669f76a7112b8713f104644c","6877631c9844ddd5501205fc","6889ebe657f3c0d0a3ff7beb","3","1","669f76a7112b8713f104644c","3","1","2025-07-30T10:08:58.779Z","","","","","","","","","","","StressQ","","50","","","","","","","","","","","","","","","","","","","","","","","","","","","","",""
"1900","","<div style=""width:500px;"">
  <p>What best describes how you currently feel?</p>
  </div>","87","html-slider-response","38","499798","0.0-5.0-4.5","283","1","2025-07-30 10:00:39","1f75c3e559b7213887762d5229550c2b","41.144.3.253","Mozilla/5.0 (Windows NT 10.0; Win64; x64) AppleWebKit/537.36 (KHTML, like Gecko) Chrome/138.0.0.0 Safari/537.36","WebKit","Chrome","138.0.0.0","Windows","10.0","https://app.prolific.com/","en-US,en;q=0.9","669f76a7112b8713f104644c","6877631c9844ddd5501205fc","6889ebe657f3c0d0a3ff7beb","3","1","669f76a7112b8713f104644c","3","1","2025-07-30T10:09:00.680Z","","","","","","","","","","","MotivationQ","","50","","","","","","","","","","","","","","","","","","","","","","","","","","","","",""
"","","","","ctl-task-cpt","39","543386","0.0-5.0-0.6","283","1","2025-07-30 10:00:39","1f75c3e559b7213887762d5229550c2b","41.144.3.253","Mozilla/5.0 (Windows NT 10.0; Win64; x64) AppleWebKit/537.36 (KHTML, like Gecko) Chrome/138.0.0.0 Safari/537.36","WebKit","Chrome","138.0.0.0","Windows","10.0","https://app.prolific.com/","en-US,en;q=0.9","669f76a7112b8713f104644c","6877631c9844ddd5501205fc","6889ebe657f3c0d0a3ff7beb","3","1","669f76a7112b8713f104644c","3","1","2025-07-30T10:09:44.269Z","","","","","","","","","","","","","","win-only","2","g1:SE,g2:NW","0.4","7","0","503424.9","2346","7363.2","40559","1","4","8","6","2","8","8","44","36","0.3333333333333333","1550.6","3000","970","[""left"",""up""]","{""num_key_presses"":10,""num_perfect"":4,""num_errors"":0,""num_randdir"":6,""num_randdir_good_moves"":4,""num_whilered"":0,""num_whileblue"":0,""num_blue"":1,""num_good_moves"":8}","[295.22232142857143,305.12857142857143,1.5,295.22232142857143,305.12857142857143,107.4,295.22232142857143,305.12857142857143,216.7,295.22232142857143,305.12857142857143,326.7,295.22232142857143,305.12857142857143,432.1,295.22232142857143,305.12857142857143,535.7,295.22232142857143,310.12857142857143,641.6,226.22232142857143,273.12857142857143,743.3,111.22232142857143,184.12857142857143,855.5,111.22232142857143,165.12857142857143,955.8,111.22232142857143,165.12857142857143,1058.1,102.22232142857143,144.12857142857143,1161.3,73.22232142857143,95.12857142857143,1264.3,68.22232142857143,78.12857142857143,1365.2,67.22232142857143,77.12857142857143,1466.9,67.22232142857143,77.12857142857143,1569.8,67.22232142857143,77.12857142857143,1671.4,67.22232142857143,77.12857142857143,1774.1,67.22232142857143,77.12857142857143,1875.9,67.22232142857143,77.12857142857143,1979.1,255.22232142857143,245.12857142857143,2084.1,315.22232142857143,299.12857142857143,2187.9,315.22232142857143,299.12857142857143,2297.8,315.22232142857143,299.12857142857143,2402,326.22232142857143,319.12857142857143,2506.3,336.22232142857143,331.12857142857143,2615.6,336.22232142857143,331.12857142857143,2718.5,336.22232142857143,331.12857142857143,2827.3,336.22232142857143,331.12857142857143,2928.8,336.22232142857143,331.12857142857143,3033.4,336.22232142857143,331.12857142857143,3133.9,344.22232142857143,328.12857142857143,3248.7,344.22232142857143,325.12857142857143,3352.5,344.22232142857143,325.12857142857143,3459.3,344.22232142857143,325.12857142857143,3563.4,344.22232142857143,325.12857142857143,3665.1,344.22232142857143,325.12857142857143,3765.7,344.22232142857143,325.12857142857143,3866,344.22232142857143,325.12857142857143,3971.3,344.22232142857143,325.12857142857143,4072.9,344.22232142857143,325.12857142857143,4174.7,344.22232142857143,325.12857142857143,4276.9,344.22232142857143,325.12857142857143,4377.7,344.22232142857143,325.12857142857143,4477.8,344.22232142857143,325.12857142857143,4578.6,344.22232142857143,325.12857142857143,4683.7,344.22232142857143,325.12857142857143,4790.6,344.22232142857143,325.12857142857143,4895.6,344.22232142857143,325.12857142857143,4996.2]","[1506.2,1506.2,1000,0,506.2,""oops"",""left"",""right"",""bad_move"",4883.2,3375.3,2941,1507.9,434.3,""smooth"",""up"",""up"",""good_move"",7033.7,2149.8,2085.6,4883.9,64.3,""oops"",""up"",""down"",""bad_move"",10898.7,3861.8,3273.4,7037,588.3,""smooth"",""up"",""up"",""good_move"",13968.6,3069.5,2734.2,10899.1,335.3,""oops"",""up"",""left"",""good_move"",17024.2,3052.9,2667.7,13971.3,385.2,""oops"",""left"",""up"",""good_move"",20542.3,3515.9,3119.2,17026.4,396.7,""oops"",""up"",""left"",""good_move"",23932.8,3388.9,2976.3,20544,412.5,""oops"",""left"",""up"",""good_move"",26746.1,2812.3,2450.1,23933.8,362.3,""smooth"",""left"",""left"",""good_move"",33042.4,6294.7,2081.8,30550,410.6,""smooth"",""left"",""left"",""good_move""]","",""
"8928","","<div style=""width:500px;"">
  <p>What determined the result of this run?</p>
  </div>","66","html-slider-response","40","552318","0.0-5.0-1.6","283","1","2025-07-30 10:00:39","1f75c3e559b7213887762d5229550c2b","41.144.3.253","Mozilla/5.0 (Windows NT 10.0; Win64; x64) AppleWebKit/537.36 (KHTML, like Gecko) Chrome/138.0.0.0 Safari/537.36","WebKit","Chrome","138.0.0.0","Windows","10.0","https://app.prolific.com/","en-US,en;q=0.9","669f76a7112b8713f104644c","6877631c9844ddd5501205fc","6889ebe657f3c0d0a3ff7beb","3","1","669f76a7112b8713f104644c","3","1","2025-07-30T10:09:53.200Z","","","","","","","","","","","AttribQ","","50","","","","","","","","","","","","","","","","","","","","","","","","","","","","",""
"5857","","<div style=""width:500px;"">
  <p>How much control did you have over the ball?</p>
  </div>","83","html-slider-response","41","558178","0.0-5.0-2.6","283","1","2025-07-30 10:00:39","1f75c3e559b7213887762d5229550c2b","41.144.3.253","Mozilla/5.0 (Windows NT 10.0; Win64; x64) AppleWebKit/537.36 (KHTML, like Gecko) Chrome/138.0.0.0 Safari/537.36","WebKit","Chrome","138.0.0.0","Windows","10.0","https://app.prolific.com/","en-US,en;q=0.9","669f76a7112b8713f104644c","6877631c9844ddd5501205fc","6889ebe657f3c0d0a3ff7beb","3","1","669f76a7112b8713f104644c","3","1","2025-07-30T10:09:59.061Z","","","","","","","","","","","ControlQ","","50","","","","","","","","","","","","","","","","","","","","","","","","","","","","",""
"3578","","<div style=""width:500px;"">
  <p>How would you describe your current emotional state?</p>
  </div>","58","html-slider-response","42","561759","0.0-5.0-3.6","283","1","2025-07-30 10:00:39","1f75c3e559b7213887762d5229550c2b","41.144.3.253","Mozilla/5.0 (Windows NT 10.0; Win64; x64) AppleWebKit/537.36 (KHTML, like Gecko) Chrome/138.0.0.0 Safari/537.36","WebKit","Chrome","138.0.0.0","Windows","10.0","https://app.prolific.com/","en-US,en;q=0.9","669f76a7112b8713f104644c","6877631c9844ddd5501205fc","6889ebe657f3c0d0a3ff7beb","3","1","669f76a7112b8713f104644c","3","1","2025-07-30T10:10:02.641Z","","","","","","","","","","","StressQ","","50","","","","","","","","","","","","","","","","","","","","","","","","","","","","",""
"3080","","<div style=""width:500px;"">
  <p>What best describes how you currently feel?</p>
  </div>","79","html-slider-response","43","564840","0.0-5.0-4.6","283","1","2025-07-30 10:00:39","1f75c3e559b7213887762d5229550c2b","41.144.3.253","Mozilla/5.0 (Windows NT 10.0; Win64; x64) AppleWebKit/537.36 (KHTML, like Gecko) Chrome/138.0.0.0 Safari/537.36","WebKit","Chrome","138.0.0.0","Windows","10.0","https://app.prolific.com/","en-US,en;q=0.9","669f76a7112b8713f104644c","6877631c9844ddd5501205fc","6889ebe657f3c0d0a3ff7beb","3","1","669f76a7112b8713f104644c","3","1","2025-07-30T10:10:05.722Z","","","","","","","","","","","MotivationQ","","50","","","","","","","","","","","","","","","","","","","","","","","","","","","","",""
"","","","","ctl-task-cpt","44","619405","0.0-5.0-0.7","283","1","2025-07-30 10:00:39","1f75c3e559b7213887762d5229550c2b","41.144.3.253","Mozilla/5.0 (Windows NT 10.0; Win64; x64) AppleWebKit/537.36 (KHTML, like Gecko) Chrome/138.0.0.0 Safari/537.36","WebKit","Chrome","138.0.0.0","Windows","10.0","https://app.prolific.com/","en-US,en;q=0.9","669f76a7112b8713f104644c","6877631c9844ddd5501205fc","6889ebe657f3c0d0a3ff7beb","3","1","669f76a7112b8713f104644c","3","1","2025-07-30T10:11:00.287Z","","","","","","","","","","","","","","win-only","3","g1:SW,g2:NE","0.3","8","0","568467.9","1515.4","6519.5","51555.1","1","4","4","6","1","-1","-1","43","44","0.32575757575757575","5004.1","3000","-1735","[""down"",""left""]","{""num_key_presses"":9,""num_perfect"":3,""num_errors"":0,""num_randdir"":6,""num_randdir_good_moves"":4,""num_whilered"":0,""num_whileblue"":0,""num_blue"":4,""num_good_moves"":5}","[296.22232142857143,294.12857142857143,1.3,296.22232142857143,294.12857142857143,101.7,296.22232142857143,294.12857142857143,207,296.22232142857143,294.12857142857143,310.7,296.22232142857143,294.12857142857143,411.9,296.22232142857143,294.12857142857143,515.2,296.22232142857143,292.12857142857143,630.3,406.22232142857143,105.12857142857143,733.5,449.22232142857143,92.12857142857143,837.1,449.22232142857143,92.12857142857143,939.2,455.22232142857143,92.12857142857143,1050.1,469.22232142857143,97.12857142857143,1150.8,478.22232142857143,96.12857142857143,1252.7,485.22232142857143,68.12857142857143,1357.9,486.22232142857143,65.12857142857143,1459,486.22232142857143,65.12857142857143,1563.5,486.22232142857143,65.12857142857143,1664.4,486.22232142857143,65.12857142857143,1770.5,521.2223214285714,65.12857142857143,1875.8,523.2223214285714,65.12857142857143,1982.4,523.2223214285714,65.12857142857143,2092,523.2223214285714,65.12857142857143,2195.6,523.2223214285714,65.12857142857143,2307,513.2223214285714,74.12857142857143,2407,385.22232142857143,190.12857142857143,2512.6,313.22232142857143,251.12857142857143,2618.8,295.22232142857143,272.12857142857143,2732.8,295.22232142857143,272.12857142857143,2835.7,269.22232142857143,302.12857142857143,2936.4,255.22232142857143,326.12857142857143,3054.8,255.22232142857143,326.12857142857143,3155.2,255.22232142857143,326.12857142857143,3255.7,255.22232142857143,326.12857142857143,3356.3,255.22232142857143,326.12857142857143,3457.3,255.22232142857143,326.12857142857143,3569.1,255.22232142857143,326.12857142857143,3669.2,255.22232142857143,326.12857142857143,3774.6,255.22232142857143,326.12857142857143,3882.5,255.22232142857143,326.12857142857143,3985.3,255.22232142857143,326.12857142857143,4090.9,255.22232142857143,326.12857142857143,4193.4,255.22232142857143,326.12857142857143,4300.1,255.22232142857143,326.12857142857143,4413.7,255.22232142857143,326.12857142857143,4520.4,255.22232142857143,326.12857142857143,4622.7,255.22232142857143,326.12857142857143,4727.1,255.22232142857143,326.12857142857143,4827.3,255.22232142857143,326.12857142857143,4927.9]","[1481.8,1481.8,1000,0,481.8,""smooth"",""right"",""right"",""bad_move"",8027.6,6544.9,2614,4689.2,724.5,""oops"",""right"",""up"",""bad_move"",11369.1,3328.5,2490.5,8040.6,838,""oops"",""up"",""down"",""good_move"",14306.1,2935.7,2512.9,11370.4,422.8,""oops"",""right"",""right"",""bad_move"",17826.7,3518,3050,14308.7,468,""oops"",""right"",""left"",""good_move"",21677,3849.5,3276.7,17827.5,572.8,""smooth"",""up"",""up"",""bad_move"",31801.1,10122.6,2466.9,28893.5,440.7,""oops"",""down"",""down"",""good_move"",34622.3,2820.5,2338.4,31801.8,482.1,""smooth"",""down"",""down"",""good_move"",42103.7,7480.5,3503.6,38094.4,505.7,""oops"",""down"",""down"",""good_move""]","",""
"8038","","<div style=""width:500px;"">
  <p>What determined the result of this run?</p>
  </div>","80","html-slider-response","45","627444","0.0-5.0-1.7","283","1","2025-07-30 10:00:39","1f75c3e559b7213887762d5229550c2b","41.144.3.253","Mozilla/5.0 (Windows NT 10.0; Win64; x64) AppleWebKit/537.36 (KHTML, like Gecko) Chrome/138.0.0.0 Safari/537.36","WebKit","Chrome","138.0.0.0","Windows","10.0","https://app.prolific.com/","en-US,en;q=0.9","669f76a7112b8713f104644c","6877631c9844ddd5501205fc","6889ebe657f3c0d0a3ff7beb","3","1","669f76a7112b8713f104644c","3","1","2025-07-30T10:11:08.326Z","","","","","","","","","","","AttribQ","","50","","","","","","","","","","","","","","","","","","","","","","","","","","","","",""
"2214","","<div style=""width:500px;"">
  <p>How much control did you have over the ball?</p>
  </div>","82","html-slider-response","46","629660","0.0-5.0-2.7","283","1","2025-07-30 10:00:39","1f75c3e559b7213887762d5229550c2b","41.144.3.253","Mozilla/5.0 (Windows NT 10.0; Win64; x64) AppleWebKit/537.36 (KHTML, like Gecko) Chrome/138.0.0.0 Safari/537.36","WebKit","Chrome","138.0.0.0","Windows","10.0","https://app.prolific.com/","en-US,en;q=0.9","669f76a7112b8713f104644c","6877631c9844ddd5501205fc","6889ebe657f3c0d0a3ff7beb","3","1","669f76a7112b8713f104644c","3","1","2025-07-30T10:11:10.542Z","","","","","","","","","","","ControlQ","","50","","","","","","","","","","","","","","","","","","","","","","","","","","","","",""
"2456","","<div style=""width:500px;"">
  <p>How would you describe your current emotional state?</p>
  </div>","70","html-slider-response","47","632118","0.0-5.0-3.7","283","1","2025-07-30 10:00:39","1f75c3e559b7213887762d5229550c2b","41.144.3.253","Mozilla/5.0 (Windows NT 10.0; Win64; x64) AppleWebKit/537.36 (KHTML, like Gecko) Chrome/138.0.0.0 Safari/537.36","WebKit","Chrome","138.0.0.0","Windows","10.0","https://app.prolific.com/","en-US,en;q=0.9","669f76a7112b8713f104644c","6877631c9844ddd5501205fc","6889ebe657f3c0d0a3ff7beb","3","1","669f76a7112b8713f104644c","3","1","2025-07-30T10:11:13.000Z","","","","","","","","","","","StressQ","","50","","","","","","","","","","","","","","","","","","","","","","","","","","","","",""
"2246","","<div style=""width:500px;"">
  <p>What best describes how you currently feel?</p>
  </div>","80","html-slider-response","48","634365","0.0-5.0-4.7","283","1","2025-07-30 10:00:39","1f75c3e559b7213887762d5229550c2b","41.144.3.253","Mozilla/5.0 (Windows NT 10.0; Win64; x64) AppleWebKit/537.36 (KHTML, like Gecko) Chrome/138.0.0.0 Safari/537.36","WebKit","Chrome","138.0.0.0","Windows","10.0","https://app.prolific.com/","en-US,en;q=0.9","669f76a7112b8713f104644c","6877631c9844ddd5501205fc","6889ebe657f3c0d0a3ff7beb","3","1","669f76a7112b8713f104644c","3","1","2025-07-30T10:11:15.247Z","","","","","","","","","","","MotivationQ","","50","","","","","","","","","","","","","","","","","","","","","","","","","","","","",""
"","","","","ctl-task-cpt","49","681114","0.0-5.0-0.8","283","1","2025-07-30 10:00:39","1f75c3e559b7213887762d5229550c2b","41.144.3.253","Mozilla/5.0 (Windows NT 10.0; Win64; x64) AppleWebKit/537.36 (KHTML, like Gecko) Chrome/138.0.0.0 Safari/537.36","WebKit","Chrome","138.0.0.0","Windows","10.0","https://app.prolific.com/","en-US,en;q=0.9","669f76a7112b8713f104644c","6877631c9844ddd5501205fc","6889ebe657f3c0d0a3ff7beb","3","1","669f76a7112b8713f104644c","3","1","2025-07-30T10:12:01.997Z","","","","","","","","","","","","","","win-only","1","g1:NE,g2:SW","0.2","9","0","637990.8","1588.8","6592.1","43728.8","1","4","8","6","2","8","8","51","43","0.38636363636363635","1489.7","3000","110","[""down"",""left""]","{""num_key_presses"":10,""num_perfect"":2,""num_errors"":0,""num_randdir"":8,""num_randdir_good_moves"":6,""num_whilered"":0,""num_whileblue"":0,""num_blue"":3,""num_good_moves"":8}","[297.22232142857143,297.12857142857143,1.1,297.22232142857143,297.12857142857143,109.4,297.22232142857143,297.12857142857143,212.8,297.22232142857143,297.12857142857143,320.2,297.22232142857143,297.12857142857143,425.2,274.22232142857143,314.12857142857143,525.7,106.22232142857143,351.12857142857143,627.2,77.22232142857143,356.12857142857143,729.1,77.22232142857143,356.12857142857143,836.2,75.22232142857143,363.12857142857143,939.7,60.222321428571426,459.12857142857143,1042.8,60.222321428571426,489.12857142857143,1149.6,59.222321428571426,504.12857142857143,1252,55.222321428571426,512.1285714285714,1355.3,54.222321428571426,513.1285714285714,1457.8,54.222321428571426,513.1285714285714,1568.1,54.222321428571426,513.1285714285714,1670.4,54.222321428571426,513.1285714285714,1777.7,54.222321428571426,513.1285714285714,1880.5,61.222321428571426,496.12857142857143,1988.6,147.22232142857143,421.12857142857143,2089,254.22232142857143,350.12857142857143,2194,274.22232142857143,320.12857142857143,2300.4,274.22232142857143,320.12857142857143,2402,274.22232142857143,320.12857142857143,2504.4,301.22232142857143,289.12857142857143,2607.2,306.22232142857143,283.12857142857143,2711.8,308.22232142857143,282.12857142857143,2815,322.22232142857143,275.12857142857143,2915,333.22232142857143,261.12857142857143,3018.2,333.22232142857143,261.12857142857143,3126.6,333.22232142857143,261.12857142857143,3226.8,333.22232142857143,261.12857142857143,3330,333.22232142857143,261.12857142857143,3436.5,333.22232142857143,261.12857142857143,3538.7,333.22232142857143,261.12857142857143,3641.4,333.22232142857143,261.12857142857143,3743.3,333.22232142857143,261.12857142857143,3846,333.22232142857143,261.12857142857143,3946.2,333.22232142857143,261.12857142857143,4051.2,333.22232142857143,261.12857142857143,4154.7,333.22232142857143,261.12857142857143,4257.4,333.22232142857143,261.12857142857143,4363.4,333.22232142857143,261.12857142857143,4464.7,333.22232142857143,261.12857142857143,4567.8,333.22232142857143,261.12857142857143,4670.5,333.22232142857143,261.12857142857143,4771.5,333.22232142857143,261.12857142857143,4877.8,333.22232142857143,261.12857142857143,4983.7]","[1643,1643.1,1000,0,643.1,""oops"",""down"",""down"",""good_move"",4341.2,2697.6,2167.9,1643.6,529.7,""smooth"",""down"",""down"",""good_move"",8277.7,3934.5,3493.9,4343.2,440.6,""oops"",""down"",""right"",""bad_move"",11273.5,2995.1,2615.8,8278.4,379.3,""oops"",""down"",""left"",""good_move"",20808.1,9533.1,1999.6,18360.3,448.2,""oops"",""left"",""left"",""good_move"",23906.4,3097.9,2590.5,20808.5,507.4,""oops"",""left"",""left"",""good_move"",26159.1,2251.4,1787.2,23907.8,464.1,""oops"",""left"",""up"",""bad_move"",29070.8,2910.6,2547.2,26160.3,363.4,""oops"",""left"",""left"",""good_move"",34945.2,5865.2,2246.7,32301.1,397.4,""oops"",""down"",""down"",""good_move"",36995.6,2049.9,1365.1,34945.7,684.8,""smooth"",""down"",""down"",""good_move""]","",""
"2395","","<div style=""width:500px;"">
  <p>What determined the result of this run?</p>
  </div>","100","html-slider-response","50","683512","0.0-5.0-1.8","283","1","2025-07-30 10:00:39","1f75c3e559b7213887762d5229550c2b","41.144.3.253","Mozilla/5.0 (Windows NT 10.0; Win64; x64) AppleWebKit/537.36 (KHTML, like Gecko) Chrome/138.0.0.0 Safari/537.36","WebKit","Chrome","138.0.0.0","Windows","10.0","https://app.prolific.com/","en-US,en;q=0.9","669f76a7112b8713f104644c","6877631c9844ddd5501205fc","6889ebe657f3c0d0a3ff7beb","3","1","669f76a7112b8713f104644c","3","1","2025-07-30T10:12:04.394Z","","","","","","","","","","","AttribQ","","50","","","","","","","","","","","","","","","","","","","","","","","","","","","","",""
"2051","","<div style=""width:500px;"">
  <p>How much control did you have over the ball?</p>
  </div>","93","html-slider-response","51","685564","0.0-5.0-2.8","283","1","2025-07-30 10:00:39","1f75c3e559b7213887762d5229550c2b","41.144.3.253","Mozilla/5.0 (Windows NT 10.0; Win64; x64) AppleWebKit/537.36 (KHTML, like Gecko) Chrome/138.0.0.0 Safari/537.36","WebKit","Chrome","138.0.0.0","Windows","10.0","https://app.prolific.com/","en-US,en;q=0.9","669f76a7112b8713f104644c","6877631c9844ddd5501205fc","6889ebe657f3c0d0a3ff7beb","3","1","669f76a7112b8713f104644c","3","1","2025-07-30T10:12:06.446Z","","","","","","","","","","","ControlQ","","50","","","","","","","","","","","","","","","","","","","","","","","","","","","","",""
"2451","","<div style=""width:500px;"">
  <p>How would you describe your current emotional state?</p>
  </div>","72","html-slider-response","52","688017","0.0-5.0-3.8","283","1","2025-07-30 10:00:39","1f75c3e559b7213887762d5229550c2b","41.144.3.253","Mozilla/5.0 (Windows NT 10.0; Win64; x64) AppleWebKit/537.36 (KHTML, like Gecko) Chrome/138.0.0.0 Safari/537.36","WebKit","Chrome","138.0.0.0","Windows","10.0","https://app.prolific.com/","en-US,en;q=0.9","669f76a7112b8713f104644c","6877631c9844ddd5501205fc","6889ebe657f3c0d0a3ff7beb","3","1","669f76a7112b8713f104644c","3","1","2025-07-30T10:12:08.899Z","","","","","","","","","","","StressQ","","50","","","","","","","","","","","","","","","","","","","","","","","","","","","","",""
"2909","","<div style=""width:500px;"">
  <p>What best describes how you currently feel?</p>
  </div>","83","html-slider-response","53","690927","0.0-5.0-4.8","283","1","2025-07-30 10:00:39","1f75c3e559b7213887762d5229550c2b","41.144.3.253","Mozilla/5.0 (Windows NT 10.0; Win64; x64) AppleWebKit/537.36 (KHTML, like Gecko) Chrome/138.0.0.0 Safari/537.36","WebKit","Chrome","138.0.0.0","Windows","10.0","https://app.prolific.com/","en-US,en;q=0.9","669f76a7112b8713f104644c","6877631c9844ddd5501205fc","6889ebe657f3c0d0a3ff7beb","3","1","669f76a7112b8713f104644c","3","1","2025-07-30T10:12:11.809Z","","","","","","","","","","","MotivationQ","","50","","","","","","","","","","","","","","","","","","","","","","","","","","","","",""
"","","","","ctl-task-cpt","54","756085","0.0-5.0-0.9","283","1","2025-07-30 10:00:39","1f75c3e559b7213887762d5229550c2b","41.144.3.253","Mozilla/5.0 (Windows NT 10.0; Win64; x64) AppleWebKit/537.36 (KHTML, like Gecko) Chrome/138.0.0.0 Safari/537.36","WebKit","Chrome","138.0.0.0","Windows","10.0","https://app.prolific.com/","en-US,en;q=0.9","669f76a7112b8713f104644c","6877631c9844ddd5501205fc","6889ebe657f3c0d0a3ff7beb","3","1","669f76a7112b8713f104644c","3","1","2025-07-30T10:13:16.967Z","","","","","","","","","","","","","","win-only","1","g1:NE,g2:SW","0.4","10","0","694555.1","1173.9","6181.7","62141.7","1","4","4","6","2","-4","-4","47","51","0.3560606060606061","1308.9","3000","-1695","[""down"",""left""]","{""num_key_presses"":15,""num_perfect"":6,""num_errors"":0,""num_randdir"":9,""num_randdir_good_moves"":3,""num_whilered"":0,""num_whileblue"":0,""num_blue"":3,""num_good_moves"":9}","[295.22232142857143,301.12857142857143,2,295.22232142857143,301.12857142857143,100.3,295.22232142857143,301.12857142857143,200.3,295.22232142857143,301.12857142857143,309.2,295.22232142857143,301.12857142857143,412.1,265.22232142857143,315.12857142857143,516.1,172.22232142857143,385.12857142857143,621.7,166.22232142857143,386.12857142857143,728,166.22232142857143,386.12857142857143,838,116.22232142857143,454.12857142857143,941.3,69.22232142857143,534.1285714285714,1041.4,63.222321428571426,540.1285714285714,1144.6,63.222321428571426,540.1285714285714,1250.4,63.222321428571426,540.1285714285714,1353.2,63.222321428571426,540.1285714285714,1454.1,63.222321428571426,540.1285714285714,1555.3,63.222321428571426,540.1285714285714,1655.7,142.22232142857143,465.12857142857143,1761.2,235.22232142857143,360.12857142857143,1869.6,252.22232142857143,340.12857142857143,1977.7,252.22232142857143,340.12857142857143,2084.6,252.22232142857143,340.12857142857143,2186.9,300.22232142857143,296.12857142857143,2300.1,307.22232142857143,288.12857142857143,2400.8,310.22232142857143,285.12857142857143,2502.9,323.22232142857143,278.12857142857143,2604.2,331.22232142857143,271.12857142857143,2706.9,331.22232142857143,271.12857142857143,2809.7,331.22232142857143,271.12857142857143,2923.2,331.22232142857143,271.12857142857143,3029,331.22232142857143,271.12857142857143,3134.2,331.22232142857143,271.12857142857143,3236,331.22232142857143,271.12857142857143,3340.3,331.22232142857143,271.12857142857143,3454,331.22232142857143,271.12857142857143,3559.4,331.22232142857143,271.12857142857143,3662,331.22232142857143,271.12857142857143,3762.5,331.22232142857143,271.12857142857143,3868.7,331.22232142857143,271.12857142857143,3976.4,331.22232142857143,271.12857142857143,4087.4,331.22232142857143,271.12857142857143,4189.1,331.22232142857143,271.12857142857143,4296.1,331.22232142857143,271.12857142857143,4396.7,331.22232142857143,271.12857142857143,4503.1,331.22232142857143,271.12857142857143,4618,331.22232142857143,271.12857142857143,4718.9,331.22232142857143,271.12857142857143,4824.2,331.22232142857143,271.12857142857143,4925.1]","[4575.2,4575.2,1971.2,2015.3,588.7,""oops"",""down"",""up"",""bad_move"",8179,3602.4,3111.5,4576.7,490.9,""smooth"",""left"",""left"",""good_move"",11451.6,3270.8,2828.1,8180.8,442.7,""oops"",""left"",""right"",""bad_move"",14454.8,3001.5,2638.9,11453.3,362.6,""oops"",""down"",""right"",""bad_move"",16806.4,2349.7,1997.5,14456.7,352.2,""smooth"",""down"",""down"",""good_move"",19863.4,3056.5,2740.1,16806.9,316.4,""smooth"",""down"",""down"",""good_move"",22730.8,2866,2490.1,19864.8,375.9,""smooth"",""down"",""down"",""good_move"",25040.2,2307.6,1942.3,22732.6,365.3,""oops"",""down"",""down"",""good_move"",31481,6439.6,2466.2,28557.4,457.4,""oops"",""left"",""right"",""bad_move"",33966.5,2484.1,2094.8,31482.4,389.3,""oops"",""left"",""left"",""good_move"",36917.6,2950.8,2518.2,33966.8,432.6,""smooth"",""left"",""left"",""good_move"",39104,2184,1789.8,36920,394.2,""smooth"",""left"",""left"",""good_move"",42447.1,3342,2953.8,39105.2,388.1,""oops"",""left"",""left"",""good_move"",49091.8,6643.3,2724.5,45898.7,468.6,""oops"",""left"",""right"",""bad_move"",52894.6,3801.4,3439.4,49093.2,362,""oops"",""left"",""right"",""bad_move""]","",""
"3729","","<div style=""width:500px;"">
  <p>What determined the result of this run?</p>
  </div>","32","html-slider-response","55","759816","0.0-5.0-1.9","283","1","2025-07-30 10:00:39","1f75c3e559b7213887762d5229550c2b","41.144.3.253","Mozilla/5.0 (Windows NT 10.0; Win64; x64) AppleWebKit/537.36 (KHTML, like Gecko) Chrome/138.0.0.0 Safari/537.36","WebKit","Chrome","138.0.0.0","Windows","10.0","https://app.prolific.com/","en-US,en;q=0.9","669f76a7112b8713f104644c","6877631c9844ddd5501205fc","6889ebe657f3c0d0a3ff7beb","3","1","669f76a7112b8713f104644c","3","1","2025-07-30T10:13:20.698Z","","","","","","","","","","","AttribQ","","50","","","","","","","","","","","","","","","","","","","","","","","","","","","","",""
"1672","","<div style=""width:500px;"">
  <p>How much control did you have over the ball?</p>
  </div>","16","html-slider-response","56","761489","0.0-5.0-2.9","283","1","2025-07-30 10:00:39","1f75c3e559b7213887762d5229550c2b","41.144.3.253","Mozilla/5.0 (Windows NT 10.0; Win64; x64) AppleWebKit/537.36 (KHTML, like Gecko) Chrome/138.0.0.0 Safari/537.36","WebKit","Chrome","138.0.0.0","Windows","10.0","https://app.prolific.com/","en-US,en;q=0.9","669f76a7112b8713f104644c","6877631c9844ddd5501205fc","6889ebe657f3c0d0a3ff7beb","3","1","669f76a7112b8713f104644c","3","1","2025-07-30T10:13:22.371Z","","","","","","","","","","","ControlQ","","50","","","","","","","","","","","","","","","","","","","","","","","","","","","","",""
"2565","","<div style=""width:500px;"">
  <p>How would you describe your current emotional state?</p>
  </div>","76","html-slider-response","57","764056","0.0-5.0-3.9","283","1","2025-07-30 10:00:39","1f75c3e559b7213887762d5229550c2b","41.144.3.253","Mozilla/5.0 (Windows NT 10.0; Win64; x64) AppleWebKit/537.36 (KHTML, like Gecko) Chrome/138.0.0.0 Safari/537.36","WebKit","Chrome","138.0.0.0","Windows","10.0","https://app.prolific.com/","en-US,en;q=0.9","669f76a7112b8713f104644c","6877631c9844ddd5501205fc","6889ebe657f3c0d0a3ff7beb","3","1","669f76a7112b8713f104644c","3","1","2025-07-30T10:13:24.938Z","","","","","","","","","","","StressQ","","50","","","","","","","","","","","","","","","","","","","","","","","","","","","","",""
"2715","","<div style=""width:500px;"">
  <p>What best describes how you currently feel?</p>
  </div>","76","html-slider-response","58","766772","0.0-5.0-4.9","283","1","2025-07-30 10:00:39","1f75c3e559b7213887762d5229550c2b","41.144.3.253","Mozilla/5.0 (Windows NT 10.0; Win64; x64) AppleWebKit/537.36 (KHTML, like Gecko) Chrome/138.0.0.0 Safari/537.36","WebKit","Chrome","138.0.0.0","Windows","10.0","https://app.prolific.com/","en-US,en;q=0.9","669f76a7112b8713f104644c","6877631c9844ddd5501205fc","6889ebe657f3c0d0a3ff7beb","3","1","669f76a7112b8713f104644c","3","1","2025-07-30T10:13:27.655Z","","","","","","","","","","","MotivationQ","","50","","","","","","","","","","","","","","","","","","","","","","","","","","","","",""
"","","","","ctl-task-cpt","59","810966","0.0-5.0-0.10","283","1","2025-07-30 10:00:39","1f75c3e559b7213887762d5229550c2b","41.144.3.253","Mozilla/5.0 (Windows NT 10.0; Win64; x64) AppleWebKit/537.36 (KHTML, like Gecko) Chrome/138.0.0.0 Safari/537.36","WebKit","Chrome","138.0.0.0","Windows","10.0","https://app.prolific.com/","en-US,en;q=0.9","669f76a7112b8713f104644c","6877631c9844ddd5501205fc","6889ebe657f3c0d0a3ff7beb","3","1","669f76a7112b8713f104644c","3","1","2025-07-30T10:14:11.848Z","","","","","","","","","","","","","","win-only","3","g1:SW,g2:NE","0.5","11","0","770398.6","1183.3","6186.2","41173.2","1","4","4","6","2","4","4","51","47","0.38636363636363635","1400.3","3000","1760","[""up"",""right""]","{""num_key_presses"":10,""num_perfect"":5,""num_errors"":0,""num_randdir"":5,""num_randdir_good_moves"":3,""num_whilered"":0,""num_whileblue"":0,""num_blue"":1,""num_good_moves"":8}","[303.22232142857143,291.12857142857143,0.5,303.22232142857143,291.12857142857143,112.4,303.22232142857143,291.12857142857143,212.5,303.22232142857143,291.12857142857143,322.1,303.22232142857143,291.12857142857143,425.9,303.22232142857143,291.12857142857143,532.9,326.22232142857143,269.12857142857143,645.2,467.22232142857143,147.12857142857143,747.7,467.22232142857143,147.12857142857143,857.2,467.22232142857143,147.12857142857143,964.6,521.2223214285714,92.12857142857143,1070.3,525.2223214285714,91.12857142857143,1171.2,527.2223214285714,89.12857142857143,1281.3,528.2223214285714,89.12857142857143,1389,528.2223214285714,89.12857142857143,1497.8,528.2223214285714,89.12857142857143,1608.4,528.2223214285714,89.12857142857143,1709.9,528.2223214285714,89.12857142857143,1815.5,429.22232142857143,211.12857142857143,1926.6,320.22232142857143,306.12857142857143,2028.6,278.22232142857143,327.12857142857143,2138.6,277.22232142857143,325.12857142857143,2242.4,275.22232142857143,325.12857142857143,2350.3,275.22232142857143,325.12857142857143,2458.9,275.22232142857143,325.12857142857143,2568.6,275.22232142857143,325.12857142857143,2678,275.22232142857143,325.12857142857143,2791.1,275.22232142857143,325.12857142857143,2898.6,275.22232142857143,325.12857142857143,3004,275.22232142857143,325.12857142857143,3107.4,275.22232142857143,325.12857142857143,3214.9,275.22232142857143,325.12857142857143,3319.9,275.22232142857143,325.12857142857143,3431.7,275.22232142857143,325.12857142857143,3538.3,275.22232142857143,325.12857142857143,3648.7,275.22232142857143,325.12857142857143,3761.8,275.22232142857143,325.12857142857143,3867.9,275.22232142857143,325.12857142857143,3978.3,275.22232142857143,325.12857142857143,4082.7,275.22232142857143,325.12857142857143,4194,275.22232142857143,325.12857142857143,4308.5,275.22232142857143,325.12857142857143,4408.5,275.22232142857143,325.12857142857143,4509.6,275.22232142857143,325.12857142857143,4622.1,275.22232142857143,325.12857142857143,4733.5,275.22232142857143,325.12857142857143,4843.9,275.22232142857143,325.12857142857143,4945.1]","[1593.8,1593.8,1000,0,593.8,""smooth"",""right"",""right"",""good_move"",4531.7,2937.4,2488.5,1594.3,448.9,""oops"",""right"",""right"",""good_move"",6854,2321.8,1855.2,4532.2,466.6,""oops"",""right"",""down"",""bad_move"",9249.2,2393.7,1822.6,6855.5,571.1,""oops"",""right"",""up"",""good_move"",12769.6,3519.8,2623.6,9249.8,896.2,""oops"",""up"",""left"",""bad_move"",17393.6,4623.2,2467.1,12770.4,2156.1,""smooth"",""up"",""up"",""good_move"",22456.9,5062.9,3085.3,17394,1977.6,""oops"",""up"",""right"",""good_move"",27917.5,5460.3,1750.1,25688.3,479.1,""smooth"",""right"",""right"",""good_move"",31455.1,3536.8,3067.4,27918.3,469.4,""smooth"",""up"",""up"",""good_move"",34830.3,3374.7,2990.6,31455.6,384.1,""smooth"",""up"",""up"",""good_move""]","",""
"4117","","<div style=""width:500px;"">
  <p>What determined the result of this run?</p>
  </div>","87","html-slider-response","60","815084","0.0-5.0-1.10","283","1","2025-07-30 10:00:39","1f75c3e559b7213887762d5229550c2b","41.144.3.253","Mozilla/5.0 (Windows NT 10.0; Win64; x64) AppleWebKit/537.36 (KHTML, like Gecko) Chrome/138.0.0.0 Safari/537.36","WebKit","Chrome","138.0.0.0","Windows","10.0","https://app.prolific.com/","en-US,en;q=0.9","669f76a7112b8713f104644c","6877631c9844ddd5501205fc","6889ebe657f3c0d0a3ff7beb","3","1","669f76a7112b8713f104644c","3","1","2025-07-30T10:14:15.966Z","","","","","","","","","","","AttribQ","","50","","","","","","","","","","","","","","","","","","","","","","","","","","","","",""
"1575","","<div style=""width:500px;"">
  <p>How much control did you have over the ball?</p>
  </div>","81","html-slider-response","61","816660","0.0-5.0-2.10","283","1","2025-07-30 10:00:39","1f75c3e559b7213887762d5229550c2b","41.144.3.253","Mozilla/5.0 (Windows NT 10.0; Win64; x64) AppleWebKit/537.36 (KHTML, like Gecko) Chrome/138.0.0.0 Safari/537.36","WebKit","Chrome","138.0.0.0","Windows","10.0","https://app.prolific.com/","en-US,en;q=0.9","669f76a7112b8713f104644c","6877631c9844ddd5501205fc","6889ebe657f3c0d0a3ff7beb","3","1","669f76a7112b8713f104644c","3","1","2025-07-30T10:14:17.542Z","","","","","","","","","","","ControlQ","","50","","","","","","","","","","","","","","","","","","","","","","","","","","","","",""
"2975","","<div style=""width:500px;"">
  <p>How would you describe your current emotional state?</p>
  </div>","18","html-slider-response","62","819637","0.0-5.0-3.10","283","1","2025-07-30 10:00:39","1f75c3e559b7213887762d5229550c2b","41.144.3.253","Mozilla/5.0 (Windows NT 10.0; Win64; x64) AppleWebKit/537.36 (KHTML, like Gecko) Chrome/138.0.0.0 Safari/537.36","WebKit","Chrome","138.0.0.0","Windows","10.0","https://app.prolific.com/","en-US,en;q=0.9","669f76a7112b8713f104644c","6877631c9844ddd5501205fc","6889ebe657f3c0d0a3ff7beb","3","1","669f76a7112b8713f104644c","3","1","2025-07-30T10:14:20.519Z","","","","","","","","","","","StressQ","","50","","","","","","","","","","","","","","","","","","","","","","","","","","","","",""
"1840","","<div style=""width:500px;"">
  <p>What best describes how you currently feel?</p>
  </div>","90","html-slider-response","63","821481","0.0-5.0-4.10","283","1","2025-07-30 10:00:39","1f75c3e559b7213887762d5229550c2b","41.144.3.253","Mozilla/5.0 (Windows NT 10.0; Win64; x64) AppleWebKit/537.36 (KHTML, like Gecko) Chrome/138.0.0.0 Safari/537.36","WebKit","Chrome","138.0.0.0","Windows","10.0","https://app.prolific.com/","en-US,en;q=0.9","669f76a7112b8713f104644c","6877631c9844ddd5501205fc","6889ebe657f3c0d0a3ff7beb","3","1","669f76a7112b8713f104644c","3","1","2025-07-30T10:14:22.364Z","","","","","","","","","","","MotivationQ","","50","","","","","","","","","","","","","","","","","","","","","","","","","","","","",""
"","","","","ctl-task-cpt","64","855768","0.0-5.0-0.11","283","1","2025-07-30 10:00:39","1f75c3e559b7213887762d5229550c2b","41.144.3.253","Mozilla/5.0 (Windows NT 10.0; Win64; x64) AppleWebKit/537.36 (KHTML, like Gecko) Chrome/138.0.0.0 Safari/537.36","WebKit","Chrome","138.0.0.0","Windows","10.0","https://app.prolific.com/","en-US,en;q=0.9","669f76a7112b8713f104644c","6877631c9844ddd5501205fc","6889ebe657f3c0d0a3ff7beb","3","1","669f76a7112b8713f104644c","3","1","2025-07-30T10:14:56.650Z","","","","","","","","","","","","","","win-only","1","g1:NE,g2:SW","0.6","12","0","825108.2","1588.4","6591.2","31257.3","1","4","8","6","2","8","8","59","51","0.44696969696969696","1351.9","3000","1830","[""down"",""left""]","{""num_key_presses"":6,""num_perfect"":5,""num_errors"":0,""num_randdir"":1,""num_randdir_good_moves"":1,""num_whilered"":0,""num_whileblue"":0,""num_blue"":2,""num_good_moves"":6}","[302.22232142857143,292.12857142857143,1.4,302.22232142857143,292.12857142857143,107.5,302.22232142857143,292.12857142857143,214.6,302.22232142857143,292.12857142857143,330.7,301.22232142857143,292.12857142857143,449.2,202.22232142857143,379.12857142857143,558.8,168.22232142857143,423.12857142857143,680.7,168.22232142857143,423.12857142857143,795,109.22232142857143,486.12857142857143,900.4,91.22232142857143,506.12857142857143,1009,91.22232142857143,506.12857142857143,1121.5,89.22232142857143,508.12857142857143,1238.9,85.22232142857143,511.12857142857143,1339.7,85.22232142857143,511.12857142857143,1446.5,85.22232142857143,511.12857142857143,1562.6,85.22232142857143,511.12857142857143,1670,85.22232142857143,511.12857142857143,1780,118.22232142857143,487.12857142857143,1893.8,216.22232142857143,395.12857142857143,2000.3,243.22232142857143,355.12857142857143,2116.1,248.22232142857143,354.12857142857143,2235.2,248.22232142857143,354.12857142857143,2353.9,270.22232142857143,325.12857142857143,2454.1,326.22232142857143,267.12857142857143,2569.3,326.22232142857143,267.12857142857143,2670.9,326.22232142857143,267.12857142857143,2787.4,330.22232142857143,263.12857142857143,2895.7,343.22232142857143,251.12857142857143,2998,343.22232142857143,251.12857142857143,3111.1,343.22232142857143,251.12857142857143,3227.8,343.22232142857143,251.12857142857143,3332.3,343.22232142857143,251.12857142857143,3435.2,343.22232142857143,251.12857142857143,3548.4,343.22232142857143,251.12857142857143,3661.5,343.22232142857143,251.12857142857143,3764.9,343.22232142857143,251.12857142857143,3873.8,343.22232142857143,251.12857142857143,3978.6,343.22232142857143,251.12857142857143,4082.5,343.22232142857143,251.12857142857143,4194.4,343.22232142857143,251.12857142857143,4302.2,343.22232142857143,251.12857142857143,4407.6,343.22232142857143,251.12857142857143,4509.4,343.22232142857143,251.12857142857143,4617.2,343.22232142857143,251.12857142857143,4724.8,343.22232142857143,251.12857142857143,4835.7,343.22232142857143,251.12857142857143,4942.2]","[8827.8,8827.8,2935,5350.2,542.6,""smooth"",""down"",""down"",""good_move"",12098.7,3269.8,2846.4,8828.9,423.4,""smooth"",""down"",""down"",""good_move"",14978.5,2879.3,2440.3,12099.2,439,""smooth"",""down"",""down"",""good_move"",17934.2,2954.1,2492,14980.2,462,""oops"",""left"",""left"",""good_move"",20928.2,2993.2,2289.3,17935,703.9,""smooth"",""left"",""left"",""good_move"",24385.4,3456.2,3013.9,20929.3,442.2,""smooth"",""left"",""left"",""good_move""]","",""
"2561","","<div style=""width:500px;"">
  <p>What determined the result of this run?</p>
  </div>","96","html-slider-response","65","858332","0.0-5.0-1.11","283","1","2025-07-30 10:00:39","1f75c3e559b7213887762d5229550c2b","41.144.3.253","Mozilla/5.0 (Windows NT 10.0; Win64; x64) AppleWebKit/537.36 (KHTML, like Gecko) Chrome/138.0.0.0 Safari/537.36","WebKit","Chrome","138.0.0.0","Windows","10.0","https://app.prolific.com/","en-US,en;q=0.9","669f76a7112b8713f104644c","6877631c9844ddd5501205fc","6889ebe657f3c0d0a3ff7beb","3","1","669f76a7112b8713f104644c","3","1","2025-07-30T10:14:59.214Z","","","","","","","","","","","AttribQ","","50","","","","","","","","","","","","","","","","","","","","","","","","","","","","",""
"1550","","<div style=""width:500px;"">
  <p>How much control did you have over the ball?</p>
  </div>","92","html-slider-response","66","859884","0.0-5.0-2.11","283","1","2025-07-30 10:00:39","1f75c3e559b7213887762d5229550c2b","41.144.3.253","Mozilla/5.0 (Windows NT 10.0; Win64; x64) AppleWebKit/537.36 (KHTML, like Gecko) Chrome/138.0.0.0 Safari/537.36","WebKit","Chrome","138.0.0.0","Windows","10.0","https://app.prolific.com/","en-US,en;q=0.9","669f76a7112b8713f104644c","6877631c9844ddd5501205fc","6889ebe657f3c0d0a3ff7beb","3","1","669f76a7112b8713f104644c","3","1","2025-07-30T10:15:00.766Z","","","","","","","","","","","ControlQ","","50","","","","","","","","","","","","","","","","","","","","","","","","","","","","",""
"2912","","<div style=""width:500px;"">
  <p>How would you describe your current emotional state?</p>
  </div>","31","html-slider-response","67","862800","0.0-5.0-3.11","283","1","2025-07-30 10:00:39","1f75c3e559b7213887762d5229550c2b","41.144.3.253","Mozilla/5.0 (Windows NT 10.0; Win64; x64) AppleWebKit/537.36 (KHTML, like Gecko) Chrome/138.0.0.0 Safari/537.36","WebKit","Chrome","138.0.0.0","Windows","10.0","https://app.prolific.com/","en-US,en;q=0.9","669f76a7112b8713f104644c","6877631c9844ddd5501205fc","6889ebe657f3c0d0a3ff7beb","3","1","669f76a7112b8713f104644c","3","1","2025-07-30T10:15:03.682Z","","","","","","","","","","","StressQ","","50","","","","","","","","","","","","","","","","","","","","","","","","","","","","",""
"2472","","<div style=""width:500px;"">
  <p>What best describes how you currently feel?</p>
  </div>","78","html-slider-response","68","865273","0.0-5.0-4.11","283","1","2025-07-30 10:00:39","1f75c3e559b7213887762d5229550c2b","41.144.3.253","Mozilla/5.0 (Windows NT 10.0; Win64; x64) AppleWebKit/537.36 (KHTML, like Gecko) Chrome/138.0.0.0 Safari/537.36","WebKit","Chrome","138.0.0.0","Windows","10.0","https://app.prolific.com/","en-US,en;q=0.9","669f76a7112b8713f104644c","6877631c9844ddd5501205fc","6889ebe657f3c0d0a3ff7beb","3","1","669f76a7112b8713f104644c","3","1","2025-07-30T10:15:06.156Z","","","","","","","","","","","MotivationQ","","50","","","","","","","","","","","","","","","","","","","","","","","","","","","","",""
"","","","","ctl-task-cpt","69","928490","0.0-5.0-0.12","283","1","2025-07-30 10:00:39","1f75c3e559b7213887762d5229550c2b","41.144.3.253","Mozilla/5.0 (Windows NT 10.0; Win64; x64) AppleWebKit/537.36 (KHTML, like Gecko) Chrome/138.0.0.0 Safari/537.36","WebKit","Chrome","138.0.0.0","Windows","10.0","https://app.prolific.com/","en-US,en;q=0.9","669f76a7112b8713f104644c","6877631c9844ddd5501205fc","6889ebe657f3c0d0a3ff7beb","3","1","669f76a7112b8713f104644c","3","1","2025-07-30T10:16:09.373Z","","","","","","","","","","","","","","win-only","2","g1:SE,g2:NW","0.7","13","0","868900.8","1258.1","6264.4","60197.9","1","4","8","6","2","8","8","67","59","0.5075757575757576","1535.9","3000","1005","[""left"",""up""]","{""num_key_presses"":10,""num_perfect"":7,""num_errors"":0,""num_randdir"":3,""num_randdir_good_moves"":1,""num_whilered"":0,""num_whileblue"":0,""num_blue"":6,""num_good_moves"":8}","[297.22232142857143,299.12857142857143,0.4,297.22232142857143,299.12857142857143,107.1,297.22232142857143,299.12857142857143,215.8,297.22232142857143,299.12857142857143,333.8,278.22232142857143,287.12857142857143,456.9,100.22232142857143,172.12857142857143,594,98.22232142857143,165.12857142857143,707.5,98.22232142857143,165.12857142857143,832.3,79.22232142857143,118.12857142857143,948.1,76.22232142857143,102.12857142857143,1063,74.22232142857143,99.12857142857143,1164.8,69.22232142857143,91.12857142857143,1268.1,63.222321428571426,71.12857142857143,1375,63.222321428571426,71.12857142857143,1480.9,63.222321428571426,71.12857142857143,1583,63.222321428571426,71.12857142857143,1689.1,63.222321428571426,71.12857142857143,1795.3,63.222321428571426,71.12857142857143,1901.2,63.222321428571426,71.12857142857143,2005.8,120.22232142857143,117.12857142857143,2115.1,271.22232142857143,269.12857142857143,2216.1,305.22232142857143,339.12857142857143,2322.5,305.22232142857143,339.12857142857143,2429.6,305.22232142857143,339.12857142857143,2530,357.22232142857143,335.12857142857143,2630.8,361.22232142857143,333.12857142857143,2737.1,361.22232142857143,333.12857142857143,2838,361.22232142857143,333.12857142857143,2945.4,361.22232142857143,333.12857142857143,3056.1,361.22232142857143,333.12857142857143,3163.3,361.22232142857143,333.12857142857143,3267.9,361.22232142857143,333.12857142857143,3373.7,361.22232142857143,333.12857142857143,3475.4,361.22232142857143,333.12857142857143,3589,361.22232142857143,333.12857142857143,3690,361.22232142857143,333.12857142857143,3798.8,361.22232142857143,333.12857142857143,3901.6,361.22232142857143,333.12857142857143,4004.8,361.22232142857143,333.12857142857143,4110,361.22232142857143,333.12857142857143,4219.1,361.22232142857143,333.12857142857143,4321,361.22232142857143,333.12857142857143,4421.2,361.22232142857143,333.12857142857143,4526.6,361.22232142857143,333.12857142857143,4634.6,361.22232142857143,333.12857142857143,4738,361.22232142857143,333.12857142857143,4838.3,361.22232142857143,333.12857142857143,4942.6]","[8676.7,8676.7,3257.3,5007.8,411.6,""smooth"",""left"",""left"",""good_move"",12839.6,4161.7,3671.5,8677.9,490.2,""smooth"",""left"",""left"",""good_move"",21377.1,8536.3,3654.2,17239.4,483.5,""smooth"",""left"",""left"",""good_move"",24816.4,3439,2884.6,21377.4,554.4,""oops"",""up"",""down"",""bad_move"",27675.2,2857.9,2377.7,24817.3,480.2,""smooth"",""up"",""up"",""good_move"",34079.4,6403.4,2688.1,30918.1,473.2,""smooth"",""up"",""up"",""good_move"",43840.8,9760.7,2489.4,40821.4,530,""smooth"",""up"",""up"",""good_move"",47332.8,3491.6,3071.2,43841.2,420.4,""oops"",""up"",""right"",""bad_move"",50858.6,3524.6,3055.6,47334,469,""smooth"",""up"",""up"",""good_move"",53705.8,2846.2,2476.3,50859.8,369.7,""oops"",""left"",""left"",""good_move""]","",""
"2580","","<div style=""width:500px;"">
  <p>What determined the result of this run?</p>
  </div>","81","html-slider-response","70","931072","0.0-5.0-1.12","283","1","2025-07-30 10:00:39","1f75c3e559b7213887762d5229550c2b","41.144.3.253","Mozilla/5.0 (Windows NT 10.0; Win64; x64) AppleWebKit/537.36 (KHTML, like Gecko) Chrome/138.0.0.0 Safari/537.36","WebKit","Chrome","138.0.0.0","Windows","10.0","https://app.prolific.com/","en-US,en;q=0.9","669f76a7112b8713f104644c","6877631c9844ddd5501205fc","6889ebe657f3c0d0a3ff7beb","3","1","669f76a7112b8713f104644c","3","1","2025-07-30T10:16:11.954Z","","","","","","","","","","","AttribQ","","50","","","","","","","","","","","","","","","","","","","","","","","","","","","","",""
"2681","","<div style=""width:500px;"">
  <p>How much control did you have over the ball?</p>
  </div>","95","html-slider-response","71","933755","0.0-5.0-2.12","283","1","2025-07-30 10:00:39","1f75c3e559b7213887762d5229550c2b","41.144.3.253","Mozilla/5.0 (Windows NT 10.0; Win64; x64) AppleWebKit/537.36 (KHTML, like Gecko) Chrome/138.0.0.0 Safari/537.36","WebKit","Chrome","138.0.0.0","Windows","10.0","https://app.prolific.com/","en-US,en;q=0.9","669f76a7112b8713f104644c","6877631c9844ddd5501205fc","6889ebe657f3c0d0a3ff7beb","3","1","669f76a7112b8713f104644c","3","1","2025-07-30T10:16:14.637Z","","","","","","","","","","","ControlQ","","50","","","","","","","","","","","","","","","","","","","","","","","","","","","","",""
"2597","","<div style=""width:500px;"">
  <p>How would you describe your current emotional state?</p>
  </div>","24","html-slider-response","72","936354","0.0-5.0-3.12","283","1","2025-07-30 10:00:39","1f75c3e559b7213887762d5229550c2b","41.144.3.253","Mozilla/5.0 (Windows NT 10.0; Win64; x64) AppleWebKit/537.36 (KHTML, like Gecko) Chrome/138.0.0.0 Safari/537.36","WebKit","Chrome","138.0.0.0","Windows","10.0","https://app.prolific.com/","en-US,en;q=0.9","669f76a7112b8713f104644c","6877631c9844ddd5501205fc","6889ebe657f3c0d0a3ff7beb","3","1","669f76a7112b8713f104644c","3","1","2025-07-30T10:16:17.236Z","","","","","","","","","","","StressQ","","50","","","","","","","","","","","","","","","","","","","","","","","","","","","","",""
"2876","","<div style=""width:500px;"">
  <p>What best describes how you currently feel?</p>
  </div>","63","html-slider-response","73","939232","0.0-5.0-4.12","283","1","2025-07-30 10:00:39","1f75c3e559b7213887762d5229550c2b","41.144.3.253","Mozilla/5.0 (Windows NT 10.0; Win64; x64) AppleWebKit/537.36 (KHTML, like Gecko) Chrome/138.0.0.0 Safari/537.36","WebKit","Chrome","138.0.0.0","Windows","10.0","https://app.prolific.com/","en-US,en;q=0.9","669f76a7112b8713f104644c","6877631c9844ddd5501205fc","6889ebe657f3c0d0a3ff7beb","3","1","669f76a7112b8713f104644c","3","1","2025-07-30T10:16:20.114Z","","","","","","","","","","","MotivationQ","","50","","","","","","","","","","","","","","","","","","","","","","","","","","","","",""
