"rt","response_timestamp","stimulus","response","trial_type","trial_index","time_elapsed","internal_node_id","run_id","condition","recorded_at","source_code_version","ip","user_agent","device","browser","browser_version","platform","platform_version","referer","accept_language","PROLIFIC_PID","STUDY_ID","SESSION_ID","WEEK","BATCH","prolific_id","week","batch","realtime","success","responses","item_order","radio_event_ids","radio_event_times","key_event_times","mouse_event_times","straightlining","zigzagging","honeypot","eventType","view_history","slider_start","which_type","canvas_config","goals_layout","control_level","trial_number","tutorial_trial_number","trial_start_time","phase1_start_time","phase2_start_time","phase3_start_time","goal_1_value","goal_1_distance","goal_2_value","goal_2_distance","goal_selected","outcome","outcome_total","participant_final_score","participant_initial_score","participant_final_score_prop","goal_choice_rt","allocated_time","allocated_time_remaining","goal_direction","counts","mouse_movements","key_presses","question_order","question_id"
"42575","1753260662542","<p style='font-size:40px;line-height:1.25'><strong>Welcome to the experiment!</strong></p><p style='font-size:1.1em;line-height:1.25'>Thank you for participanting in our experiment again! You will be asked to play the Dysfunctional Ball Game again. We will briefly recap the rules before we start.</p><p style='font-size:1.1em;line-height:1.25'>Press <strong>Next</strong> to continue.</p>","0","custom-html-button-response","0","42577","0.0-0.0","199","1","2025-07-23 08:50:18","1f75c3e559b7213887762d5229550c2b","85.246.21.29","Mozilla/5.0 (Windows NT 10.0; Win64; x64) AppleWebKit/537.36 (KHTML, like Gecko) Chrome/138.0.0.0 Safari/537.36","WebKit","Chrome","138.0.0.0","Windows","10.0","https://app.prolific.com/","pt-PT,pt;q=0.9,en-US;q=0.8,en;q=0.7","65a93241fc1ee8c40991a861","683dba2a8a9dda3513610c04","6880a2472c96894cdac8b39f","3","0","65a93241fc1ee8c40991a861","3","0","2025-07-23T08:51:02.543Z","","","","","","","","","","","","","","","","","","","","","","","","","","","","","","","","","","","","","","","","","",""
"10419","","","","fullscreen","1","54013","0.0-1.0","199","1","2025-07-23 08:50:18","1f75c3e559b7213887762d5229550c2b","85.246.21.29","Mozilla/5.0 (Windows NT 10.0; Win64; x64) AppleWebKit/537.36 (KHTML, like Gecko) Chrome/138.0.0.0 Safari/537.36","WebKit","Chrome","138.0.0.0","Windows","10.0","https://app.prolific.com/","pt-PT,pt;q=0.9,en-US;q=0.8,en;q=0.7","65a93241fc1ee8c40991a861","683dba2a8a9dda3513610c04","6880a2472c96894cdac8b39f","3","0","65a93241fc1ee8c40991a861","3","0","","true","","","","","","","","","","","","","","","","","","","","","","","","","","","","","","","","","","","","","","","","",""
"958","1753260674938","<p style='font-size:1.1em;line-height:1.25'>In the following, we will ask you a few questions relating to your feelings in the last 24 hours.<br></p><p style='font-size:1.1em;line-height:1.25'>Press the <strong>Next</strong> button to continue.</p>","0","custom-html-button-response","2","54972","0.0-2.0-0.0","199","1","2025-07-23 08:50:18","1f75c3e559b7213887762d5229550c2b","85.246.21.29","Mozilla/5.0 (Windows NT 10.0; Win64; x64) AppleWebKit/537.36 (KHTML, like Gecko) Chrome/138.0.0.0 Safari/537.36","WebKit","Chrome","138.0.0.0","Windows","10.0","https://app.prolific.com/","pt-PT,pt;q=0.9,en-US;q=0.8,en;q=0.7","65a93241fc1ee8c40991a861","683dba2a8a9dda3513610c04","6880a2472c96894cdac8b39f","3","0","65a93241fc1ee8c40991a861","3","0","2025-07-23T08:51:14.938Z","","","","","","","","","","","","","","","","","","","","","","","","","","","","","","","","","","","","","","","","","",""
"33355.30000001192","","","","survey-template","3","88331","0.0-2.0-1.0","199","1","2025-07-23 08:50:18","1f75c3e559b7213887762d5229550c2b","85.246.21.29","Mozilla/5.0 (Windows NT 10.0; Win64; x64) AppleWebKit/537.36 (KHTML, like Gecko) Chrome/138.0.0.0 Safari/537.36","WebKit","Chrome","138.0.0.0","Windows","10.0","https://app.prolific.com/","pt-PT,pt;q=0.9,en-US;q=0.8,en;q=0.7","65a93241fc1ee8c40991a861","683dba2a8a9dda3513610c04","6880a2472c96894cdac8b39f","3","0","65a93241fc1ee8c40991a861","3","0","2025-07-23T08:51:48.297Z","","{""Q01"":""0"",""Q02"":""0"",""Q03"":""0"",""Q04"":""1"",""Q05"":""0"",""Q06"":""1"",""Q07"":""1"",""Q08"":""1"",""Q09"":""0"",""Q10"":""0"",""Q11"":""0"",""Q12"":""0"",""Q13"":""5"",""Q14"":""0"",""Q15"":""0"",""Q16"":""0"",""Q17"":""0"",""Q18"":""0"",""Q19"":""0"",""Q20"":""0"",""Q21"":""0"",""Q22"":""0""}","[0,1,2,3,4,5,6,7,8,9,10,11,12,13,14,15,16,17,18,19,20,21]","[""Q01"",""Q02"",""Q03"",""Q04"",""Q05"",""Q06"",""Q07"",""Q08"",""Q09"",""Q10"",""Q11"",""Q12"",""Q13"",""Q14"",""Q15"",""Q16"",""Q17"",""Q18"",""Q19"",""Q20"",""Q21"",""Q22""]","[2158.800000011921,3159.5,3847.100000023842,5149.800000011921,6786.300000011921,8624.600000023842,10028.400000035763,11674.200000047684,13680.300000011921,14295.900000035763,15258.200000047684,16237.200000047684,17763.100000023842,19718.5,20906.100000023842,21957.400000035763,23337.600000023842,24785.400000035763,25876.200000047684,26898.100000023842,27486.200000047684,28079.200000047684]","[]","[0.10000002384185791,2158.800000011921,3159.5,3847.100000023842,5149.800000011921,6786.300000011921,8624.600000023842,10028.400000035763,11674.200000047684,13680.300000011921,14295.900000035763,15258.200000047684,16237.200000047684,17763.100000023842,19718.5,20906.100000023842,21957.400000035763,23337.600000023842,24785.400000035763,25876.200000047684,26898.100000023842,27486.200000047684,28079.200000047684,33349.80000001192]","0.7727272727272727","0.2857142857142857","0","drsp","","","","","","","","","","","","","","","","","","","","","","","","","","","","","","",""
"9365.199999988079","","","","survey-template","4","97697","0.0-2.0-2.0","199","1","2025-07-23 08:50:18","1f75c3e559b7213887762d5229550c2b","85.246.21.29","Mozilla/5.0 (Windows NT 10.0; Win64; x64) AppleWebKit/537.36 (KHTML, like Gecko) Chrome/138.0.0.0 Safari/537.36","WebKit","Chrome","138.0.0.0","Windows","10.0","https://app.prolific.com/","pt-PT,pt;q=0.9,en-US;q=0.8,en;q=0.7","65a93241fc1ee8c40991a861","683dba2a8a9dda3513610c04","6880a2472c96894cdac8b39f","3","0","65a93241fc1ee8c40991a861","3","0","2025-07-23T08:51:57.663Z","","{""Q01"":""1"",""Q02"":""2"",""Q03"":""0""}","[0,1,2]","[""Q01"",""Q02"",""Q03""]","[2561.600000023842,6247.5,7247.5]","[]","[2561.600000023842,6247.5,7247.5,9364.300000011921]","0.3333333333333333","0","0","stress","","","","","","","","","","","","","","","","","","","","","","","","","","","","","","",""
"1486","","","","instructions","5","99184","0.0-3.0-0.0","199","1","2025-07-23 08:50:18","1f75c3e559b7213887762d5229550c2b","85.246.21.29","Mozilla/5.0 (Windows NT 10.0; Win64; x64) AppleWebKit/537.36 (KHTML, like Gecko) Chrome/138.0.0.0 Safari/537.36","WebKit","Chrome","138.0.0.0","Windows","10.0","https://app.prolific.com/","pt-PT,pt;q=0.9,en-US;q=0.8,en;q=0.7","65a93241fc1ee8c40991a861","683dba2a8a9dda3513610c04","6880a2472c96894cdac8b39f","3","0","65a93241fc1ee8c40991a861","3","0","","","","","","","","","","","","","[{""page_index"":0,""viewing_time"":1486}]","","","","","","","","","","","","","","","","","","","","","","","","","","","","","",""
"2659","","<p>Before you start with this game please answer the following three questions yourself. </p>
  <p>Through this game, we measure several aspects of your cognitive performance, such as reaction times, multi-tasking capabilities </p>
  <p>and the ability to assess the situation you are in.</p>
  <p></p>
  <p><b>How good do you usually are in such tasks?</b></p>","100","html-slider-response","6","101844","0.0-4.0-0.0","199","1","2025-07-23 08:50:18","1f75c3e559b7213887762d5229550c2b","85.246.21.29","Mozilla/5.0 (Windows NT 10.0; Win64; x64) AppleWebKit/537.36 (KHTML, like Gecko) Chrome/138.0.0.0 Safari/537.36","WebKit","Chrome","138.0.0.0","Windows","10.0","https://app.prolific.com/","pt-PT,pt;q=0.9,en-US;q=0.8,en;q=0.7","65a93241fc1ee8c40991a861","683dba2a8a9dda3513610c04","6880a2472c96894cdac8b39f","3","0","65a93241fc1ee8c40991a861","3","0","2025-07-23T08:52:01.810Z","","","","","","","","","","","PreSkillQ","","50","","","","","","","","","","","","","","","","","","","","","","","","","","","","",""
"2471","","<div style=""width:500px;"">
  <p>How well do you think you will perform in this task compared to other participants?</p>
  </div>","44","html-slider-response","7","104315","0.0-4.0-1.0","199","1","2025-07-23 08:50:18","1f75c3e559b7213887762d5229550c2b","85.246.21.29","Mozilla/5.0 (Windows NT 10.0; Win64; x64) AppleWebKit/537.36 (KHTML, like Gecko) Chrome/138.0.0.0 Safari/537.36","WebKit","Chrome","138.0.0.0","Windows","10.0","https://app.prolific.com/","pt-PT,pt;q=0.9,en-US;q=0.8,en;q=0.7","65a93241fc1ee8c40991a861","683dba2a8a9dda3513610c04","6880a2472c96894cdac8b39f","3","0","65a93241fc1ee8c40991a861","3","0","2025-07-23T08:52:04.281Z","","","","","","","","","","","PrePerfQ","","50","","","","","","","","","","","","","","","","","","","","","","","","","","","","",""
"2151","","<div style=""width:500px;"">
  <p>What best describes how you currently feel?</p>
  </div>","100","html-slider-response","8","106467","0.0-4.0-2.0","199","1","2025-07-23 08:50:18","1f75c3e559b7213887762d5229550c2b","85.246.21.29","Mozilla/5.0 (Windows NT 10.0; Win64; x64) AppleWebKit/537.36 (KHTML, like Gecko) Chrome/138.0.0.0 Safari/537.36","WebKit","Chrome","138.0.0.0","Windows","10.0","https://app.prolific.com/","pt-PT,pt;q=0.9,en-US;q=0.8,en;q=0.7","65a93241fc1ee8c40991a861","683dba2a8a9dda3513610c04","6880a2472c96894cdac8b39f","3","0","65a93241fc1ee8c40991a861","3","0","2025-07-23T08:52:06.433Z","","","","","","","","","","","PreMotivationQ","","50","","","","","","","","","","","","","","","","","","","","","","","","","","","","",""
"","","","","ctl-task-cpt","9","137841","0.0-5.0-0.0","199","1","2025-07-23 08:50:18","1f75c3e559b7213887762d5229550c2b","85.246.21.29","Mozilla/5.0 (Windows NT 10.0; Win64; x64) AppleWebKit/537.36 (KHTML, like Gecko) Chrome/138.0.0.0 Safari/537.36","WebKit","Chrome","138.0.0.0","Windows","10.0","https://app.prolific.com/","pt-PT,pt;q=0.9,en-US;q=0.8,en;q=0.7","65a93241fc1ee8c40991a861","683dba2a8a9dda3513610c04","6880a2472c96894cdac8b39f","3","0","65a93241fc1ee8c40991a861","3","0","2025-07-23T08:52:37.807Z","","","","","","","","","","","","","","win-only","1","g1:NE,g2:SW","1","1","0","107891.4","1116.7","6121.7","28366.9","1","4","4","6","2","4","3","3","0","0.022727272727272728","1252.2","3000","905","[""down"",""left""]","{""num_key_presses"":7,""num_perfect"":6,""num_errors"":1,""num_randdir"":0,""num_randdir_good_moves"":0,""num_whilered"":0,""num_whileblue"":0,""num_blue"":1,""num_good_moves"":6}","[412.57142857142856,421.47767857142856,0.1,412.57142857142856,421.47767857142856,104.9,412.57142857142856,421.47767857142856,205,412.57142857142856,421.47767857142856,309.9,412.57142857142856,421.47767857142856,415.2,412.57142857142856,421.47767857142856,518.6,412.57142857142856,421.47767857142856,618.9,400.57142857142856,444.47767857142856,719.4,114.57142857142857,754.4776785714286,820.9,54.57142857142857,798.4776785714286,924.6,67.57142857142857,793.4776785714286,1025.8,79.57142857142857,780.4776785714286,1130.1,94.57142857142857,766.4776785714286,1234.8,94.57142857142857,766.4776785714286,1334.9,94.57142857142857,766.4776785714286,1439.7,94.57142857142857,766.4776785714286,1544.4,142.57142857142856,746.4776785714286,1645.2,243.57142857142856,707.4776785714286,1749.3,56.57142857142857,682.4776785714286,1849.5,-252.42857142857144,509.47767857142856,1950.7,-262.42857142857144,461.47767857142856,2056.2,-262.42857142857144,461.47767857142856,2160.1,-262.42857142857144,461.47767857142856,2268.8,-262.42857142857144,461.47767857142856,2369.2,-262.42857142857144,461.47767857142856,2473.8,-262.42857142857144,461.47767857142856,2574.2,-262.42857142857144,461.47767857142856,2674.9,-262.42857142857144,461.47767857142856,2780.1,-262.42857142857144,461.47767857142856,2883.7,-262.42857142857144,461.47767857142856,2984.2,-262.42857142857144,461.47767857142856,3089.3,-262.42857142857144,461.47767857142856,3194.3,-262.42857142857144,461.47767857142856,3299.4,-262.42857142857144,461.47767857142856,3404.7,-262.42857142857144,461.47767857142856,3505.1,-262.42857142857144,461.47767857142856,3609.7,-262.42857142857144,461.47767857142856,3714.2,-262.42857142857144,461.47767857142856,3814.6,-262.42857142857144,461.47767857142856,3919.7,-262.42857142857144,461.47767857142856,4019.7,-262.42857142857144,461.47767857142856,4123.9,-262.42857142857144,461.47767857142856,4228.8,-262.42857142857144,461.47767857142856,4329,-262.42857142857144,461.47767857142856,4429.1,-262.42857142857144,461.47767857142856,4529.9,-262.42857142857144,461.47767857142856,4630.2,-262.42857142857144,461.47767857142856,4734.2,-262.42857142857144,461.47767857142856,4834.5,-262.42857142857144,461.47767857142856,4938.9]","[261.6,261.6,1000,0,-738.4,""error"",""-"",""-"",""no_move"",8565.9,8304.2,3022.1,5124.8,419,""smooth"",""left"",""left"",""good_move"",11837,3270.8,2928,8566.2,342.8,""smooth"",""down"",""down"",""good_move"",14255.3,2418.1,2068.7,11837.2,349.4,""smooth"",""left"",""left"",""good_move"",16270.1,2014.2,1666.6,14255.9,347.6,""smooth"",""down"",""down"",""good_move"",18773.7,2503.4,2155.4,16270.3,348,""smooth"",""left"",""left"",""good_move"",22157.2,3383.4,3067.3,18773.8,316.1,""smooth"",""down"",""down"",""good_move""]","",""
"2759","","<div style=""width:500px;"">
  <p>What determined the result of this run?</p>
  </div>","0","html-slider-response","10","140601","0.0-5.0-1.0","199","1","2025-07-23 08:50:18","1f75c3e559b7213887762d5229550c2b","85.246.21.29","Mozilla/5.0 (Windows NT 10.0; Win64; x64) AppleWebKit/537.36 (KHTML, like Gecko) Chrome/138.0.0.0 Safari/537.36","WebKit","Chrome","138.0.0.0","Windows","10.0","https://app.prolific.com/","pt-PT,pt;q=0.9,en-US;q=0.8,en;q=0.7","65a93241fc1ee8c40991a861","683dba2a8a9dda3513610c04","6880a2472c96894cdac8b39f","3","0","65a93241fc1ee8c40991a861","3","0","2025-07-23T08:52:40.567Z","","","","","","","","","","","AttribQ","","50","","","","","","","","","","","","","","","","","","","","","","","","","","","","",""
"3265","","<div style=""width:500px;"">
  <p>How much control did you have over the ball?</p>
  </div>","100","html-slider-response","11","143866","0.0-5.0-2.0","199","1","2025-07-23 08:50:18","1f75c3e559b7213887762d5229550c2b","85.246.21.29","Mozilla/5.0 (Windows NT 10.0; Win64; x64) AppleWebKit/537.36 (KHTML, like Gecko) Chrome/138.0.0.0 Safari/537.36","WebKit","Chrome","138.0.0.0","Windows","10.0","https://app.prolific.com/","pt-PT,pt;q=0.9,en-US;q=0.8,en;q=0.7","65a93241fc1ee8c40991a861","683dba2a8a9dda3513610c04","6880a2472c96894cdac8b39f","3","0","65a93241fc1ee8c40991a861","3","0","2025-07-23T08:52:43.833Z","","","","","","","","","","","ControlQ","","50","","","","","","","","","","","","","","","","","","","","","","","","","","","","",""
"1436","","<div style=""width:500px;"">
  <p>How would you describe your current emotional state?</p>
  </div>","0","html-slider-response","12","145303","0.0-5.0-3.0","199","1","2025-07-23 08:50:18","1f75c3e559b7213887762d5229550c2b","85.246.21.29","Mozilla/5.0 (Windows NT 10.0; Win64; x64) AppleWebKit/537.36 (KHTML, like Gecko) Chrome/138.0.0.0 Safari/537.36","WebKit","Chrome","138.0.0.0","Windows","10.0","https://app.prolific.com/","pt-PT,pt;q=0.9,en-US;q=0.8,en;q=0.7","65a93241fc1ee8c40991a861","683dba2a8a9dda3513610c04","6880a2472c96894cdac8b39f","3","0","65a93241fc1ee8c40991a861","3","0","2025-07-23T08:52:45.269Z","","","","","","","","","","","StressQ","","50","","","","","","","","","","","","","","","","","","","","","","","","","","","","",""
"1755","","<div style=""width:500px;"">
  <p>What best describes how you currently feel?</p>
  </div>","100","html-slider-response","13","147059","0.0-5.0-4.0","199","1","2025-07-23 08:50:18","1f75c3e559b7213887762d5229550c2b","85.246.21.29","Mozilla/5.0 (Windows NT 10.0; Win64; x64) AppleWebKit/537.36 (KHTML, like Gecko) Chrome/138.0.0.0 Safari/537.36","WebKit","Chrome","138.0.0.0","Windows","10.0","https://app.prolific.com/","pt-PT,pt;q=0.9,en-US;q=0.8,en;q=0.7","65a93241fc1ee8c40991a861","683dba2a8a9dda3513610c04","6880a2472c96894cdac8b39f","3","0","65a93241fc1ee8c40991a861","3","0","2025-07-23T08:52:47.025Z","","","","","","","","","","","MotivationQ","","50","","","","","","","","","","","","","","","","","","","","","","","","","","","","",""
"","","","","ctl-task-cpt","14","182807","0.0-5.0-0.1","199","1","2025-07-23 08:50:18","1f75c3e559b7213887762d5229550c2b","85.246.21.29","Mozilla/5.0 (Windows NT 10.0; Win64; x64) AppleWebKit/537.36 (KHTML, like Gecko) Chrome/138.0.0.0 Safari/537.36","WebKit","Chrome","138.0.0.0","Windows","10.0","https://app.prolific.com/","pt-PT,pt;q=0.9,en-US;q=0.8,en;q=0.7","65a93241fc1ee8c40991a861","683dba2a8a9dda3513610c04","6880a2472c96894cdac8b39f","3","0","65a93241fc1ee8c40991a861","3","0","2025-07-23T08:53:22.773Z","","","","","","","","","","","","","","win-only","3","g1:SW,g2:NE","0.9","2","0","148481.6","1229.4","6233.9","32743","1","4","8","6","2","8","7","10","3","0.07575757575757576","1019.1","3000","600","[""up"",""right""]","{""num_key_presses"":8,""num_perfect"":7,""num_errors"":1,""num_randdir"":0,""num_randdir_good_moves"":0,""num_whilered"":0,""num_whileblue"":1,""num_blue"":3,""num_good_moves"":7}","[419.57142857142856,417.47767857142856,0.2,419.57142857142856,417.47767857142856,103.6,419.57142857142856,417.47767857142856,207.7,404.57142857142856,422.47767857142856,313.3,330.57142857142856,467.47767857142856,416.3,496.57142857142856,398.47767857142856,522.5,711.5714285714286,152.47767857142856,626.8,724.5714285714286,102.47767857142857,727.7,724.5714285714286,99.47767857142857,835,724.5714285714286,99.47767857142857,937.6,724.5714285714286,99.47767857142857,1041.8,724.5714285714286,99.47767857142857,1142.4,743.5714285714286,101.47767857142857,1242.6,1139.5714285714287,175.47767857142856,1347.2,1185.5714285714287,187.47767857142856,1452,1185.5714285714287,187.47767857142856,1553.5,1185.5714285714287,187.47767857142856,1657.8,1185.5714285714287,187.47767857142856,1757.9,1185.5714285714287,187.47767857142856,1862,1185.5714285714287,187.47767857142856,1967.6,1185.5714285714287,187.47767857142856,2071.7,1185.5714285714287,187.47767857142856,2172.3,1185.5714285714287,187.47767857142856,2277,1185.5714285714287,187.47767857142856,2377.2,1185.5714285714287,187.47767857142856,2477.6,1185.5714285714287,187.47767857142856,2581.7,1185.5714285714287,187.47767857142856,2682.3,1185.5714285714287,187.47767857142856,2782.7,1185.5714285714287,187.47767857142856,2886.6,1185.5714285714287,187.47767857142856,2993,1185.5714285714287,187.47767857142856,3096.8,1185.5714285714287,187.47767857142856,3197.1,1185.5714285714287,187.47767857142856,3302.6,1185.5714285714287,187.47767857142856,3408,1185.5714285714287,187.47767857142856,3514,1185.5714285714287,187.47767857142856,3617.6,1185.5714285714287,187.47767857142856,3721.5,1185.5714285714287,187.47767857142856,3821.6,1185.5714285714287,187.47767857142856,3927.8,1185.5714285714287,187.47767857142856,4032.4,1185.5714285714287,187.47767857142856,4136.7,1185.5714285714287,187.47767857142856,4237.5,1185.5714285714287,187.47767857142856,4341.8,1185.5714285714287,187.47767857142856,4442,1185.5714285714287,187.47767857142856,4546.9,1185.5714285714287,187.47767857142856,4652,1185.5714285714287,187.47767857142856,4757.8,1185.5714285714287,187.47767857142856,4862.1,1185.5714285714287,187.47767857142856,4962.7]","[4215.5,4215.5,1849.2,2002.8,363.5,""smooth"",""up"",""up"",""good_move"",6399.1,2183.2,1831.5,4215.9,351.7,""smooth"",""right"",""right"",""good_move"",9254.4,2855,2512.7,6399.4,342.3,""smooth"",""up"",""up"",""good_move"",11926.8,2672.2,2352.3,9254.6,319.9,""while_blue"",""right"",""down"",""bad_move"",17999.4,6072.2,1899.3,15747,353.1,""smooth"",""right"",""right"",""good_move"",20862.8,2863.1,2488.9,17999.7,374.2,""smooth"",""up"",""up"",""good_move"",23198.8,2335.8,2003.6,20863,332.2,""smooth"",""right"",""right"",""good_move"",26423.3,3224.4,2900.5,23198.9,323.9,""smooth"",""up"",""up"",""good_move""]","",""
"2359","","<div style=""width:500px;"">
  <p>What determined the result of this run?</p>
  </div>","0","html-slider-response","15","185167","0.0-5.0-1.1","199","1","2025-07-23 08:50:18","1f75c3e559b7213887762d5229550c2b","85.246.21.29","Mozilla/5.0 (Windows NT 10.0; Win64; x64) AppleWebKit/537.36 (KHTML, like Gecko) Chrome/138.0.0.0 Safari/537.36","WebKit","Chrome","138.0.0.0","Windows","10.0","https://app.prolific.com/","pt-PT,pt;q=0.9,en-US;q=0.8,en;q=0.7","65a93241fc1ee8c40991a861","683dba2a8a9dda3513610c04","6880a2472c96894cdac8b39f","3","0","65a93241fc1ee8c40991a861","3","0","2025-07-23T08:53:25.134Z","","","","","","","","","","","AttribQ","","50","","","","","","","","","","","","","","","","","","","","","","","","","","","","",""
"2627","","<div style=""width:500px;"">
  <p>How much control did you have over the ball?</p>
  </div>","28","html-slider-response","16","187795","0.0-5.0-2.1","199","1","2025-07-23 08:50:18","1f75c3e559b7213887762d5229550c2b","85.246.21.29","Mozilla/5.0 (Windows NT 10.0; Win64; x64) AppleWebKit/537.36 (KHTML, like Gecko) Chrome/138.0.0.0 Safari/537.36","WebKit","Chrome","138.0.0.0","Windows","10.0","https://app.prolific.com/","pt-PT,pt;q=0.9,en-US;q=0.8,en;q=0.7","65a93241fc1ee8c40991a861","683dba2a8a9dda3513610c04","6880a2472c96894cdac8b39f","3","0","65a93241fc1ee8c40991a861","3","0","2025-07-23T08:53:27.761Z","","","","","","","","","","","ControlQ","","50","","","","","","","","","","","","","","","","","","","","","","","","","","","","",""
"1510","","<div style=""width:500px;"">
  <p>How would you describe your current emotional state?</p>
  </div>","0","html-slider-response","17","189306","0.0-5.0-3.1","199","1","2025-07-23 08:50:18","1f75c3e559b7213887762d5229550c2b","85.246.21.29","Mozilla/5.0 (Windows NT 10.0; Win64; x64) AppleWebKit/537.36 (KHTML, like Gecko) Chrome/138.0.0.0 Safari/537.36","WebKit","Chrome","138.0.0.0","Windows","10.0","https://app.prolific.com/","pt-PT,pt;q=0.9,en-US;q=0.8,en;q=0.7","65a93241fc1ee8c40991a861","683dba2a8a9dda3513610c04","6880a2472c96894cdac8b39f","3","0","65a93241fc1ee8c40991a861","3","0","2025-07-23T08:53:29.273Z","","","","","","","","","","","StressQ","","50","","","","","","","","","","","","","","","","","","","","","","","","","","","","",""
"1426","","<div style=""width:500px;"">
  <p>What best describes how you currently feel?</p>
  </div>","100","html-slider-response","18","190733","0.0-5.0-4.1","199","1","2025-07-23 08:50:18","1f75c3e559b7213887762d5229550c2b","85.246.21.29","Mozilla/5.0 (Windows NT 10.0; Win64; x64) AppleWebKit/537.36 (KHTML, like Gecko) Chrome/138.0.0.0 Safari/537.36","WebKit","Chrome","138.0.0.0","Windows","10.0","https://app.prolific.com/","pt-PT,pt;q=0.9,en-US;q=0.8,en;q=0.7","65a93241fc1ee8c40991a861","683dba2a8a9dda3513610c04","6880a2472c96894cdac8b39f","3","0","65a93241fc1ee8c40991a861","3","0","2025-07-23T08:53:30.699Z","","","","","","","","","","","MotivationQ","","50","","","","","","","","","","","","","","","","","","","","","","","","","","","","",""
"","","","","ctl-task-cpt","19","216932","0.0-5.0-0.2","199","1","2025-07-23 08:50:18","1f75c3e559b7213887762d5229550c2b","85.246.21.29","Mozilla/5.0 (Windows NT 10.0; Win64; x64) AppleWebKit/537.36 (KHTML, like Gecko) Chrome/138.0.0.0 Safari/537.36","WebKit","Chrome","138.0.0.0","Windows","10.0","https://app.prolific.com/","pt-PT,pt;q=0.9,en-US;q=0.8,en;q=0.7","65a93241fc1ee8c40991a861","683dba2a8a9dda3513610c04","6880a2472c96894cdac8b39f","3","0","65a93241fc1ee8c40991a861","3","0","2025-07-23T08:53:56.898Z","","","","","","","","","","","","","","win-only","2","g1:SE,g2:NW","0.8","3","0","192156.8","1064.3","6066.9","23193.8","1","4","8","6","1","1","1","11","10","0.08333333333333333","1227.7","3000","1655","[""down"",""right""]","{""num_key_presses"":4,""num_perfect"":3,""num_errors"":0,""num_randdir"":1,""num_randdir_good_moves"":1,""num_whilered"":0,""num_whileblue"":0,""num_blue"":2,""num_good_moves"":4}","[408.57142857142856,411.47767857142856,0.2,408.57142857142856,411.47767857142856,102.9,408.57142857142856,411.47767857142856,204,408.57142857142856,411.47767857142856,309.7,408.57142857142856,411.47767857142856,411.7,408.57142857142856,411.47767857142856,511.8,408.57142857142856,411.47767857142856,612.9,407.57142857142856,409.47767857142856,717.5,407.57142857142856,409.47767857142856,823.3,511.57142857142856,479.47767857142856,923.6,799.5714285714286,739.4776785714286,1025,810.5714285714286,766.4776785714286,1130.2,754.5714285714286,762.4776785714286,1235.3,754.5714285714286,762.4776785714286,1338.3,784.5714285714286,742.4776785714286,1444,1034.5714285714287,632.4776785714286,1547.2,1077.5714285714287,614.4776785714286,1647.2,1077.5714285714287,614.4776785714286,1747.8,1077.5714285714287,614.4776785714286,1848,1077.5714285714287,614.4776785714286,1948,1077.5714285714287,614.4776785714286,2053.1,1077.5714285714287,614.4776785714286,2153.8,1077.5714285714287,614.4776785714286,2256.9,1077.5714285714287,614.4776785714286,2362.5,1077.5714285714287,614.4776785714286,2467,1077.5714285714287,614.4776785714286,2568.2,1077.5714285714287,614.4776785714286,2672.6,1077.5714285714287,614.4776785714286,2773.1,1077.5714285714287,614.4776785714286,2877.3,1077.5714285714287,614.4776785714286,2983.1,1077.5714285714287,614.4776785714286,3088.8,1077.5714285714287,614.4776785714286,3192.4,1077.5714285714287,614.4776785714286,3292.7,1077.5714285714287,614.4776785714286,3392.9,1077.5714285714287,614.4776785714286,3497.2,1077.5714285714287,614.4776785714286,3597.6,1077.5714285714287,614.4776785714286,3702.3,1077.5714285714287,614.4776785714286,3803.2,1077.5714285714287,614.4776785714286,3907.4,1077.5714285714287,614.4776785714286,4012.9,1077.5714285714287,614.4776785714286,4113.7,1077.5714285714287,614.4776785714286,4217.4,1077.5714285714287,614.4776785714286,4317.9,1077.5714285714287,614.4776785714286,4422.1,1077.5714285714287,614.4776785714286,4524.1,1077.5714285714287,614.4776785714286,4627.5,1077.5714285714287,614.4776785714286,4734,1077.5714285714287,614.4776785714286,4837.9,1077.5714285714287,614.4776785714286,4942.1]","[5746.6,5746.6,3405.2,2002,339.4,""smooth"",""down"",""down"",""good_move"",8362.9,2615.9,2257.5,5747,358.4,""smooth"",""right"",""right"",""good_move"",15011.5,6648.2,2948.1,11711.9,351.5,""smooth"",""down"",""down"",""good_move"",17036.2,2024.5,1679.1,15011.7,345.4,""oops"",""right"",""right"",""good_move""]","",""
"12799","","<div style=""width:500px;"">
  <p>What determined the result of this run?</p>
  </div>","0","html-slider-response","20","229732","0.0-5.0-1.2","199","1","2025-07-23 08:50:18","1f75c3e559b7213887762d5229550c2b","85.246.21.29","Mozilla/5.0 (Windows NT 10.0; Win64; x64) AppleWebKit/537.36 (KHTML, like Gecko) Chrome/138.0.0.0 Safari/537.36","WebKit","Chrome","138.0.0.0","Windows","10.0","https://app.prolific.com/","pt-PT,pt;q=0.9,en-US;q=0.8,en;q=0.7","65a93241fc1ee8c40991a861","683dba2a8a9dda3513610c04","6880a2472c96894cdac8b39f","3","0","65a93241fc1ee8c40991a861","3","0","2025-07-23T08:54:09.698Z","","","","","","","","","","","AttribQ","","50","","","","","","","","","","","","","","","","","","","","","","","","","","","","",""
"3659","","<div style=""width:500px;"">
  <p>How much control did you have over the ball?</p>
  </div>","84","html-slider-response","21","233391","0.0-5.0-2.2","199","1","2025-07-23 08:50:18","1f75c3e559b7213887762d5229550c2b","85.246.21.29","Mozilla/5.0 (Windows NT 10.0; Win64; x64) AppleWebKit/537.36 (KHTML, like Gecko) Chrome/138.0.0.0 Safari/537.36","WebKit","Chrome","138.0.0.0","Windows","10.0","https://app.prolific.com/","pt-PT,pt;q=0.9,en-US;q=0.8,en;q=0.7","65a93241fc1ee8c40991a861","683dba2a8a9dda3513610c04","6880a2472c96894cdac8b39f","3","0","65a93241fc1ee8c40991a861","3","0","2025-07-23T08:54:13.357Z","","","","","","","","","","","ControlQ","","50","","","","","","","","","","","","","","","","","","","","","","","","","","","","",""
"1243","","<div style=""width:500px;"">
  <p>How would you describe your current emotional state?</p>
  </div>","0","html-slider-response","22","234635","0.0-5.0-3.2","199","1","2025-07-23 08:50:18","1f75c3e559b7213887762d5229550c2b","85.246.21.29","Mozilla/5.0 (Windows NT 10.0; Win64; x64) AppleWebKit/537.36 (KHTML, like Gecko) Chrome/138.0.0.0 Safari/537.36","WebKit","Chrome","138.0.0.0","Windows","10.0","https://app.prolific.com/","pt-PT,pt;q=0.9,en-US;q=0.8,en;q=0.7","65a93241fc1ee8c40991a861","683dba2a8a9dda3513610c04","6880a2472c96894cdac8b39f","3","0","65a93241fc1ee8c40991a861","3","0","2025-07-23T08:54:14.601Z","","","","","","","","","","","StressQ","","50","","","","","","","","","","","","","","","","","","","","","","","","","","","","",""
"1571","","<div style=""width:500px;"">
  <p>What best describes how you currently feel?</p>
  </div>","100","html-slider-response","23","236207","0.0-5.0-4.2","199","1","2025-07-23 08:50:18","1f75c3e559b7213887762d5229550c2b","85.246.21.29","Mozilla/5.0 (Windows NT 10.0; Win64; x64) AppleWebKit/537.36 (KHTML, like Gecko) Chrome/138.0.0.0 Safari/537.36","WebKit","Chrome","138.0.0.0","Windows","10.0","https://app.prolific.com/","pt-PT,pt;q=0.9,en-US;q=0.8,en;q=0.7","65a93241fc1ee8c40991a861","683dba2a8a9dda3513610c04","6880a2472c96894cdac8b39f","3","0","65a93241fc1ee8c40991a861","3","0","2025-07-23T08:54:16.173Z","","","","","","","","","","","MotivationQ","","50","","","","","","","","","","","","","","","","","","","","","","","","","","","","",""
"","","","","ctl-task-cpt","24","281739","0.0-5.0-0.3","199","1","2025-07-23 08:50:18","1f75c3e559b7213887762d5229550c2b","85.246.21.29","Mozilla/5.0 (Windows NT 10.0; Win64; x64) AppleWebKit/537.36 (KHTML, like Gecko) Chrome/138.0.0.0 Safari/537.36","WebKit","Chrome","138.0.0.0","Windows","10.0","https://app.prolific.com/","pt-PT,pt;q=0.9,en-US;q=0.8,en;q=0.7","65a93241fc1ee8c40991a861","683dba2a8a9dda3513610c04","6880a2472c96894cdac8b39f","3","0","65a93241fc1ee8c40991a861","3","0","2025-07-23T08:55:01.706Z","","","","","","","","","","","","","","win-only","1","g1:NE,g2:SW","0.7","4","0","237630.7","1679.1","6683","42516.6","1","4","4","6","2","4","4","15","11","0.11363636363636363","1106.8","3000","120","[""down"",""left""]","{""num_key_presses"":8,""num_perfect"":6,""num_errors"":0,""num_randdir"":2,""num_randdir_good_moves"":1,""num_whilered"":0,""num_whileblue"":0,""num_blue"":4,""num_good_moves"":7}","[411.57142857142856,420.47767857142856,0.1,411.57142857142856,420.47767857142856,102.6,411.57142857142856,420.47767857142856,207.5,411.57142857142856,420.47767857142856,308,411.57142857142856,420.47767857142856,410.3,385.57142857142856,430.47767857142856,513.3,235.57142857142856,656.4776785714286,618.1,171.57142857142856,711.4776785714286,721.3,133.57142857142856,726.4776785714286,822.7,133.57142857142856,726.4776785714286,927,115.57142857142857,730.4776785714286,1027.9,100.57142857142857,735.4776785714286,1131.8,100.57142857142857,735.4776785714286,1232.5,100.57142857142857,735.4776785714286,1336.1,100.57142857142857,735.4776785714286,1437.1,100.57142857142857,735.4776785714286,1537.5,100.57142857142857,735.4776785714286,1637.6,100.57142857142857,735.4776785714286,1742.7,100.57142857142857,735.4776785714286,1846.7,100.57142857142857,735.4776785714286,1946.7,248.57142857142856,689.4776785714286,2049.9,913.5714285714286,592.4776785714286,2153.9,1251.5714285714287,576.4776785714286,2256.5,1253.5714285714287,576.4776785714286,2361.5,1253.5714285714287,576.4776785714286,2467.4,1253.5714285714287,576.4776785714286,2571.7,1253.5714285714287,576.4776785714286,2671.8,1253.5714285714287,576.4776785714286,2778.1,1253.5714285714287,576.4776785714286,2881.3,1253.5714285714287,576.4776785714286,2983.1,1253.5714285714287,576.4776785714286,3086.5,1253.5714285714287,576.4776785714286,3186.8,1253.5714285714287,576.4776785714286,3289.6,1253.5714285714287,576.4776785714286,3391.5,1253.5714285714287,576.4776785714286,3492.2,1253.5714285714287,576.4776785714286,3596.3,1253.5714285714287,576.4776785714286,3696.3,1253.5714285714287,576.4776785714286,3797.4,1253.5714285714287,576.4776785714286,3897.8,1253.5714285714287,576.4776785714286,4001.2,1253.5714285714287,576.4776785714286,4102.4,1253.5714285714287,576.4776785714286,4206.4,1253.5714285714287,576.4776785714286,4308.8,1253.5714285714287,576.4776785714286,4412,1253.5714285714287,576.4776785714286,4516.5,1253.5714285714287,576.4776785714286,4619.5,1253.5714285714287,576.4776785714286,4721.2,1253.5714285714287,576.4776785714286,4821.8,1253.5714285714287,576.4776785714286,4926.2]","[1409.4,1409.4,1000,0,409.4,""oops"",""down"",""right"",""bad_move"",3969.4,2559.2,2156.2,1410.2,403,""smooth"",""down"",""down"",""good_move"",6329,2359.1,1989.4,3969.9,369.7,""smooth"",""down"",""down"",""good_move"",9152,2822.6,2426.6,6329.4,396,""smooth"",""left"",""left"",""good_move"",12576.2,3423.8,3099,9152.4,324.8,""oops"",""down"",""left"",""good_move"",23913.5,11337,2899.3,20642.6,371.6,""smooth"",""left"",""left"",""good_move"",26880.8,2967.1,2591.5,23913.7,375.6,""smooth"",""down"",""down"",""good_move"",35745.1,8863.8,1527.6,33912.4,305.1,""smooth"",""left"",""left"",""good_move""]","",""
"13093","","<div style=""width:500px;"">
  <p>What determined the result of this run?</p>
  </div>","0","html-slider-response","25","294834","0.0-5.0-1.3","199","1","2025-07-23 08:50:18","1f75c3e559b7213887762d5229550c2b","85.246.21.29","Mozilla/5.0 (Windows NT 10.0; Win64; x64) AppleWebKit/537.36 (KHTML, like Gecko) Chrome/138.0.0.0 Safari/537.36","WebKit","Chrome","138.0.0.0","Windows","10.0","https://app.prolific.com/","pt-PT,pt;q=0.9,en-US;q=0.8,en;q=0.7","65a93241fc1ee8c40991a861","683dba2a8a9dda3513610c04","6880a2472c96894cdac8b39f","3","0","65a93241fc1ee8c40991a861","3","0","2025-07-23T08:55:14.800Z","","","","","","","","","","","AttribQ","","50","","","","","","","","","","","","","","","","","","","","","","","","","","","","",""
"2657","","<div style=""width:500px;"">
  <p>How much control did you have over the ball?</p>
  </div>","38","html-slider-response","26","297492","0.0-5.0-2.3","199","1","2025-07-23 08:50:18","1f75c3e559b7213887762d5229550c2b","85.246.21.29","Mozilla/5.0 (Windows NT 10.0; Win64; x64) AppleWebKit/537.36 (KHTML, like Gecko) Chrome/138.0.0.0 Safari/537.36","WebKit","Chrome","138.0.0.0","Windows","10.0","https://app.prolific.com/","pt-PT,pt;q=0.9,en-US;q=0.8,en;q=0.7","65a93241fc1ee8c40991a861","683dba2a8a9dda3513610c04","6880a2472c96894cdac8b39f","3","0","65a93241fc1ee8c40991a861","3","0","2025-07-23T08:55:17.458Z","","","","","","","","","","","ControlQ","","50","","","","","","","","","","","","","","","","","","","","","","","","","","","","",""
"1575","","<div style=""width:500px;"">
  <p>How would you describe your current emotional state?</p>
  </div>","0","html-slider-response","27","299068","0.0-5.0-3.3","199","1","2025-07-23 08:50:18","1f75c3e559b7213887762d5229550c2b","85.246.21.29","Mozilla/5.0 (Windows NT 10.0; Win64; x64) AppleWebKit/537.36 (KHTML, like Gecko) Chrome/138.0.0.0 Safari/537.36","WebKit","Chrome","138.0.0.0","Windows","10.0","https://app.prolific.com/","pt-PT,pt;q=0.9,en-US;q=0.8,en;q=0.7","65a93241fc1ee8c40991a861","683dba2a8a9dda3513610c04","6880a2472c96894cdac8b39f","3","0","65a93241fc1ee8c40991a861","3","0","2025-07-23T08:55:19.034Z","","","","","","","","","","","StressQ","","50","","","","","","","","","","","","","","","","","","","","","","","","","","","","",""
"1557","","<div style=""width:500px;"">
  <p>What best describes how you currently feel?</p>
  </div>","100","html-slider-response","28","300626","0.0-5.0-4.3","199","1","2025-07-23 08:50:18","1f75c3e559b7213887762d5229550c2b","85.246.21.29","Mozilla/5.0 (Windows NT 10.0; Win64; x64) AppleWebKit/537.36 (KHTML, like Gecko) Chrome/138.0.0.0 Safari/537.36","WebKit","Chrome","138.0.0.0","Windows","10.0","https://app.prolific.com/","pt-PT,pt;q=0.9,en-US;q=0.8,en;q=0.7","65a93241fc1ee8c40991a861","683dba2a8a9dda3513610c04","6880a2472c96894cdac8b39f","3","0","65a93241fc1ee8c40991a861","3","0","2025-07-23T08:55:20.593Z","","","","","","","","","","","MotivationQ","","50","","","","","","","","","","","","","","","","","","","","","","","","","","","","",""
"","","","","ctl-task-cpt","29","336550","0.0-5.0-0.4","199","1","2025-07-23 08:50:18","1f75c3e559b7213887762d5229550c2b","85.246.21.29","Mozilla/5.0 (Windows NT 10.0; Win64; x64) AppleWebKit/537.36 (KHTML, like Gecko) Chrome/138.0.0.0 Safari/537.36","WebKit","Chrome","138.0.0.0","Windows","10.0","https://app.prolific.com/","pt-PT,pt;q=0.9,en-US;q=0.8,en;q=0.7","65a93241fc1ee8c40991a861","683dba2a8a9dda3513610c04","6880a2472c96894cdac8b39f","3","0","65a93241fc1ee8c40991a861","3","0","2025-07-23T08:55:56.516Z","","","","","","","","","","","","","","win-only","0","g1:NW,g2:SE","0.6","5","0","302051","1114.9","6117","32901.5","1","4","8","6","1","1","1","16","15","0.12121212121212122","1174.7","3000","905","[""left"",""up""]","{""num_key_presses"":6,""num_perfect"":4,""num_errors"":0,""num_randdir"":2,""num_randdir_good_moves"":1,""num_whilered"":0,""num_whileblue"":0,""num_blue"":3,""num_good_moves"":5}","[408.57142857142856,412.47767857142856,0.2,408.57142857142856,412.47767857142856,101.3,408.57142857142856,412.47767857142856,201.4,408.57142857142856,412.47767857142856,302.5,411.57142857142856,419.47767857142856,403.6,508.57142857142856,528.4776785714286,508.8,553.5714285714286,616.4776785714286,610.5,551.5714285714286,627.4776785714286,711.7,530.5714285714286,621.4776785714286,816.9,169.57142857142856,269.47767857142856,917,49.57142857142857,131.47767857142856,1022,37.57142857142857,96.47767857142857,1125.5,31.57142857142857,82.47767857142857,1226.1,31.57142857142857,82.47767857142857,1327.8,31.57142857142857,82.47767857142857,1431,31.57142857142857,82.47767857142857,1533.5,-49.42857142857143,109.47767857142857,1637.2,-171.42857142857144,169.47767857142856,1742.4,-192.42857142857144,212.47767857142856,1843.1,-218.42857142857144,216.47767857142856,1945.7,-218.42857142857144,216.47767857142856,2054.9,-218.42857142857144,216.47767857142856,2157.7,-217.42857142857144,215.47767857142856,2261.4,-217.42857142857144,214.47767857142856,2361.6,-217.42857142857144,214.47767857142856,2462.3,-217.42857142857144,214.47767857142856,2564.4,-217.42857142857144,213.47767857142856,2666.4,-217.42857142857144,213.47767857142856,2770.4,-218.42857142857144,215.47767857142856,2870.9,-218.42857142857144,216.47767857142856,2971.7,-218.42857142857144,216.47767857142856,3072.3,-218.42857142857144,216.47767857142856,3175.7,-218.42857142857144,216.47767857142856,3278.3,-218.42857142857144,216.47767857142856,3381.8,-218.42857142857144,216.47767857142856,3482.5,-218.42857142857144,216.47767857142856,3583.4,-218.42857142857144,216.47767857142856,3691.4,-218.42857142857144,216.47767857142856,3797.2,-218.42857142857144,216.47767857142856,3901.8,-218.42857142857144,216.47767857142856,4009.5,-218.42857142857144,216.47767857142856,4111.1,-217.42857142857144,216.47767857142856,4214.7,-217.42857142857144,216.47767857142856,4316.6,-219.42857142857144,216.47767857142856,4417.8,-226.42857142857144,218.47767857142856,4519.6,-226.42857142857144,218.47767857142856,4624,-226.42857142857144,218.47767857142856,4728.2,-226.42857142857144,218.47767857142856,4832.5,-226.42857142857144,218.47767857142856,4938.1]","[5235,5235,2883.7,2001,350.3,""oops"",""left"",""down"",""bad_move"",8313.7,3078.2,2695.7,5235.5,382.5,""smooth"",""left"",""left"",""good_move"",11378.4,3064.3,2716.8,8314.1,347.5,""smooth"",""up"",""up"",""good_move"",17699.4,6320.7,2011.5,15284.9,403,""smooth"",""up"",""up"",""good_move"",24066.2,6366.6,2203.9,21544.2,318.1,""oops"",""left"",""up"",""good_move"",26699.2,2632.9,2266.3,24066.3,366.6,""smooth"",""left"",""left"",""good_move""]","",""
"3582","","<div style=""width:500px;"">
  <p>What determined the result of this run?</p>
  </div>","0","html-slider-response","30","340132","0.0-5.0-1.4","199","1","2025-07-23 08:50:18","1f75c3e559b7213887762d5229550c2b","85.246.21.29","Mozilla/5.0 (Windows NT 10.0; Win64; x64) AppleWebKit/537.36 (KHTML, like Gecko) Chrome/138.0.0.0 Safari/537.36","WebKit","Chrome","138.0.0.0","Windows","10.0","https://app.prolific.com/","pt-PT,pt;q=0.9,en-US;q=0.8,en;q=0.7","65a93241fc1ee8c40991a861","683dba2a8a9dda3513610c04","6880a2472c96894cdac8b39f","3","0","65a93241fc1ee8c40991a861","3","0","2025-07-23T08:56:00.098Z","","","","","","","","","","","AttribQ","","50","","","","","","","","","","","","","","","","","","","","","","","","","","","","",""
"2521","","<div style=""width:500px;"">
  <p>How much control did you have over the ball?</p>
  </div>","37","html-slider-response","31","342654","0.0-5.0-2.4","199","1","2025-07-23 08:50:18","1f75c3e559b7213887762d5229550c2b","85.246.21.29","Mozilla/5.0 (Windows NT 10.0; Win64; x64) AppleWebKit/537.36 (KHTML, like Gecko) Chrome/138.0.0.0 Safari/537.36","WebKit","Chrome","138.0.0.0","Windows","10.0","https://app.prolific.com/","pt-PT,pt;q=0.9,en-US;q=0.8,en;q=0.7","65a93241fc1ee8c40991a861","683dba2a8a9dda3513610c04","6880a2472c96894cdac8b39f","3","0","65a93241fc1ee8c40991a861","3","0","2025-07-23T08:56:02.620Z","","","","","","","","","","","ControlQ","","50","","","","","","","","","","","","","","","","","","","","","","","","","","","","",""
"1529","","<div style=""width:500px;"">
  <p>How would you describe your current emotional state?</p>
  </div>","0","html-slider-response","32","344184","0.0-5.0-3.4","199","1","2025-07-23 08:50:18","1f75c3e559b7213887762d5229550c2b","85.246.21.29","Mozilla/5.0 (Windows NT 10.0; Win64; x64) AppleWebKit/537.36 (KHTML, like Gecko) Chrome/138.0.0.0 Safari/537.36","WebKit","Chrome","138.0.0.0","Windows","10.0","https://app.prolific.com/","pt-PT,pt;q=0.9,en-US;q=0.8,en;q=0.7","65a93241fc1ee8c40991a861","683dba2a8a9dda3513610c04","6880a2472c96894cdac8b39f","3","0","65a93241fc1ee8c40991a861","3","0","2025-07-23T08:56:04.151Z","","","","","","","","","","","StressQ","","50","","","","","","","","","","","","","","","","","","","","","","","","","","","","",""
"1416","","<div style=""width:500px;"">
  <p>What best describes how you currently feel?</p>
  </div>","100","html-slider-response","33","345602","0.0-5.0-4.4","199","1","2025-07-23 08:50:18","1f75c3e559b7213887762d5229550c2b","85.246.21.29","Mozilla/5.0 (Windows NT 10.0; Win64; x64) AppleWebKit/537.36 (KHTML, like Gecko) Chrome/138.0.0.0 Safari/537.36","WebKit","Chrome","138.0.0.0","Windows","10.0","https://app.prolific.com/","pt-PT,pt;q=0.9,en-US;q=0.8,en;q=0.7","65a93241fc1ee8c40991a861","683dba2a8a9dda3513610c04","6880a2472c96894cdac8b39f","3","0","65a93241fc1ee8c40991a861","3","0","2025-07-23T08:56:05.568Z","","","","","","","","","","","MotivationQ","","50","","","","","","","","","","","","","","","","","","","","","","","","","","","","",""
"","","","","ctl-task-cpt","34","393557","0.0-5.0-0.5","199","1","2025-07-23 08:50:18","1f75c3e559b7213887762d5229550c2b","85.246.21.29","Mozilla/5.0 (Windows NT 10.0; Win64; x64) AppleWebKit/537.36 (KHTML, like Gecko) Chrome/138.0.0.0 Safari/537.36","WebKit","Chrome","138.0.0.0","Windows","10.0","https://app.prolific.com/","pt-PT,pt;q=0.9,en-US;q=0.8,en;q=0.7","65a93241fc1ee8c40991a861","683dba2a8a9dda3513610c04","6880a2472c96894cdac8b39f","3","0","65a93241fc1ee8c40991a861","3","0","2025-07-23T08:56:53.523Z","","","","","","","","","","","","","","win-only","2","g1:SE,g2:NW","0.5","6","0","347026.1","2486.6","7491","44933","1","4","4","6","1","-1","-2","14","16","0.10606060606060606","1229.6","3000","-2795","[""down"",""right""]","{""num_key_presses"":9,""num_perfect"":4,""num_errors"":1,""num_randdir"":4,""num_randdir_good_moves"":1,""num_whilered"":0,""num_whileblue"":1,""num_blue"":4,""num_good_moves"":6}","[424.57142857142856,414.47767857142856,0.2,424.57142857142856,414.47767857142856,102.5,424.57142857142856,414.47767857142856,204.7,424.57142857142856,414.47767857142856,304.8,424.57142857142856,422.47767857142856,414.2,425.57142857142856,428.47767857142856,515.7,437.57142857142856,459.47767857142856,621.1,591.5714285714286,562.4776785714286,729.7,678.5714285714286,638.4776785714286,834.5,711.5714285714286,704.4776785714286,938.9,738.5714285714286,737.4776785714286,1047.8,738.5714285714286,737.4776785714286,1149.1,738.5714285714286,737.4776785714286,1254.6,738.5714285714286,737.4776785714286,1356.3,738.5714285714286,735.4776785714286,1456.7,793.5714285714286,656.4776785714286,1561.5,900.5714285714286,587.4776785714286,1663.9,901.5714285714286,583.4776785714286,1766.5,901.5714285714286,583.4776785714286,1867.6,900.5714285714286,583.4776785714286,1971.5,900.5714285714286,582.4776785714286,2074.4,900.5714285714286,581.4776785714286,2177.3,902.5714285714286,573.4776785714286,2281.4,907.5714285714286,556.4776785714286,2382.8,904.5714285714286,557.4776785714286,2485.3,904.5714285714286,557.4776785714286,2586.6,904.5714285714286,555.4776785714286,2691.7,903.5714285714286,554.4776785714286,2792.3,894.5714285714286,553.4776785714286,2896.6,894.5714285714286,553.4776785714286,3001.2,894.5714285714286,553.4776785714286,3103.4,894.5714285714286,553.4776785714286,3205.5,894.5714285714286,553.4776785714286,3307.3,894.5714285714286,553.4776785714286,3411.3,894.5714285714286,553.4776785714286,3516.4,894.5714285714286,553.4776785714286,3622.1,894.5714285714286,553.4776785714286,3725.6,894.5714285714286,553.4776785714286,3826.9,894.5714285714286,553.4776785714286,3929.6,894.5714285714286,553.4776785714286,4031.8,894.5714285714286,553.4776785714286,4135.5,894.5714285714286,553.4776785714286,4235.8,894.5714285714286,553.4776785714286,4335.8,894.5714285714286,553.4776785714286,4440.1,894.5714285714286,553.4776785714286,4541.9,894.5714285714286,553.4776785714286,4645.1,894.5714285714286,553.4776785714286,4745.5,894.5714285714286,553.4776785714286,4850.8,894.5714285714286,553.4776785714286,4953.1]","[5157.3,5157.3,2734.9,2007.3,415.1,""oops"",""right"",""up"",""bad_move"",7908.9,2751.3,2286.2,5157.6,465.1,""smooth"",""right"",""right"",""good_move"",10717.4,2808.1,2456.2,7909.3,351.9,""oops"",""down"",""down"",""good_move"",13613.3,2895.6,2548.4,10717.7,347.2,""oops"",""down"",""up"",""bad_move"",16093.3,2479.3,2052.9,13614,426.4,""oops"",""right"",""up"",""bad_move"",19725.4,3632,3302.4,16093.4,329.6,""while_blue"",""down"",""right"",""good_move"",25791.2,6065.3,2128.6,23276.7,385.9,""smooth"",""down"",""down"",""good_move"",28668.8,2877.6,2550.5,25791.3,327.1,""smooth"",""down"",""down"",""good_move"",34277.2,5608.2,2432.8,31503.5,340.9,""smooth"",""down"",""down"",""good_move""]","",""
"2737","","<div style=""width:500px;"">
  <p>What determined the result of this run?</p>
  </div>","0","html-slider-response","35","396294","0.0-5.0-1.5","199","1","2025-07-23 08:50:18","1f75c3e559b7213887762d5229550c2b","85.246.21.29","Mozilla/5.0 (Windows NT 10.0; Win64; x64) AppleWebKit/537.36 (KHTML, like Gecko) Chrome/138.0.0.0 Safari/537.36","WebKit","Chrome","138.0.0.0","Windows","10.0","https://app.prolific.com/","pt-PT,pt;q=0.9,en-US;q=0.8,en;q=0.7","65a93241fc1ee8c40991a861","683dba2a8a9dda3513610c04","6880a2472c96894cdac8b39f","3","0","65a93241fc1ee8c40991a861","3","0","2025-07-23T08:56:56.260Z","","","","","","","","","","","AttribQ","","50","","","","","","","","","","","","","","","","","","","","","","","","","","","","",""
"1786","","<div style=""width:500px;"">
  <p>How much control did you have over the ball?</p>
  </div>","0","html-slider-response","36","398081","0.0-5.0-2.5","199","1","2025-07-23 08:50:18","1f75c3e559b7213887762d5229550c2b","85.246.21.29","Mozilla/5.0 (Windows NT 10.0; Win64; x64) AppleWebKit/537.36 (KHTML, like Gecko) Chrome/138.0.0.0 Safari/537.36","WebKit","Chrome","138.0.0.0","Windows","10.0","https://app.prolific.com/","pt-PT,pt;q=0.9,en-US;q=0.8,en;q=0.7","65a93241fc1ee8c40991a861","683dba2a8a9dda3513610c04","6880a2472c96894cdac8b39f","3","0","65a93241fc1ee8c40991a861","3","0","2025-07-23T08:56:58.047Z","","","","","","","","","","","ControlQ","","50","","","","","","","","","","","","","","","","","","","","","","","","","","","","",""
"1752","","<div style=""width:500px;"">
  <p>How would you describe your current emotional state?</p>
  </div>","0","html-slider-response","37","399835","0.0-5.0-3.5","199","1","2025-07-23 08:50:18","1f75c3e559b7213887762d5229550c2b","85.246.21.29","Mozilla/5.0 (Windows NT 10.0; Win64; x64) AppleWebKit/537.36 (KHTML, like Gecko) Chrome/138.0.0.0 Safari/537.36","WebKit","Chrome","138.0.0.0","Windows","10.0","https://app.prolific.com/","pt-PT,pt;q=0.9,en-US;q=0.8,en;q=0.7","65a93241fc1ee8c40991a861","683dba2a8a9dda3513610c04","6880a2472c96894cdac8b39f","3","0","65a93241fc1ee8c40991a861","3","0","2025-07-23T08:56:59.801Z","","","","","","","","","","","StressQ","","50","","","","","","","","","","","","","","","","","","","","","","","","","","","","",""
"1410","","<div style=""width:500px;"">
  <p>What best describes how you currently feel?</p>
  </div>","100","html-slider-response","38","401246","0.0-5.0-4.5","199","1","2025-07-23 08:50:18","1f75c3e559b7213887762d5229550c2b","85.246.21.29","Mozilla/5.0 (Windows NT 10.0; Win64; x64) AppleWebKit/537.36 (KHTML, like Gecko) Chrome/138.0.0.0 Safari/537.36","WebKit","Chrome","138.0.0.0","Windows","10.0","https://app.prolific.com/","pt-PT,pt;q=0.9,en-US;q=0.8,en;q=0.7","65a93241fc1ee8c40991a861","683dba2a8a9dda3513610c04","6880a2472c96894cdac8b39f","3","0","65a93241fc1ee8c40991a861","3","0","2025-07-23T08:57:01.212Z","","","","","","","","","","","MotivationQ","","50","","","","","","","","","","","","","","","","","","","","","","","","","","","","",""
"","","","","ctl-task-cpt","39","425197","0.0-5.0-0.6","199","1","2025-07-23 08:50:18","1f75c3e559b7213887762d5229550c2b","85.246.21.29","Mozilla/5.0 (Windows NT 10.0; Win64; x64) AppleWebKit/537.36 (KHTML, like Gecko) Chrome/138.0.0.0 Safari/537.36","WebKit","Chrome","138.0.0.0","Windows","10.0","https://app.prolific.com/","pt-PT,pt;q=0.9,en-US;q=0.8,en;q=0.7","65a93241fc1ee8c40991a861","683dba2a8a9dda3513610c04","6880a2472c96894cdac8b39f","3","0","65a93241fc1ee8c40991a861","3","0","2025-07-23T08:57:25.163Z","","","","","","","","","","","","","","win-only","2","g1:SE,g2:NW","0.4","7","0","402669.3","747.4","5749.7","20940.3","1","4","4","6","2","4","4","18","14","0.13636363636363635","1232.3","3000","1340","[""left"",""up""]","{""num_key_presses"":6,""num_perfect"":4,""num_errors"":0,""num_randdir"":2,""num_randdir_good_moves"":2,""num_whilered"":0,""num_whileblue"":0,""num_blue"":0,""num_good_moves"":6}","[413.57142857142856,416.47767857142856,0.3,413.57142857142856,416.47767857142856,100.8,413.57142857142856,416.47767857142856,203.7,413.57142857142856,416.47767857142856,304.3,419.57142857142856,419.47767857142856,406.7,428.57142857142856,427.47767857142856,510.9,432.57142857142856,431.47767857142856,615.2,432.57142857142856,435.47767857142856,718.3,432.57142857142856,435.47767857142856,820,406.57142857142856,411.47767857142856,926.9,182.57142857142856,149.47767857142856,1032.4,109.57142857142857,84.47767857142857,1135.7,109.57142857142857,84.47767857142857,1247.1,109.57142857142857,84.47767857142857,1350.1,24.57142857142857,108.47767857142857,1452.2,-219.42857142857144,260.47767857142856,1552.3,-244.42857142857144,284.47767857142856,1653.4,-244.42857142857144,284.47767857142856,1759.8,-244.42857142857144,284.47767857142856,1860.3,-244.42857142857144,284.47767857142856,1960.6,-244.42857142857144,284.47767857142856,2062.5,-244.42857142857144,284.47767857142856,2166.9,-244.42857142857144,284.47767857142856,2273.2,-244.42857142857144,284.47767857142856,2376.4,-244.42857142857144,284.47767857142856,2478.5,-244.42857142857144,284.47767857142856,2580,-244.42857142857144,284.47767857142856,2685.1,-244.42857142857144,284.47767857142856,2788.3,-244.42857142857144,284.47767857142856,2890.1,-244.42857142857144,284.47767857142856,2991.7,-244.42857142857144,284.47767857142856,3092.1,-244.42857142857144,284.47767857142856,3192.3,-244.42857142857144,284.47767857142856,3294.3,-244.42857142857144,284.47767857142856,3397.9,-244.42857142857144,284.47767857142856,3500.6,-244.42857142857144,284.47767857142856,3602,-244.42857142857144,284.47767857142856,3705.7,-244.42857142857144,284.47767857142856,3809.7,-244.42857142857144,284.47767857142856,3914.9,-244.42857142857144,284.47767857142856,4016.2,-244.42857142857144,284.47767857142856,4121.7,-244.42857142857144,284.47767857142856,4230.9,-244.42857142857144,284.47767857142856,4336.1,-244.42857142857144,284.47767857142856,4438.9,-244.42857142857144,284.47767857142856,4539.4,-244.42857142857144,284.47767857142856,4641.1,-244.42857142857144,284.47767857142856,4746,-244.42857142857144,284.47767857142856,4850.6,-244.42857142857144,284.47767857142856,4953.6]","[1399.9,1399.9,1000,0,399.9,""smooth"",""left"",""left"",""good_move"",4542.8,3142.5,2794.7,1400.3,347.8,""smooth"",""up"",""up"",""good_move"",7326.5,2783.5,2413.9,4543,369.6,""smooth"",""up"",""up"",""good_move"",10103.4,2776.5,2330,7326.9,446.5,""oops"",""left"",""up"",""good_move"",12311.9,2208.4,1816,10103.5,392.4,""smooth"",""left"",""left"",""good_move"",15087.1,2774.8,2450.9,12312.3,323.9,""oops"",""left"",""left"",""good_move""]","",""
"3049","","<div style=""width:500px;"">
  <p>What determined the result of this run?</p>
  </div>","0","html-slider-response","40","428247","0.0-5.0-1.6","199","1","2025-07-23 08:50:18","1f75c3e559b7213887762d5229550c2b","85.246.21.29","Mozilla/5.0 (Windows NT 10.0; Win64; x64) AppleWebKit/537.36 (KHTML, like Gecko) Chrome/138.0.0.0 Safari/537.36","WebKit","Chrome","138.0.0.0","Windows","10.0","https://app.prolific.com/","pt-PT,pt;q=0.9,en-US;q=0.8,en;q=0.7","65a93241fc1ee8c40991a861","683dba2a8a9dda3513610c04","6880a2472c96894cdac8b39f","3","0","65a93241fc1ee8c40991a861","3","0","2025-07-23T08:57:28.213Z","","","","","","","","","","","AttribQ","","50","","","","","","","","","","","","","","","","","","","","","","","","","","","","",""
"1792","","<div style=""width:500px;"">
  <p>How much control did you have over the ball?</p>
  </div>","31","html-slider-response","41","430040","0.0-5.0-2.6","199","1","2025-07-23 08:50:18","1f75c3e559b7213887762d5229550c2b","85.246.21.29","Mozilla/5.0 (Windows NT 10.0; Win64; x64) AppleWebKit/537.36 (KHTML, like Gecko) Chrome/138.0.0.0 Safari/537.36","WebKit","Chrome","138.0.0.0","Windows","10.0","https://app.prolific.com/","pt-PT,pt;q=0.9,en-US;q=0.8,en;q=0.7","65a93241fc1ee8c40991a861","683dba2a8a9dda3513610c04","6880a2472c96894cdac8b39f","3","0","65a93241fc1ee8c40991a861","3","0","2025-07-23T08:57:30.006Z","","","","","","","","","","","ControlQ","","50","","","","","","","","","","","","","","","","","","","","","","","","","","","","",""
"1236","","<div style=""width:500px;"">
  <p>How would you describe your current emotional state?</p>
  </div>","0","html-slider-response","42","431277","0.0-5.0-3.6","199","1","2025-07-23 08:50:18","1f75c3e559b7213887762d5229550c2b","85.246.21.29","Mozilla/5.0 (Windows NT 10.0; Win64; x64) AppleWebKit/537.36 (KHTML, like Gecko) Chrome/138.0.0.0 Safari/537.36","WebKit","Chrome","138.0.0.0","Windows","10.0","https://app.prolific.com/","pt-PT,pt;q=0.9,en-US;q=0.8,en;q=0.7","65a93241fc1ee8c40991a861","683dba2a8a9dda3513610c04","6880a2472c96894cdac8b39f","3","0","65a93241fc1ee8c40991a861","3","0","2025-07-23T08:57:31.243Z","","","","","","","","","","","StressQ","","50","","","","","","","","","","","","","","","","","","","","","","","","","","","","",""
"1337","","<div style=""width:500px;"">
  <p>What best describes how you currently feel?</p>
  </div>","100","html-slider-response","43","432614","0.0-5.0-4.6","199","1","2025-07-23 08:50:18","1f75c3e559b7213887762d5229550c2b","85.246.21.29","Mozilla/5.0 (Windows NT 10.0; Win64; x64) AppleWebKit/537.36 (KHTML, like Gecko) Chrome/138.0.0.0 Safari/537.36","WebKit","Chrome","138.0.0.0","Windows","10.0","https://app.prolific.com/","pt-PT,pt;q=0.9,en-US;q=0.8,en;q=0.7","65a93241fc1ee8c40991a861","683dba2a8a9dda3513610c04","6880a2472c96894cdac8b39f","3","0","65a93241fc1ee8c40991a861","3","0","2025-07-23T08:57:32.580Z","","","","","","","","","","","MotivationQ","","50","","","","","","","","","","","","","","","","","","","","","","","","","","","","",""
"","","","","ctl-task-cpt","44","489489","0.0-5.0-0.7","199","1","2025-07-23 08:50:18","1f75c3e559b7213887762d5229550c2b","85.246.21.29","Mozilla/5.0 (Windows NT 10.0; Win64; x64) AppleWebKit/537.36 (KHTML, like Gecko) Chrome/138.0.0.0 Safari/537.36","WebKit","Chrome","138.0.0.0","Windows","10.0","https://app.prolific.com/","pt-PT,pt;q=0.9,en-US;q=0.8,en;q=0.7","65a93241fc1ee8c40991a861","683dba2a8a9dda3513610c04","6880a2472c96894cdac8b39f","3","0","65a93241fc1ee8c40991a861","3","0","2025-07-23T08:58:29.456Z","","","","","","","","","","","","","","win-only","0","g1:NW,g2:SE","0.3","8","0","434037.7","1302.6","6304.3","53856.7","1","4","8","6","1","1","1","19","18","0.14393939393939395","1121.3","3000","380","[""left"",""up""]","{""num_key_presses"":12,""num_perfect"":4,""num_errors"":0,""num_randdir"":8,""num_randdir_good_moves"":4,""num_whilered"":0,""num_whileblue"":0,""num_blue"":4,""num_good_moves"":8}","[418.57142857142856,411.47767857142856,0.1,418.57142857142856,411.47767857142856,101.5,418.57142857142856,411.47767857142856,201.8,418.57142857142856,411.47767857142856,308,418.57142857142856,411.47767857142856,410.5,420.57142857142856,411.47767857142856,518,467.57142857142856,440.47767857142856,620.9,467.57142857142856,441.47767857142856,728.2,426.57142857142856,427.47767857142856,832.9,78.57142857142857,134.47767857142856,937.1,16.57142857142857,55.47767857142857,1037.5,16.57142857142857,55.47767857142857,1141,16.57142857142857,55.47767857142857,1246.5,16.57142857142857,56.47767857142857,1354.2,-117.42857142857143,160.47767857142856,1462.9,-251.42857142857144,251.47767857142856,1564.5,-266.42857142857144,260.47767857142856,1673,-266.42857142857144,260.47767857142856,1773.1,-266.42857142857144,261.47767857142856,1878.4,-261.42857142857144,266.47767857142856,1979.3,-262.42857142857144,271.47767857142856,2080.9,-262.42857142857144,272.47767857142856,2182.2,-262.42857142857144,272.47767857142856,2285.5,-270.42857142857144,272.47767857142856,2387.1,-270.42857142857144,274.47767857142856,2487.2,-270.42857142857144,274.47767857142856,2587.5,-270.42857142857144,274.47767857142856,2691.5,-279.42857142857144,270.47767857142856,2798.7,-279.42857142857144,269.47767857142856,2900,-279.42857142857144,269.47767857142856,3006.5,-279.42857142857144,269.47767857142856,3106.6,-279.42857142857144,269.47767857142856,3210.4,-279.42857142857144,269.47767857142856,3314.6,-279.42857142857144,269.47767857142856,3418.8,-279.42857142857144,269.47767857142856,3523.3,-279.42857142857144,269.47767857142856,3629.4,-279.42857142857144,269.47767857142856,3733.3,-279.42857142857144,269.47767857142856,3838.3,-279.42857142857144,269.47767857142856,3947.6,-279.42857142857144,269.47767857142856,4052.8,-279.42857142857144,269.47767857142856,4159,-279.42857142857144,269.47767857142856,4262.5,-279.42857142857144,269.47767857142856,4366.3,-279.42857142857144,269.47767857142856,4475,-279.42857142857144,269.47767857142856,4575.5,-279.42857142857144,269.47767857142856,4679,-279.42857142857144,269.47767857142856,4779.9,-279.42857142857144,269.47767857142856,4883.3,-279.42857142857144,269.47767857142856,4985.7]","[1356.4,1356.4,1000,0,356.4,""oops"",""left"",""left"",""good_move"",4756.2,3399.4,3093.4,1356.8,306,""oops"",""up"",""right"",""bad_move"",15156.2,10399.5,2807.1,11930.8,418.3,""smooth"",""up"",""up"",""good_move"",17910.5,2754,2340.7,15156.5,413.3,""oops"",""left"",""left"",""good_move"",20701.2,2790.2,2434.9,17911,355.3,""oops"",""up"",""right"",""bad_move"",23683.8,2981.8,2632.3,20702,349.5,""smooth"",""left"",""left"",""good_move"",26364.4,2680.2,2329,23684.2,351.2,""smooth"",""left"",""left"",""good_move"",28851.6,2487.1,2153,26364.5,334.1,""oops"",""up"",""right"",""bad_move"",31747.8,2896.1,2561.9,28851.7,334.2,""oops"",""up"",""up"",""good_move"",35531.7,3783.6,3449.5,31748.1,334.1,""oops"",""left"",""right"",""bad_move"",44548.9,9017.1,3027.5,41196.9,324.6,""smooth"",""left"",""left"",""good_move"",47427.5,2877.8,2521.8,44549.7,356,""oops"",""left"",""left"",""good_move""]","",""
"2011","","<div style=""width:500px;"">
  <p>What determined the result of this run?</p>
  </div>","0","html-slider-response","45","491501","0.0-5.0-1.7","199","1","2025-07-23 08:50:18","1f75c3e559b7213887762d5229550c2b","85.246.21.29","Mozilla/5.0 (Windows NT 10.0; Win64; x64) AppleWebKit/537.36 (KHTML, like Gecko) Chrome/138.0.0.0 Safari/537.36","WebKit","Chrome","138.0.0.0","Windows","10.0","https://app.prolific.com/","pt-PT,pt;q=0.9,en-US;q=0.8,en;q=0.7","65a93241fc1ee8c40991a861","683dba2a8a9dda3513610c04","6880a2472c96894cdac8b39f","3","0","65a93241fc1ee8c40991a861","3","0","2025-07-23T08:58:31.467Z","","","","","","","","","","","AttribQ","","50","","","","","","","","","","","","","","","","","","","","","","","","","","","","",""
"1115","","<div style=""width:500px;"">
  <p>How much control did you have over the ball?</p>
  </div>","19","html-slider-response","46","492618","0.0-5.0-2.7","199","1","2025-07-23 08:50:18","1f75c3e559b7213887762d5229550c2b","85.246.21.29","Mozilla/5.0 (Windows NT 10.0; Win64; x64) AppleWebKit/537.36 (KHTML, like Gecko) Chrome/138.0.0.0 Safari/537.36","WebKit","Chrome","138.0.0.0","Windows","10.0","https://app.prolific.com/","pt-PT,pt;q=0.9,en-US;q=0.8,en;q=0.7","65a93241fc1ee8c40991a861","683dba2a8a9dda3513610c04","6880a2472c96894cdac8b39f","3","0","65a93241fc1ee8c40991a861","3","0","2025-07-23T08:58:32.584Z","","","","","","","","","","","ControlQ","","50","","","","","","","","","","","","","","","","","","","","","","","","","","","","",""
"1303","","<div style=""width:500px;"">
  <p>How would you describe your current emotional state?</p>
  </div>","0","html-slider-response","47","493921","0.0-5.0-3.7","199","1","2025-07-23 08:50:18","1f75c3e559b7213887762d5229550c2b","85.246.21.29","Mozilla/5.0 (Windows NT 10.0; Win64; x64) AppleWebKit/537.36 (KHTML, like Gecko) Chrome/138.0.0.0 Safari/537.36","WebKit","Chrome","138.0.0.0","Windows","10.0","https://app.prolific.com/","pt-PT,pt;q=0.9,en-US;q=0.8,en;q=0.7","65a93241fc1ee8c40991a861","683dba2a8a9dda3513610c04","6880a2472c96894cdac8b39f","3","0","65a93241fc1ee8c40991a861","3","0","2025-07-23T08:58:33.887Z","","","","","","","","","","","StressQ","","50","","","","","","","","","","","","","","","","","","","","","","","","","","","","",""
"1390","","<div style=""width:500px;"">
  <p>What best describes how you currently feel?</p>
  </div>","100","html-slider-response","48","495312","0.0-5.0-4.7","199","1","2025-07-23 08:50:18","1f75c3e559b7213887762d5229550c2b","85.246.21.29","Mozilla/5.0 (Windows NT 10.0; Win64; x64) AppleWebKit/537.36 (KHTML, like Gecko) Chrome/138.0.0.0 Safari/537.36","WebKit","Chrome","138.0.0.0","Windows","10.0","https://app.prolific.com/","pt-PT,pt;q=0.9,en-US;q=0.8,en;q=0.7","65a93241fc1ee8c40991a861","683dba2a8a9dda3513610c04","6880a2472c96894cdac8b39f","3","0","65a93241fc1ee8c40991a861","3","0","2025-07-23T08:58:35.278Z","","","","","","","","","","","MotivationQ","","50","","","","","","","","","","","","","","","","","","","","","","","","","","","","",""
"","","","","ctl-task-cpt","49","550300","0.0-5.0-0.8","199","1","2025-07-23 08:50:18","1f75c3e559b7213887762d5229550c2b","85.246.21.29","Mozilla/5.0 (Windows NT 10.0; Win64; x64) AppleWebKit/537.36 (KHTML, like Gecko) Chrome/138.0.0.0 Safari/537.36","WebKit","Chrome","138.0.0.0","Windows","10.0","https://app.prolific.com/","pt-PT,pt;q=0.9,en-US;q=0.8,en;q=0.7","65a93241fc1ee8c40991a861","683dba2a8a9dda3513610c04","6880a2472c96894cdac8b39f","3","0","65a93241fc1ee8c40991a861","3","0","2025-07-23T08:59:30.266Z","","","","","","","","","","","","","","win-only","3","g1:SW,g2:NE","0.2","9","0","496736.4","750.3","5763.9","51967.6","1","4","4","6","1","-1","-2","17","19","0.12878787878787878","1317.4","3000","-1645","[""down"",""left""]","{""num_key_presses"":12,""num_perfect"":2,""num_errors"":1,""num_randdir"":9,""num_randdir_good_moves"":4,""num_whilered"":0,""num_whileblue"":0,""num_blue"":3,""num_good_moves"":6}","[423.57142857142856,413.47767857142856,0.4,423.57142857142856,413.47767857142856,107.5,423.57142857142856,413.47767857142856,209.9,423.57142857142856,413.47767857142856,313.5,406.57142857142856,418.47767857142856,415.1,406.57142857142856,418.47767857142856,521.7,357.57142857142856,501.47767857142856,630.1,356.57142857142856,540.4776785714286,731.7,601.5714285714286,296.47767857142856,856.1,604.5714285714286,295.47767857142856,958,378.57142857142856,562.4776785714286,1064.6,135.57142857142856,748.4776785714286,1167,89.57142857142857,746.4776785714286,1270,85.57142857142857,746.4776785714286,1371.7,82.57142857142857,744.4776785714286,1473.3,-105.42857142857143,664.4776785714286,1574.4,-186.42857142857144,627.4776785714286,1674.5,-186.42857142857144,625.4776785714286,1777.5,-186.42857142857144,625.4776785714286,1886.5,-186.42857142857144,625.4776785714286,1992.4,-186.42857142857144,625.4776785714286,2092.7,-186.42857142857144,625.4776785714286,2201,-186.42857142857144,625.4776785714286,2309.1,-186.42857142857144,625.4776785714286,2412.5,-186.42857142857144,625.4776785714286,2521.9,-186.42857142857144,625.4776785714286,2624.9,-186.42857142857144,625.4776785714286,2726.2,-186.42857142857144,625.4776785714286,2829.4,-186.42857142857144,625.4776785714286,2935.4,-186.42857142857144,625.4776785714286,3041.2,-186.42857142857144,625.4776785714286,3143.9,-186.42857142857144,625.4776785714286,3251.1,-186.42857142857144,625.4776785714286,3356.3,-186.42857142857144,625.4776785714286,3463.5,-186.42857142857144,625.4776785714286,3566.7,-186.42857142857144,625.4776785714286,3669.2,-186.42857142857144,625.4776785714286,3771.3,-186.42857142857144,625.4776785714286,3875.7,-186.42857142857144,625.4776785714286,3976,-186.42857142857144,625.4776785714286,4085.4,-186.42857142857144,625.4776785714286,4193.7,-186.42857142857144,625.4776785714286,4299.4,-186.42857142857144,625.4776785714286,4403.6,-186.42857142857144,625.4776785714286,4504.6,-186.42857142857144,625.4776785714286,4607.2,-186.42857142857144,625.4776785714286,4714.7,-186.42857142857144,625.4776785714286,4819.3,-186.42857142857144,625.4776785714286,4924.8]","[422.2,422.3,1000,0,-577.7,""error"",""-"",""-"",""no_move"",5213.5,4791,3242.9,1423.6,547,""oops"",""left"",""down"",""good_move"",14445.5,9231.6,2354.3,11706.6,384.6,""oops"",""left"",""left"",""good_move"",17421.6,2975.7,2618.5,14445.9,357.2,""oops"",""down"",""left"",""good_move"",19622,2200.3,1803,17421.7,397.3,""oops"",""down"",""up"",""bad_move"",26750,7127.7,2698.2,23681.1,370.7,""oops"",""right"",""right"",""bad_move"",29693.4,2942.7,2579.4,26750.7,363.3,""oops"",""down"",""right"",""bad_move"",32829.6,3136,2437.6,29693.6,698.4,""smooth"",""down"",""down"",""good_move"",35437.4,2607.3,2264.2,32830.1,343.1,""oops"",""down"",""left"",""good_move"",38581.4,3143.7,2410.2,35437.7,733.5,""smooth"",""down"",""down"",""good_move"",40678.1,2096.5,1728.5,38581.7,367.9,""oops"",""left"",""right"",""bad_move"",43413.6,2735.2,2374.2,40678.4,361,""oops"",""left"",""up"",""bad_move""]","",""
"2576","","<div style=""width:500px;"">
  <p>What determined the result of this run?</p>
  </div>","0","html-slider-response","50","552877","0.0-5.0-1.8","199","1","2025-07-23 08:50:18","1f75c3e559b7213887762d5229550c2b","85.246.21.29","Mozilla/5.0 (Windows NT 10.0; Win64; x64) AppleWebKit/537.36 (KHTML, like Gecko) Chrome/138.0.0.0 Safari/537.36","WebKit","Chrome","138.0.0.0","Windows","10.0","https://app.prolific.com/","pt-PT,pt;q=0.9,en-US;q=0.8,en;q=0.7","65a93241fc1ee8c40991a861","683dba2a8a9dda3513610c04","6880a2472c96894cdac8b39f","3","0","65a93241fc1ee8c40991a861","3","0","2025-07-23T08:59:32.843Z","","","","","","","","","","","AttribQ","","50","","","","","","","","","","","","","","","","","","","","","","","","","","","","",""
"1396","","<div style=""width:500px;"">
  <p>How much control did you have over the ball?</p>
  </div>","0","html-slider-response","51","554275","0.0-5.0-2.8","199","1","2025-07-23 08:50:18","1f75c3e559b7213887762d5229550c2b","85.246.21.29","Mozilla/5.0 (Windows NT 10.0; Win64; x64) AppleWebKit/537.36 (KHTML, like Gecko) Chrome/138.0.0.0 Safari/537.36","WebKit","Chrome","138.0.0.0","Windows","10.0","https://app.prolific.com/","pt-PT,pt;q=0.9,en-US;q=0.8,en;q=0.7","65a93241fc1ee8c40991a861","683dba2a8a9dda3513610c04","6880a2472c96894cdac8b39f","3","0","65a93241fc1ee8c40991a861","3","0","2025-07-23T08:59:34.241Z","","","","","","","","","","","ControlQ","","50","","","","","","","","","","","","","","","","","","","","","","","","","","","","",""
"1522","","<div style=""width:500px;"">
  <p>How would you describe your current emotional state?</p>
  </div>","0","html-slider-response","52","555798","0.0-5.0-3.8","199","1","2025-07-23 08:50:18","1f75c3e559b7213887762d5229550c2b","85.246.21.29","Mozilla/5.0 (Windows NT 10.0; Win64; x64) AppleWebKit/537.36 (KHTML, like Gecko) Chrome/138.0.0.0 Safari/537.36","WebKit","Chrome","138.0.0.0","Windows","10.0","https://app.prolific.com/","pt-PT,pt;q=0.9,en-US;q=0.8,en;q=0.7","65a93241fc1ee8c40991a861","683dba2a8a9dda3513610c04","6880a2472c96894cdac8b39f","3","0","65a93241fc1ee8c40991a861","3","0","2025-07-23T08:59:35.764Z","","","","","","","","","","","StressQ","","50","","","","","","","","","","","","","","","","","","","","","","","","","","","","",""
"1276","","<div style=""width:500px;"">
  <p>What best describes how you currently feel?</p>
  </div>","100","html-slider-response","53","557075","0.0-5.0-4.8","199","1","2025-07-23 08:50:18","1f75c3e559b7213887762d5229550c2b","85.246.21.29","Mozilla/5.0 (Windows NT 10.0; Win64; x64) AppleWebKit/537.36 (KHTML, like Gecko) Chrome/138.0.0.0 Safari/537.36","WebKit","Chrome","138.0.0.0","Windows","10.0","https://app.prolific.com/","pt-PT,pt;q=0.9,en-US;q=0.8,en;q=0.7","65a93241fc1ee8c40991a861","683dba2a8a9dda3513610c04","6880a2472c96894cdac8b39f","3","0","65a93241fc1ee8c40991a861","3","0","2025-07-23T08:59:37.041Z","","","","","","","","","","","MotivationQ","","50","","","","","","","","","","","","","","","","","","","","","","","","","","","","",""
"","","","","ctl-task-cpt","54","612896","0.0-5.0-0.9","199","1","2025-07-23 08:50:18","1f75c3e559b7213887762d5229550c2b","85.246.21.29","Mozilla/5.0 (Windows NT 10.0; Win64; x64) AppleWebKit/537.36 (KHTML, like Gecko) Chrome/138.0.0.0 Safari/537.36","WebKit","Chrome","138.0.0.0","Windows","10.0","https://app.prolific.com/","pt-PT,pt;q=0.9,en-US;q=0.8,en;q=0.7","65a93241fc1ee8c40991a861","683dba2a8a9dda3513610c04","6880a2472c96894cdac8b39f","3","0","65a93241fc1ee8c40991a861","3","0","2025-07-23T09:00:32.862Z","","","","","","","","","","","","","","win-only","0","g1:NW,g2:SE","0.4","10","0","558499.4","746.1","5758.4","52806.9","1","4","8","6","2","8","8","25","17","0.1893939393939394","1954.1","3000","240","[""down"",""right""]","{""num_key_presses"":12,""num_perfect"":5,""num_errors"":0,""num_randdir"":7,""num_randdir_good_moves"":4,""num_whilered"":0,""num_whileblue"":0,""num_blue"":4,""num_good_moves"":9}","[418.57142857142856,414.47767857142856,0.4,418.57142857142856,414.47767857142856,104.8,418.57142857142856,414.47767857142856,211.8,375.57142857142856,421.47767857142856,319.8,-21.42857142857143,440.47767857142856,420.1,-226.42857142857144,434.47767857142856,521.9,-61.42857142857143,428.47767857142856,628.2,134.57142857142856,469.47767857142856,736.1,166.57142857142856,481.47767857142856,843.4,166.57142857142856,482.47767857142856,948.2,166.57142857142856,482.47767857142856,1052.9,166.57142857142856,310.47767857142856,1154.5,129.57142857142856,175.47767857142856,1261.9,41.57142857142857,103.47767857142857,1366.7,5.571428571428569,68.47767857142857,1472.5,12.57142857142857,71.47767857142857,1577.9,385.57142857142856,443.47767857142856,1683.6,720.5714285714286,722.4776785714286,1791,760.5714285714286,746.4776785714286,1896.3,760.5714285714286,746.4776785714286,1999.6,770.5714285714286,746.4776785714286,2101.1,1043.5714285714287,649.4776785714286,2206,1186.5714285714287,584.4776785714286,2307.2,1186.5714285714287,584.4776785714286,2411.9,1186.5714285714287,584.4776785714286,2513.2,1186.5714285714287,584.4776785714286,2620.3,1186.5714285714287,584.4776785714286,2732.8,1186.5714285714287,584.4776785714286,2838.8,1186.5714285714287,584.4776785714286,2945,1186.5714285714287,584.4776785714286,3047.2,1186.5714285714287,584.4776785714286,3151.7,1186.5714285714287,584.4776785714286,3258.6,1186.5714285714287,584.4776785714286,3361.8,1186.5714285714287,584.4776785714286,3463.7,1186.5714285714287,584.4776785714286,3567.5,1186.5714285714287,584.4776785714286,3670.5,1186.5714285714287,584.4776785714286,3776.9,1186.5714285714287,584.4776785714286,3880.3,1186.5714285714287,584.4776785714286,3983.3,1186.5714285714287,584.4776785714286,4086.5,1186.5714285714287,584.4776785714286,4187.8,1186.5714285714287,584.4776785714286,4295.2,1186.5714285714287,584.4776785714286,4406,1186.5714285714287,584.4776785714286,4513,1186.5714285714287,584.4776785714286,4619,1186.5714285714287,584.4776785714286,4720.7,1186.5714285714287,584.4776785714286,4828.1,1186.5714285714287,584.4776785714286,4928.7]","[1407.9,1407.9,1000,0,407.9,""oops"",""down"",""left"",""bad_move"",3847.6,2439.3,1905.4,1408.3,533.9,""smooth"",""down"",""down"",""good_move"",17312.2,13464.3,3334.5,13622.1,355.6,""oops"",""down"",""right"",""good_move"",19992.7,2679.9,2276.4,17312.9,403.4,""oops"",""down"",""down"",""good_move"",22799.4,2806.2,1994.1,19993.2,812.1,""smooth"",""down"",""down"",""good_move"",25567.8,2768.2,2368.2,22799.6,400,""oops"",""right"",""up"",""bad_move"",28160.9,2592.4,2236.7,25568.5,355.7,""smooth"",""right"",""right"",""good_move"",31312.9,3151.7,2825.1,28161.3,326.5,""smooth"",""right"",""right"",""good_move"",34144.9,2831.8,2439.3,31313.2,392.5,""oops"",""down"",""left"",""bad_move"",36543.6,2398.1,2056.5,34145.5,341.6,""oops"",""down"",""down"",""good_move"",43928.3,7384.5,3265.6,40267,395.7,""oops"",""right"",""right"",""good_move"",46880.5,2952.2,2600.4,43928.3,351.8,""smooth"",""right"",""right"",""good_move""]","",""
"8684","","<div style=""width:500px;"">
  <p>What determined the result of this run?</p>
  </div>","0","html-slider-response","55","621581","0.0-5.0-1.9","199","1","2025-07-23 08:50:18","1f75c3e559b7213887762d5229550c2b","85.246.21.29","Mozilla/5.0 (Windows NT 10.0; Win64; x64) AppleWebKit/537.36 (KHTML, like Gecko) Chrome/138.0.0.0 Safari/537.36","WebKit","Chrome","138.0.0.0","Windows","10.0","https://app.prolific.com/","pt-PT,pt;q=0.9,en-US;q=0.8,en;q=0.7","65a93241fc1ee8c40991a861","683dba2a8a9dda3513610c04","6880a2472c96894cdac8b39f","3","0","65a93241fc1ee8c40991a861","3","0","2025-07-23T09:00:41.547Z","","","","","","","","","","","AttribQ","","50","","","","","","","","","","","","","","","","","","","","","","","","","","","","",""
"1418","","<div style=""width:500px;"">
  <p>How much control did you have over the ball?</p>
  </div>","0","html-slider-response","56","623000","0.0-5.0-2.9","199","1","2025-07-23 08:50:18","1f75c3e559b7213887762d5229550c2b","85.246.21.29","Mozilla/5.0 (Windows NT 10.0; Win64; x64) AppleWebKit/537.36 (KHTML, like Gecko) Chrome/138.0.0.0 Safari/537.36","WebKit","Chrome","138.0.0.0","Windows","10.0","https://app.prolific.com/","pt-PT,pt;q=0.9,en-US;q=0.8,en;q=0.7","65a93241fc1ee8c40991a861","683dba2a8a9dda3513610c04","6880a2472c96894cdac8b39f","3","0","65a93241fc1ee8c40991a861","3","0","2025-07-23T09:00:42.966Z","","","","","","","","","","","ControlQ","","50","","","","","","","","","","","","","","","","","","","","","","","","","","","","",""
"2475","","<div style=""width:500px;"">
  <p>How would you describe your current emotional state?</p>
  </div>","0","html-slider-response","57","625476","0.0-5.0-3.9","199","1","2025-07-23 08:50:18","1f75c3e559b7213887762d5229550c2b","85.246.21.29","Mozilla/5.0 (Windows NT 10.0; Win64; x64) AppleWebKit/537.36 (KHTML, like Gecko) Chrome/138.0.0.0 Safari/537.36","WebKit","Chrome","138.0.0.0","Windows","10.0","https://app.prolific.com/","pt-PT,pt;q=0.9,en-US;q=0.8,en;q=0.7","65a93241fc1ee8c40991a861","683dba2a8a9dda3513610c04","6880a2472c96894cdac8b39f","3","0","65a93241fc1ee8c40991a861","3","0","2025-07-23T09:00:45.442Z","","","","","","","","","","","StressQ","","50","","","","","","","","","","","","","","","","","","","","","","","","","","","","",""
"2463","","<div style=""width:500px;"">
  <p>What best describes how you currently feel?</p>
  </div>","100","html-slider-response","58","627940","0.0-5.0-4.9","199","1","2025-07-23 08:50:18","1f75c3e559b7213887762d5229550c2b","85.246.21.29","Mozilla/5.0 (Windows NT 10.0; Win64; x64) AppleWebKit/537.36 (KHTML, like Gecko) Chrome/138.0.0.0 Safari/537.36","WebKit","Chrome","138.0.0.0","Windows","10.0","https://app.prolific.com/","pt-PT,pt;q=0.9,en-US;q=0.8,en;q=0.7","65a93241fc1ee8c40991a861","683dba2a8a9dda3513610c04","6880a2472c96894cdac8b39f","3","0","65a93241fc1ee8c40991a861","3","0","2025-07-23T09:00:47.906Z","","","","","","","","","","","MotivationQ","","50","","","","","","","","","","","","","","","","","","","","","","","","","","","","",""
"","","","","ctl-task-cpt","59","665564","0.0-5.0-0.10","199","1","2025-07-23 08:50:18","1f75c3e559b7213887762d5229550c2b","85.246.21.29","Mozilla/5.0 (Windows NT 10.0; Win64; x64) AppleWebKit/537.36 (KHTML, like Gecko) Chrome/138.0.0.0 Safari/537.36","WebKit","Chrome","138.0.0.0","Windows","10.0","https://app.prolific.com/","pt-PT,pt;q=0.9,en-US;q=0.8,en;q=0.7","65a93241fc1ee8c40991a861","683dba2a8a9dda3513610c04","6880a2472c96894cdac8b39f","3","0","65a93241fc1ee8c40991a861","3","0","2025-07-23T09:01:25.530Z","","","","","","","","","","","","","","win-only","2","g1:SE,g2:NW","0.5","11","0","629364","3010.4","8014.1","34597.1","1","4","4","6","1","1","1","26","25","0.19696969696969696","834.1","3000","1645","[""down"",""right""]","{""num_key_presses"":6,""num_perfect"":3,""num_errors"":0,""num_randdir"":3,""num_randdir_good_moves"":2,""num_whilered"":0,""num_whileblue"":0,""num_blue"":3,""num_good_moves"":5}","[418.57142857142856,418.47767857142856,0.5,418.57142857142856,418.47767857142856,105.2,418.57142857142856,418.47767857142856,206.6,418.57142857142856,418.47767857142856,311.9,472.57142857142856,463.47767857142856,428.5,618.5714285714286,597.4776785714286,538.7,748.5714285714286,744.4776785714286,644.5,764.5714285714286,755.4776785714286,749.1,764.5714285714286,755.4776785714286,850.6,764.5714285714286,755.4776785714286,963.8,785.5714285714286,735.4776785714286,1069.4,979.5714285714286,601.4776785714286,1175.3,1041.5714285714287,577.4776785714286,1275.6,1041.5714285714287,577.4776785714286,1381.7,1041.5714285714287,577.4776785714286,1487.9,1041.5714285714287,577.4776785714286,1598.6,1041.5714285714287,577.4776785714286,1698.9,1042.5714285714287,576.4776785714286,1802.6,1043.5714285714287,576.4776785714286,1905.4,1043.5714285714287,576.4776785714286,2006.1,1043.5714285714287,576.4776785714286,2117.7,1043.5714285714287,576.4776785714286,2222.4,1043.5714285714287,576.4776785714286,2325.7,1043.5714285714287,576.4776785714286,2426.4,1043.5714285714287,576.4776785714286,2535.8,1043.5714285714287,576.4776785714286,2637.8,1043.5714285714287,576.4776785714286,2737.8,1043.5714285714287,576.4776785714286,2841.9,1043.5714285714287,576.4776785714286,2949.4,1043.5714285714287,576.4776785714286,3051.1,1043.5714285714287,576.4776785714286,3160.4,1043.5714285714287,576.4776785714286,3268.5,1043.5714285714287,576.4776785714286,3369,1043.5714285714287,576.4776785714286,3470.8,1043.5714285714287,576.4776785714286,3573.9,1043.5714285714287,576.4776785714286,3678,1043.5714285714287,576.4776785714286,3782.9,1043.5714285714287,576.4776785714286,3885.7,1043.5714285714287,576.4776785714286,3989.3,1043.5714285714287,576.4776785714286,4094.6,1043.5714285714287,576.4776785714286,4202.9,1043.5714285714287,576.4776785714286,4304.1,1043.5714285714287,576.4776785714286,4410.8,1043.5714285714287,576.4776785714286,4519.3,1043.5714285714287,576.4776785714286,4619.5,1043.5714285714287,576.4776785714286,4723.1,1043.5714285714287,576.4776785714286,4832.2,1043.5714285714287,576.4776785714286,4933]","[1535.3,1535.3,1000,0,535.3,""smooth"",""down"",""down"",""good_move"",4295.7,2759.9,2371.7,1535.8,388.2,""smooth"",""right"",""right"",""good_move"",13647.1,9351,2190.1,11045.3,411.7,""oops"",""down"",""down"",""good_move"",20183.4,6536,2655,17189.2,339.2,""oops"",""right"",""up"",""bad_move"",23567.4,3383.7,2984.5,20183.7,399.2,""oops"",""right"",""down"",""good_move"",26439.2,2871.5,2550.9,23567.7,320.6,""smooth"",""right"",""right"",""good_move""]","",""
"3063","","<div style=""width:500px;"">
  <p>What determined the result of this run?</p>
  </div>","0","html-slider-response","60","668628","0.0-5.0-1.10","199","1","2025-07-23 08:50:18","1f75c3e559b7213887762d5229550c2b","85.246.21.29","Mozilla/5.0 (Windows NT 10.0; Win64; x64) AppleWebKit/537.36 (KHTML, like Gecko) Chrome/138.0.0.0 Safari/537.36","WebKit","Chrome","138.0.0.0","Windows","10.0","https://app.prolific.com/","pt-PT,pt;q=0.9,en-US;q=0.8,en;q=0.7","65a93241fc1ee8c40991a861","683dba2a8a9dda3513610c04","6880a2472c96894cdac8b39f","3","0","65a93241fc1ee8c40991a861","3","0","2025-07-23T09:01:28.594Z","","","","","","","","","","","AttribQ","","50","","","","","","","","","","","","","","","","","","","","","","","","","","","","",""
"2052","","<div style=""width:500px;"">
  <p>How much control did you have over the ball?</p>
  </div>","42","html-slider-response","61","670681","0.0-5.0-2.10","199","1","2025-07-23 08:50:18","1f75c3e559b7213887762d5229550c2b","85.246.21.29","Mozilla/5.0 (Windows NT 10.0; Win64; x64) AppleWebKit/537.36 (KHTML, like Gecko) Chrome/138.0.0.0 Safari/537.36","WebKit","Chrome","138.0.0.0","Windows","10.0","https://app.prolific.com/","pt-PT,pt;q=0.9,en-US;q=0.8,en;q=0.7","65a93241fc1ee8c40991a861","683dba2a8a9dda3513610c04","6880a2472c96894cdac8b39f","3","0","65a93241fc1ee8c40991a861","3","0","2025-07-23T09:01:30.647Z","","","","","","","","","","","ControlQ","","50","","","","","","","","","","","","","","","","","","","","","","","","","","","","",""
"1317","","<div style=""width:500px;"">
  <p>How would you describe your current emotional state?</p>
  </div>","0","html-slider-response","62","671999","0.0-5.0-3.10","199","1","2025-07-23 08:50:18","1f75c3e559b7213887762d5229550c2b","85.246.21.29","Mozilla/5.0 (Windows NT 10.0; Win64; x64) AppleWebKit/537.36 (KHTML, like Gecko) Chrome/138.0.0.0 Safari/537.36","WebKit","Chrome","138.0.0.0","Windows","10.0","https://app.prolific.com/","pt-PT,pt;q=0.9,en-US;q=0.8,en;q=0.7","65a93241fc1ee8c40991a861","683dba2a8a9dda3513610c04","6880a2472c96894cdac8b39f","3","0","65a93241fc1ee8c40991a861","3","0","2025-07-23T09:01:31.965Z","","","","","","","","","","","StressQ","","50","","","","","","","","","","","","","","","","","","","","","","","","","","","","",""
"5724","","<div style=""width:500px;"">
  <p>What best describes how you currently feel?</p>
  </div>","100","html-slider-response","63","677724","0.0-5.0-4.10","199","1","2025-07-23 08:50:18","1f75c3e559b7213887762d5229550c2b","85.246.21.29","Mozilla/5.0 (Windows NT 10.0; Win64; x64) AppleWebKit/537.36 (KHTML, like Gecko) Chrome/138.0.0.0 Safari/537.36","WebKit","Chrome","138.0.0.0","Windows","10.0","https://app.prolific.com/","pt-PT,pt;q=0.9,en-US;q=0.8,en;q=0.7","65a93241fc1ee8c40991a861","683dba2a8a9dda3513610c04","6880a2472c96894cdac8b39f","3","0","65a93241fc1ee8c40991a861","3","0","2025-07-23T09:01:37.690Z","","","","","","","","","","","MotivationQ","","50","","","","","","","","","","","","","","","","","","","","","","","","","","","","",""
"","","","","ctl-task-cpt","64","732603","0.0-5.0-0.11","199","1","2025-07-23 08:50:18","1f75c3e559b7213887762d5229550c2b","85.246.21.29","Mozilla/5.0 (Windows NT 10.0; Win64; x64) AppleWebKit/537.36 (KHTML, like Gecko) Chrome/138.0.0.0 Safari/537.36","WebKit","Chrome","138.0.0.0","Windows","10.0","https://app.prolific.com/","pt-PT,pt;q=0.9,en-US;q=0.8,en;q=0.7","65a93241fc1ee8c40991a861","683dba2a8a9dda3513610c04","6880a2472c96894cdac8b39f","3","0","65a93241fc1ee8c40991a861","3","0","2025-07-23T09:02:32.569Z","","","","","","","","","","","","","","win-only","1","g1:NE,g2:SW","0.6","12","0","679147.7","1216.4","6223","51847.7","1","4","8","6","2","8","8","34","26","0.25757575757575757","1805.7","3000","445","[""down"",""left""]","{""num_key_presses"":14,""num_perfect"":9,""num_errors"":0,""num_randdir"":5,""num_randdir_good_moves"":1,""num_whilered"":0,""num_whileblue"":0,""num_blue"":2,""num_good_moves"":10}","[421.57142857142856,417.47767857142856,0.1,421.57142857142856,417.47767857142856,104.4,421.57142857142856,417.47767857142856,207.9,421.57142857142856,417.47767857142856,314.7,421.57142857142856,417.47767857142856,418.1,421.57142857142856,417.47767857142856,522,421.57142857142856,417.47767857142856,629.9,588.5714285714286,252.47767857142856,730.7,817.5714285714286,62.47767857142857,834.2,809.5714285714286,62.47767857142857,937.6,781.5714285714286,66.47767857142857,1038.6,781.5714285714286,66.47767857142857,1143.2,778.5714285714286,70.47767857142857,1243.2,743.5714285714286,106.47767857142857,1343.9,383.57142857142856,365.47767857142856,1455.4,132.57142857142856,599.4776785714286,1564.8,114.57142857142857,660.4776785714286,1671.8,80.57142857142857,705.4776785714286,1779.7,69.57142857142857,718.4776785714286,1879.9,69.57142857142857,718.4776785714286,1984.1,82.57142857142857,710.4776785714286,2090.4,338.57142857142856,636.4776785714286,2206,671.5714285714286,575.4776785714286,2307.2,779.5714285714286,567.4776785714286,2413.2,795.5714285714286,563.4776785714286,2521.9,795.5714285714286,563.4776785714286,2631.3,796.5714285714286,563.4776785714286,2739.1,796.5714285714286,562.4776785714286,2847.2,796.5714285714286,562.4776785714286,2953.6,797.5714285714286,562.4776785714286,3058.7,797.5714285714286,562.4776785714286,3162.8,797.5714285714286,562.4776785714286,3266.3,798.5714285714286,562.4776785714286,3373.9,798.5714285714286,562.4776785714286,3480.1,798.5714285714286,562.4776785714286,3581.7,798.5714285714286,562.4776785714286,3687.1,798.5714285714286,562.4776785714286,3791.3,798.5714285714286,562.4776785714286,3897.5,798.5714285714286,562.4776785714286,4000.8,798.5714285714286,562.4776785714286,4109,798.5714285714286,562.4776785714286,4210.2,798.5714285714286,562.4776785714286,4313,798.5714285714286,562.4776785714286,4419,798.5714285714286,562.4776785714286,4524.8,798.5714285714286,562.4776785714286,4625.2,798.5714285714286,562.4776785714286,4737.6,798.5714285714286,562.4776785714286,4842.8,798.5714285714286,562.4776785714286,4949.5]","[1630.8,1630.8,1000,0,630.8,""oops"",""left"",""down"",""good_move"",4567.1,2935.5,2566.2,1631.6,369.3,""smooth"",""left"",""left"",""good_move"",7814.3,3246.7,2783.8,4567.6,462.9,""oops"",""left"",""up"",""bad_move"",10414.6,2600,2279.2,7814.6,320.8,""oops"",""left"",""up"",""bad_move"",13959,3544.3,3186,10414.7,358.3,""smooth"",""down"",""down"",""good_move"",16094.4,2135.1,1764,13959.3,371.1,""smooth"",""down"",""down"",""good_move"",18470.3,2375.8,1987.3,16094.5,388.5,""smooth"",""down"",""down"",""good_move"",21102.7,2632.1,2224.6,18470.6,407.5,""smooth"",""down"",""down"",""good_move"",23742.5,2639.7,2306.9,21102.8,332.8,""smooth"",""left"",""left"",""good_move"",29950.7,6208,2000.2,27535.4,415.1,""oops"",""left"",""up"",""bad_move"",33286.7,3335.8,2957.5,29950.9,378.3,""smooth"",""down"",""down"",""good_move"",39702.4,6415.2,2154.2,37177.8,370.4,""oops"",""left"",""right"",""bad_move"",42998.6,3296.1,2869.8,39702.6,426.3,""smooth"",""left"",""left"",""good_move"",45430.6,2430.4,1943.6,43000.2,486.8,""smooth"",""left"",""left"",""good_move""]","",""
"1680","","<div style=""width:500px;"">
  <p>What determined the result of this run?</p>
  </div>","0","html-slider-response","65","734283","0.0-5.0-1.11","199","1","2025-07-23 08:50:18","1f75c3e559b7213887762d5229550c2b","85.246.21.29","Mozilla/5.0 (Windows NT 10.0; Win64; x64) AppleWebKit/537.36 (KHTML, like Gecko) Chrome/138.0.0.0 Safari/537.36","WebKit","Chrome","138.0.0.0","Windows","10.0","https://app.prolific.com/","pt-PT,pt;q=0.9,en-US;q=0.8,en;q=0.7","65a93241fc1ee8c40991a861","683dba2a8a9dda3513610c04","6880a2472c96894cdac8b39f","3","0","65a93241fc1ee8c40991a861","3","0","2025-07-23T09:02:34.249Z","","","","","","","","","","","AttribQ","","50","","","","","","","","","","","","","","","","","","","","","","","","","","","","",""
"1300","","<div style=""width:500px;"">
  <p>How much control did you have over the ball?</p>
  </div>","25","html-slider-response","66","735584","0.0-5.0-2.11","199","1","2025-07-23 08:50:18","1f75c3e559b7213887762d5229550c2b","85.246.21.29","Mozilla/5.0 (Windows NT 10.0; Win64; x64) AppleWebKit/537.36 (KHTML, like Gecko) Chrome/138.0.0.0 Safari/537.36","WebKit","Chrome","138.0.0.0","Windows","10.0","https://app.prolific.com/","pt-PT,pt;q=0.9,en-US;q=0.8,en;q=0.7","65a93241fc1ee8c40991a861","683dba2a8a9dda3513610c04","6880a2472c96894cdac8b39f","3","0","65a93241fc1ee8c40991a861","3","0","2025-07-23T09:02:35.550Z","","","","","","","","","","","ControlQ","","50","","","","","","","","","","","","","","","","","","","","","","","","","","","","",""
"1184","","<div style=""width:500px;"">
  <p>How would you describe your current emotional state?</p>
  </div>","0","html-slider-response","67","736769","0.0-5.0-3.11","199","1","2025-07-23 08:50:18","1f75c3e559b7213887762d5229550c2b","85.246.21.29","Mozilla/5.0 (Windows NT 10.0; Win64; x64) AppleWebKit/537.36 (KHTML, like Gecko) Chrome/138.0.0.0 Safari/537.36","WebKit","Chrome","138.0.0.0","Windows","10.0","https://app.prolific.com/","pt-PT,pt;q=0.9,en-US;q=0.8,en;q=0.7","65a93241fc1ee8c40991a861","683dba2a8a9dda3513610c04","6880a2472c96894cdac8b39f","3","0","65a93241fc1ee8c40991a861","3","0","2025-07-23T09:02:36.735Z","","","","","","","","","","","StressQ","","50","","","","","","","","","","","","","","","","","","","","","","","","","","","","",""
"1326","","<div style=""width:500px;"">
  <p>What best describes how you currently feel?</p>
  </div>","100","html-slider-response","68","738095","0.0-5.0-4.11","199","1","2025-07-23 08:50:18","1f75c3e559b7213887762d5229550c2b","85.246.21.29","Mozilla/5.0 (Windows NT 10.0; Win64; x64) AppleWebKit/537.36 (KHTML, like Gecko) Chrome/138.0.0.0 Safari/537.36","WebKit","Chrome","138.0.0.0","Windows","10.0","https://app.prolific.com/","pt-PT,pt;q=0.9,en-US;q=0.8,en;q=0.7","65a93241fc1ee8c40991a861","683dba2a8a9dda3513610c04","6880a2472c96894cdac8b39f","3","0","65a93241fc1ee8c40991a861","3","0","2025-07-23T09:02:38.061Z","","","","","","","","","","","MotivationQ","","50","","","","","","","","","","","","","","","","","","","","","","","","","","","","",""
"","","","","ctl-task-cpt","69","758693","0.0-5.0-0.12","199","1","2025-07-23 08:50:18","1f75c3e559b7213887762d5229550c2b","85.246.21.29","Mozilla/5.0 (Windows NT 10.0; Win64; x64) AppleWebKit/537.36 (KHTML, like Gecko) Chrome/138.0.0.0 Safari/537.36","WebKit","Chrome","138.0.0.0","Windows","10.0","https://app.prolific.com/","pt-PT,pt;q=0.9,en-US;q=0.8,en;q=0.7","65a93241fc1ee8c40991a861","683dba2a8a9dda3513610c04","6880a2472c96894cdac8b39f","3","0","65a93241fc1ee8c40991a861","3","0","2025-07-23T09:02:58.659Z","","","","","","","","","","","","","","win-only","3","g1:SW,g2:NE","0.7","13","0","739519.2","1008.1","6014.7","17580.7","1","4","8","6","1","1","1","35","34","0.26515151515151514","777.1","3000","2175","[""down"",""left""]","{""num_key_presses"":4,""num_perfect"":3,""num_errors"":0,""num_randdir"":1,""num_randdir_good_moves"":1,""num_whilered"":0,""num_whileblue"":0,""num_blue"":0,""num_good_moves"":4}","[414.57142857142856,412.47767857142856,0.2,414.57142857142856,412.47767857142856,101.9,414.57142857142856,412.47767857142856,207.3,414.57142857142856,412.47767857142856,314.2,431.57142857142856,406.47767857142856,422,427.57142857142856,416.47767857142856,525.3,219.57142857142856,614.4776785714286,629.7,90.57142857142857,715.4776785714286,738.9,87.57142857142857,716.4776785714286,842.3,87.57142857142857,716.4776785714286,950.8,-102.42857142857143,656.4776785714286,1061.8,-252.42857142857144,612.4776785714286,1169.8,-252.42857142857144,612.4776785714286,1277.2,-252.42857142857144,612.4776785714286,1387.5,-252.42857142857144,612.4776785714286,1495.2,-252.42857142857144,612.4776785714286,1602.4,-252.42857142857144,612.4776785714286,1706,-252.42857142857144,612.4776785714286,1810.2,-252.42857142857144,612.4776785714286,1910.7,-252.42857142857144,612.4776785714286,2029.3,-252.42857142857144,612.4776785714286,2131.2,-252.42857142857144,612.4776785714286,2236.9,-252.42857142857144,612.4776785714286,2344.9,-252.42857142857144,612.4776785714286,2455.4,-252.42857142857144,612.4776785714286,2558.5,-252.42857142857144,612.4776785714286,2660,-252.42857142857144,612.4776785714286,2763.7,-252.42857142857144,612.4776785714286,2865.2,-252.42857142857144,612.4776785714286,2965.9,-252.42857142857144,612.4776785714286,3072.3,-252.42857142857144,612.4776785714286,3184.9,-252.42857142857144,612.4776785714286,3287.2,-252.42857142857144,612.4776785714286,3393.6,-252.42857142857144,612.4776785714286,3501,-252.42857142857144,612.4776785714286,3605.9,-252.42857142857144,612.4776785714286,3709.4,-252.42857142857144,612.4776785714286,3817.3,-252.42857142857144,612.4776785714286,3919,-252.42857142857144,612.4776785714286,4024.1,-252.42857142857144,612.4776785714286,4131.4,-252.42857142857144,612.4776785714286,4234.5,-252.42857142857144,612.4776785714286,4342.6,-252.42857142857144,612.4776785714286,4448.4,-252.42857142857144,612.4776785714286,4552.8,-252.42857142857144,612.4776785714286,4662,-252.42857142857144,612.4776785714286,4769.4,-252.42857142857144,612.4776785714286,4874,-252.42857142857144,612.4776785714286,4982.3]","[1795.2,1795.2,1000,0,795.2,""smooth"",""down"",""down"",""good_move"",5244.4,3448.7,3051.7,1795.7,397,""smooth"",""left"",""left"",""good_move"",8836.1,3591.3,3196.1,5244.8,395.2,""smooth"",""down"",""down"",""good_move"",11371.4,2534.2,2221.3,8837.2,312.9,""oops"",""left"",""left"",""good_move""]","",""
"2410","","<div style=""width:500px;"">
  <p>What determined the result of this run?</p>
  </div>","7","html-slider-response","70","761104","0.0-5.0-1.12","199","1","2025-07-23 08:50:18","1f75c3e559b7213887762d5229550c2b","85.246.21.29","Mozilla/5.0 (Windows NT 10.0; Win64; x64) AppleWebKit/537.36 (KHTML, like Gecko) Chrome/138.0.0.0 Safari/537.36","WebKit","Chrome","138.0.0.0","Windows","10.0","https://app.prolific.com/","pt-PT,pt;q=0.9,en-US;q=0.8,en;q=0.7","65a93241fc1ee8c40991a861","683dba2a8a9dda3513610c04","6880a2472c96894cdac8b39f","3","0","65a93241fc1ee8c40991a861","3","0","2025-07-23T09:03:01.070Z","","","","","","","","","","","AttribQ","","50","","","","","","","","","","","","","","","","","","","","","","","","","","","","",""
"1339","","<div style=""width:500px;"">
  <p>How much control did you have over the ball?</p>
  </div>","0","html-slider-response","71","762444","0.0-5.0-2.12","199","1","2025-07-23 08:50:18","1f75c3e559b7213887762d5229550c2b","85.246.21.29","Mozilla/5.0 (Windows NT 10.0; Win64; x64) AppleWebKit/537.36 (KHTML, like Gecko) Chrome/138.0.0.0 Safari/537.36","WebKit","Chrome","138.0.0.0","Windows","10.0","https://app.prolific.com/","pt-PT,pt;q=0.9,en-US;q=0.8,en;q=0.7","65a93241fc1ee8c40991a861","683dba2a8a9dda3513610c04","6880a2472c96894cdac8b39f","3","0","65a93241fc1ee8c40991a861","3","0","2025-07-23T09:03:02.411Z","","","","","","","","","","","ControlQ","","50","","","","","","","","","","","","","","","","","","","","","","","","","","","","",""
"1613","","<div style=""width:500px;"">
  <p>How would you describe your current emotional state?</p>
  </div>","0","html-slider-response","72","764059","0.0-5.0-3.12","199","1","2025-07-23 08:50:18","1f75c3e559b7213887762d5229550c2b","85.246.21.29","Mozilla/5.0 (Windows NT 10.0; Win64; x64) AppleWebKit/537.36 (KHTML, like Gecko) Chrome/138.0.0.0 Safari/537.36","WebKit","Chrome","138.0.0.0","Windows","10.0","https://app.prolific.com/","pt-PT,pt;q=0.9,en-US;q=0.8,en;q=0.7","65a93241fc1ee8c40991a861","683dba2a8a9dda3513610c04","6880a2472c96894cdac8b39f","3","0","65a93241fc1ee8c40991a861","3","0","2025-07-23T09:03:04.025Z","","","","","","","","","","","StressQ","","50","","","","","","","","","","","","","","","","","","","","","","","","","","","","",""
"1321","","<div style=""width:500px;"">
  <p>What best describes how you currently feel?</p>
  </div>","100","html-slider-response","73","765380","0.0-5.0-4.12","199","1","2025-07-23 08:50:18","1f75c3e559b7213887762d5229550c2b","85.246.21.29","Mozilla/5.0 (Windows NT 10.0; Win64; x64) AppleWebKit/537.36 (KHTML, like Gecko) Chrome/138.0.0.0 Safari/537.36","WebKit","Chrome","138.0.0.0","Windows","10.0","https://app.prolific.com/","pt-PT,pt;q=0.9,en-US;q=0.8,en;q=0.7","65a93241fc1ee8c40991a861","683dba2a8a9dda3513610c04","6880a2472c96894cdac8b39f","3","0","65a93241fc1ee8c40991a861","3","0","2025-07-23T09:03:05.347Z","","","","","","","","","","","MotivationQ","","50","","","","","","","","","","","","","","","","","","","","","","","","","","","","",""
