"rt","response_timestamp","stimulus","response","trial_type","trial_index","time_elapsed","internal_node_id","run_id","condition","recorded_at","source_code_version","ip","user_agent","device","browser","browser_version","platform","platform_version","referer","accept_language","PROLIFIC_PID","STUDY_ID","SESSION_ID","WEEK","BATCH","prolific_id","week","batch","realtime","success","responses","item_order","radio_event_ids","radio_event_times","key_event_times","mouse_event_times","straightlining","zigzagging","honeypot","eventType","view_history","slider_start","which_type","canvas_config","goals_layout","control_level","trial_number","tutorial_trial_number","trial_start_time","phase1_start_time","phase2_start_time","phase3_start_time","goal_1_value","goal_1_distance","goal_2_value","goal_2_distance","goal_selected","outcome","outcome_total","participant_final_score","participant_initial_score","participant_final_score_prop","goal_choice_rt","allocated_time","allocated_time_remaining","goal_direction","counts","mouse_movements","key_presses","question_order","question_id"
"4163","1752656178200","<p style='font-size:40px;line-height:1.25'><strong>Welcome to the experiment!</strong></p><p style='font-size:1.1em;line-height:1.25'>Thank you for participanting in our experiment again! You will be asked to play the Dysfunctional Ball Game again. We will briefly recap the rules before we start.</p><p style='font-size:1.1em;line-height:1.25'>Press <strong>Next</strong> to continue.</p>","0","custom-html-button-response","0","4166","0.0-0.0","84","1","2025-07-16 08:56:11","1f75c3e559b7213887762d5229550c2b","122.133.157.125","Mozilla/5.0 (Macintosh; Intel Mac OS X 10_15_7) AppleWebKit/537.36 (KHTML, like Gecko) Chrome/137.0.0.0 Safari/537.36","Macintosh","Chrome","137.0.0.0","OS X","10_15_7","https://app.prolific.com/","en-US,en;q=0.9","65cb0f21257c8a98f470bb5d","686e379bc37a29ffa5cdc956","6877691be4e619d7f34814a0","1","1","65cb0f21257c8a98f470bb5d","1","1","2025-07-16T08:56:18.202Z","","","","","","","","","","","","","","","","","","","","","","","","","","","","","","","","","","","","","","","","","",""
"8170","","","","fullscreen","1","13338","0.0-1.0","84","1","2025-07-16 08:56:11","1f75c3e559b7213887762d5229550c2b","122.133.157.125","Mozilla/5.0 (Macintosh; Intel Mac OS X 10_15_7) AppleWebKit/537.36 (KHTML, like Gecko) Chrome/137.0.0.0 Safari/537.36","Macintosh","Chrome","137.0.0.0","OS X","10_15_7","https://app.prolific.com/","en-US,en;q=0.9","65cb0f21257c8a98f470bb5d","686e379bc37a29ffa5cdc956","6877691be4e619d7f34814a0","1","1","65cb0f21257c8a98f470bb5d","1","1","","true","","","","","","","","","","","","","","","","","","","","","","","","","","","","","","","","","","","","","","","","",""
"3375","1752656190750","<p style='font-size:1.1em;line-height:1.25'>In the following, we will ask you a few questions relating to your feelings in the last 24 hours.<br></p><p style='font-size:1.1em;line-height:1.25'>Press the <strong>Next</strong> button to continue.</p>","0","custom-html-button-response","2","16715","0.0-2.0-0.0","84","1","2025-07-16 08:56:11","1f75c3e559b7213887762d5229550c2b","122.133.157.125","Mozilla/5.0 (Macintosh; Intel Mac OS X 10_15_7) AppleWebKit/537.36 (KHTML, like Gecko) Chrome/137.0.0.0 Safari/537.36","Macintosh","Chrome","137.0.0.0","OS X","10_15_7","https://app.prolific.com/","en-US,en;q=0.9","65cb0f21257c8a98f470bb5d","686e379bc37a29ffa5cdc956","6877691be4e619d7f34814a0","1","1","65cb0f21257c8a98f470bb5d","1","1","2025-07-16T08:56:30.751Z","","","","","","","","","","","","","","","","","","","","","","","","","","","","","","","","","","","","","","","","","",""
"84390.30000007153","","","","survey-template","3","101110","0.0-2.0-1.0","84","1","2025-07-16 08:56:11","1f75c3e559b7213887762d5229550c2b","122.133.157.125","Mozilla/5.0 (Macintosh; Intel Mac OS X 10_15_7) AppleWebKit/537.36 (KHTML, like Gecko) Chrome/137.0.0.0 Safari/537.36","Macintosh","Chrome","137.0.0.0","OS X","10_15_7","https://app.prolific.com/","en-US,en;q=0.9","65cb0f21257c8a98f470bb5d","686e379bc37a29ffa5cdc956","6877691be4e619d7f34814a0","1","1","65cb0f21257c8a98f470bb5d","1","1","2025-07-16T08:57:55.146Z","","{""Q01"":""0"",""Q02"":""0"",""Q03"":""0"",""Q04"":""2"",""Q05"":""1"",""Q06"":""0"",""Q07"":""0"",""Q08"":""0"",""Q09"":""0"",""Q10"":""3"",""Q11"":""3"",""Q12"":""1"",""Q13"":""5"",""Q14"":""2"",""Q15"":""3"",""Q16"":""0"",""Q17"":""2"",""Q18"":""0"",""Q19"":""1"",""Q20"":""2"",""Q21"":""0"",""Q22"":""0""}","[0,1,2,3,4,5,6,7,8,9,10,11,12,13,14,15,16,17,18,19,20,21]","[""Q01"",""Q02"",""Q03"",""Q04"",""Q05"",""Q06"",""Q04"",""Q07"",""Q08"",""Q09"",""Q10"",""Q11"",""Q12"",""Q13"",""Q14"",""Q15"",""Q16"",""Q17"",""Q18"",""Q19"",""Q20"",""Q21"",""Q22""]","[3581.4000000953674,5108.800000071526,6445.100000023842,14755,15990.100000023842,18011.800000071526,23625.200000047684,27047.400000095367,28619.900000095367,30175,33908,36788,43382.10000002384,46018.700000047684,51207.800000071526,55299.300000071526,57553.90000009537,62873.700000047684,63811.60000002384,72629.30000007153,77793.10000002384,81350.40000009537,83485.40000009537]","[]","[0.20000004768371582,3581.4000000953674,5108.800000071526,6445.100000023842,14755,15990.100000023842,18011.800000071526,23625.200000047684,27047.400000095367,28619.900000095367,30175,33227.700000047684,33908,36788,41724.60000002384,43382.10000002384,46018.700000047684,50276.200000047684,51207.800000071526,55299.300000071526,57553.90000009537,61891.10000002384,62873.700000047684,63811.60000002384,72629.30000007153,77793.10000002384,81350.40000009537,83485.40000009537,84385.10000002384]","0.5","0.23809523809523808","0","drsp","","","","","","","","","","","","","","","","","","","","","","","","","","","","","","",""
"20713.299999952316","","","","survey-template","4","121826","0.0-2.0-2.0","84","1","2025-07-16 08:56:11","1f75c3e559b7213887762d5229550c2b","122.133.157.125","Mozilla/5.0 (Macintosh; Intel Mac OS X 10_15_7) AppleWebKit/537.36 (KHTML, like Gecko) Chrome/137.0.0.0 Safari/537.36","Macintosh","Chrome","137.0.0.0","OS X","10_15_7","https://app.prolific.com/","en-US,en;q=0.9","65cb0f21257c8a98f470bb5d","686e379bc37a29ffa5cdc956","6877691be4e619d7f34814a0","1","1","65cb0f21257c8a98f470bb5d","1","1","2025-07-16T08:58:15.862Z","","{""Q01"":""2"",""Q02"":""3"",""Q03"":""2""}","[0,1,2]","[""Q01"",""Q02"",""Q03""]","[9270.5,13256.899999976158,16767]","[]","[9270.5,12480.899999976158,13256.899999976158,16767,20711.600000023842]","1","0","0","stress","","","","","","","","","","","","","","","","","","","","","","","","","","","","","","",""
"24761","","","","instructions","5","146588","0.0-3.0-0.0","84","1","2025-07-16 08:56:11","1f75c3e559b7213887762d5229550c2b","122.133.157.125","Mozilla/5.0 (Macintosh; Intel Mac OS X 10_15_7) AppleWebKit/537.36 (KHTML, like Gecko) Chrome/137.0.0.0 Safari/537.36","Macintosh","Chrome","137.0.0.0","OS X","10_15_7","https://app.prolific.com/","en-US,en;q=0.9","65cb0f21257c8a98f470bb5d","686e379bc37a29ffa5cdc956","6877691be4e619d7f34814a0","1","1","65cb0f21257c8a98f470bb5d","1","1","","","","","","","","","","","","","[{""page_index"":0,""viewing_time"":24760}]","","","","","","","","","","","","","","","","","","","","","","","","","","","","","",""
"9146","","<p>Before you start with this game please answer the following three questions yourself. </p>
  <p>Through this game, we measure several aspects of your cognitive performance, such as reaction times, multi-tasking capabilities </p>
  <p>and the ability to assess the situation you are in.</p>
  <p></p>
  <p><b>How good do you usually are in such tasks?</b></p>","74","html-slider-response","6","155735","0.0-4.0-0.0","84","1","2025-07-16 08:56:11","1f75c3e559b7213887762d5229550c2b","122.133.157.125","Mozilla/5.0 (Macintosh; Intel Mac OS X 10_15_7) AppleWebKit/537.36 (KHTML, like Gecko) Chrome/137.0.0.0 Safari/537.36","Macintosh","Chrome","137.0.0.0","OS X","10_15_7","https://app.prolific.com/","en-US,en;q=0.9","65cb0f21257c8a98f470bb5d","686e379bc37a29ffa5cdc956","6877691be4e619d7f34814a0","1","1","65cb0f21257c8a98f470bb5d","1","1","2025-07-16T08:58:49.771Z","","","","","","","","","","","PreSkillQ","","50","","","","","","","","","","","","","","","","","","","","","","","","","","","","",""
"4944","","<div style=""width:500px;"">
  <p>How well do you think you will perform in this task compared to other participants?</p>
  </div>","60","html-slider-response","7","160680","0.0-4.0-1.0","84","1","2025-07-16 08:56:11","1f75c3e559b7213887762d5229550c2b","122.133.157.125","Mozilla/5.0 (Macintosh; Intel Mac OS X 10_15_7) AppleWebKit/537.36 (KHTML, like Gecko) Chrome/137.0.0.0 Safari/537.36","Macintosh","Chrome","137.0.0.0","OS X","10_15_7","https://app.prolific.com/","en-US,en;q=0.9","65cb0f21257c8a98f470bb5d","686e379bc37a29ffa5cdc956","6877691be4e619d7f34814a0","1","1","65cb0f21257c8a98f470bb5d","1","1","2025-07-16T08:58:54.717Z","","","","","","","","","","","PrePerfQ","","50","","","","","","","","","","","","","","","","","","","","","","","","","","","","",""
"6039","","<div style=""width:500px;"">
  <p>What best describes how you currently feel?</p>
  </div>","86","html-slider-response","8","166722","0.0-4.0-2.0","84","1","2025-07-16 08:56:11","1f75c3e559b7213887762d5229550c2b","122.133.157.125","Mozilla/5.0 (Macintosh; Intel Mac OS X 10_15_7) AppleWebKit/537.36 (KHTML, like Gecko) Chrome/137.0.0.0 Safari/537.36","Macintosh","Chrome","137.0.0.0","OS X","10_15_7","https://app.prolific.com/","en-US,en;q=0.9","65cb0f21257c8a98f470bb5d","686e379bc37a29ffa5cdc956","6877691be4e619d7f34814a0","1","1","65cb0f21257c8a98f470bb5d","1","1","2025-07-16T08:59:00.758Z","","","","","","","","","","","PreMotivationQ","","50","","","","","","","","","","","","","","","","","","","","","","","","","","","","",""
"","","","","ctl-task-cpt","9","196442","0.0-5.0-0.0","84","1","2025-07-16 08:56:11","1f75c3e559b7213887762d5229550c2b","122.133.157.125","Mozilla/5.0 (Macintosh; Intel Mac OS X 10_15_7) AppleWebKit/537.36 (KHTML, like Gecko) Chrome/137.0.0.0 Safari/537.36","Macintosh","Chrome","137.0.0.0","OS X","10_15_7","https://app.prolific.com/","en-US,en;q=0.9","65cb0f21257c8a98f470bb5d","686e379bc37a29ffa5cdc956","6877691be4e619d7f34814a0","1","1","65cb0f21257c8a98f470bb5d","1","1","2025-07-16T08:59:30.478Z","","","","","","","","","","","","","","win-only","1","g1:NE,g2:SW","1","1","0","169827.1","1502.2","6506.8","26713.1","1","4","8","6","2","8","7","7","0","0.05303030303030303","1260.1","3000","800","[""down"",""left""]","{""num_key_presses"":8,""num_perfect"":7,""num_errors"":1,""num_randdir"":0,""num_randdir_good_moves"":0,""num_whilered"":0,""num_whileblue"":1,""num_blue"":1,""num_good_moves"":7}","[830.6508928571428,849.4477678571428,0.3,830.6508928571428,849.4477678571428,104.2,830.6508928571428,849.4477678571428,204.2,830.6508928571428,849.4477678571428,308.6,830.6508928571428,849.4477678571428,413.6,834.6508928571428,843.4477678571428,518.7,886.6508928571428,793.4477678571428,619.2,884.6508928571428,843.4477678571428,723.1,206.65089285714285,1653.447767857143,823.1,14.65089285714285,1649.447767857143,923.8,84.65089285714285,1565.447767857143,1029.3,150.65089285714285,1541.447767857143,1129.4,150.65089285714285,1541.447767857143,1233.5,150.65089285714285,1541.447767857143,1334.2,150.65089285714285,1541.447767857143,1435,150.65089285714285,1541.447767857143,1539.1,150.65089285714285,1541.447767857143,1639.5,150.65089285714285,1541.447767857143,1744,150.65089285714285,1541.447767857143,1849.4,154.65089285714285,1535.447767857143,1954.3,264.6508928571428,1491.447767857143,2058.6,284.6508928571428,1537.447767857143,2159,244.65089285714285,1567.447767857143,2263.5,244.65089285714285,1563.447767857143,2364,432.6508928571428,1471.447767857143,2468.7,1252.650892857143,1165.447767857143,2568.8,1282.650892857143,1219.447767857143,2669.1,1538.650892857143,1125.447767857143,2773.2,1602.650892857143,1113.447767857143,2873.3,1612.650892857143,1113.447767857143,2979,1676.650892857143,1101.447767857143,3084.3,1676.650892857143,1099.447767857143,3188.6,804.6508928571428,1145.447767857143,3293.6,-195.34910714285715,1293.447767857143,3399.2,-215.34910714285715,1401.447767857143,3504.6,28.65089285714285,1437.447767857143,3609,254.65089285714285,1421.447767857143,3713.5,352.6508928571428,1411.447767857143,3814.1,352.6508928571428,1411.447767857143,3914.4,972.6508928571428,1059.447767857143,4014.5,1752.650892857143,935.4477678571428,4119.6,1760.650892857143,1011.4477678571428,4223.1,1802.650892857143,1051.447767857143,4323.1,1802.650892857143,1051.447767857143,4429.2,1802.650892857143,1051.447767857143,4529.4,1802.650892857143,1051.447767857143,4629.5,1802.650892857143,1051.447767857143,4733.6,1802.650892857143,1051.447767857143,4833.7,1802.650892857143,1051.447767857143,4934]","[1311.3,1311.2,1000,0.1,311.2,""smooth"",""left"",""left"",""good_move"",3588.5,2276.7,1951.8,1311.8,324.9,""smooth"",""down"",""down"",""good_move"",6209.1,2620.2,2362.7,3588.9,257.5,""smooth"",""left"",""left"",""good_move"",9023.8,2814.6,2557.5,6209.2,257.1,""smooth"",""down"",""down"",""good_move"",12169.5,3145.4,2885.2,9024.1,260.2,""while_blue"",""left"",""up"",""bad_move"",15104.8,2934.6,2571.3,12170.2,363.3,""smooth"",""left"",""left"",""good_move"",17871.6,2766.6,2366.4,15105,400.2,""smooth"",""down"",""down"",""good_move"",20105.9,2234,1911.9,17871.9,322.1,""smooth"",""down"",""down"",""good_move""]","",""
"3201","","<div style=""width:500px;"">
  <p>What determined the result of this run?</p>
  </div>","100","html-slider-response","10","199644","0.0-5.0-1.0","84","1","2025-07-16 08:56:11","1f75c3e559b7213887762d5229550c2b","122.133.157.125","Mozilla/5.0 (Macintosh; Intel Mac OS X 10_15_7) AppleWebKit/537.36 (KHTML, like Gecko) Chrome/137.0.0.0 Safari/537.36","Macintosh","Chrome","137.0.0.0","OS X","10_15_7","https://app.prolific.com/","en-US,en;q=0.9","65cb0f21257c8a98f470bb5d","686e379bc37a29ffa5cdc956","6877691be4e619d7f34814a0","1","1","65cb0f21257c8a98f470bb5d","1","1","2025-07-16T08:59:33.680Z","","","","","","","","","","","AttribQ","","50","","","","","","","","","","","","","","","","","","","","","","","","","","","","",""
"2651","","<div style=""width:500px;"">
  <p>How much control did you have over the ball?</p>
  </div>","100","html-slider-response","11","202296","0.0-5.0-2.0","84","1","2025-07-16 08:56:11","1f75c3e559b7213887762d5229550c2b","122.133.157.125","Mozilla/5.0 (Macintosh; Intel Mac OS X 10_15_7) AppleWebKit/537.36 (KHTML, like Gecko) Chrome/137.0.0.0 Safari/537.36","Macintosh","Chrome","137.0.0.0","OS X","10_15_7","https://app.prolific.com/","en-US,en;q=0.9","65cb0f21257c8a98f470bb5d","686e379bc37a29ffa5cdc956","6877691be4e619d7f34814a0","1","1","65cb0f21257c8a98f470bb5d","1","1","2025-07-16T08:59:36.332Z","","","","","","","","","","","ControlQ","","50","","","","","","","","","","","","","","","","","","","","","","","","","","","","",""
"8203","","<div style=""width:500px;"">
  <p>How would you describe your current emotional state?</p>
  </div>","20","html-slider-response","12","210500","0.0-5.0-3.0","84","1","2025-07-16 08:56:11","1f75c3e559b7213887762d5229550c2b","122.133.157.125","Mozilla/5.0 (Macintosh; Intel Mac OS X 10_15_7) AppleWebKit/537.36 (KHTML, like Gecko) Chrome/137.0.0.0 Safari/537.36","Macintosh","Chrome","137.0.0.0","OS X","10_15_7","https://app.prolific.com/","en-US,en;q=0.9","65cb0f21257c8a98f470bb5d","686e379bc37a29ffa5cdc956","6877691be4e619d7f34814a0","1","1","65cb0f21257c8a98f470bb5d","1","1","2025-07-16T08:59:44.536Z","","","","","","","","","","","StressQ","","50","","","","","","","","","","","","","","","","","","","","","","","","","","","","",""
"5017","","<div style=""width:500px;"">
  <p>What best describes how you currently feel?</p>
  </div>","84","html-slider-response","13","215518","0.0-5.0-4.0","84","1","2025-07-16 08:56:11","1f75c3e559b7213887762d5229550c2b","122.133.157.125","Mozilla/5.0 (Macintosh; Intel Mac OS X 10_15_7) AppleWebKit/537.36 (KHTML, like Gecko) Chrome/137.0.0.0 Safari/537.36","Macintosh","Chrome","137.0.0.0","OS X","10_15_7","https://app.prolific.com/","en-US,en;q=0.9","65cb0f21257c8a98f470bb5d","686e379bc37a29ffa5cdc956","6877691be4e619d7f34814a0","1","1","65cb0f21257c8a98f470bb5d","1","1","2025-07-16T08:59:49.554Z","","","","","","","","","","","MotivationQ","","50","","","","","","","","","","","","","","","","","","","","","","","","","","","","",""
"","","","","ctl-task-cpt","14","255293","0.0-5.0-0.1","84","1","2025-07-16 08:56:11","1f75c3e559b7213887762d5229550c2b","122.133.157.125","Mozilla/5.0 (Macintosh; Intel Mac OS X 10_15_7) AppleWebKit/537.36 (KHTML, like Gecko) Chrome/137.0.0.0 Safari/537.36","Macintosh","Chrome","137.0.0.0","OS X","10_15_7","https://app.prolific.com/","en-US,en;q=0.9","65cb0f21257c8a98f470bb5d","686e379bc37a29ffa5cdc956","6877691be4e619d7f34814a0","1","1","65cb0f21257c8a98f470bb5d","1","1","2025-07-16T09:00:29.329Z","","","","","","","","","","","","","","win-only","2","g1:SE,g2:NW","0.9","2","0","218620.5","1629.6","6630.6","36765.3","1","4","4","6","2","4","3","10","7","0.07575757575757576","1570.7","3000","260","[""left"",""up""]","{""num_key_presses"":10,""num_perfect"":8,""num_errors"":1,""num_randdir"":1,""num_randdir_good_moves"":0,""num_whilered"":0,""num_whileblue"":1,""num_blue"":2,""num_good_moves"":8}","[830.6508928571428,829.4477678571428,0.1,830.6508928571428,829.4477678571428,100.9,830.6508928571428,829.4477678571428,202.9,830.6508928571428,829.4477678571428,306.2,830.6508928571428,829.4477678571428,406.4,832.6508928571428,831.4477678571428,511.6,998.6508928571428,995.4477678571428,615.9,1000.6508928571428,999.4477678571428,715.9,1000.6508928571428,999.4477678571428,820.4,1000.6508928571428,999.4477678571428,921.3,1000.6508928571428,999.4477678571428,1025.9,996.6508928571428,987.4477678571428,1126.3,288.6508928571428,235.44776785714285,1226.4,198.65089285714285,147.44776785714285,1326.5,192.65089285714285,151.44776785714285,1426.5,192.65089285714285,151.44776785714285,1531.7,192.65089285714285,151.44776785714285,1636.6,192.65089285714285,151.44776785714285,1741.4,192.65089285714285,151.44776785714285,1841.8,194.65089285714285,151.44776785714285,1946,1578.650892857143,505.4477678571428,2046.8,1910.650892857143,735.4477678571428,2151.3,1752.650892857143,651.4477678571428,2256.9,1728.650892857143,625.4477678571428,2361.6,1728.650892857143,625.4477678571428,2465.9,1728.650892857143,625.4477678571428,2566,1728.650892857143,625.4477678571428,2667,1728.650892857143,625.4477678571428,2771.5,1728.650892857143,625.4477678571428,2871.6,1728.650892857143,625.4477678571428,2975.7,1728.650892857143,625.4477678571428,3076.1,1728.650892857143,625.4477678571428,3176.4,1728.650892857143,625.4477678571428,3280.9,1728.650892857143,625.4477678571428,3385.4,1728.650892857143,625.4477678571428,3486.4,1728.650892857143,625.4477678571428,3591.6,1728.650892857143,625.4477678571428,3691.7,1728.650892857143,625.4477678571428,3796.8,1728.650892857143,625.4477678571428,3903.8,1728.650892857143,625.4477678571428,4006.2,1728.650892857143,625.4477678571428,4111,1728.650892857143,625.4477678571428,4211.2,1728.650892857143,625.4477678571428,4316,1728.650892857143,625.4477678571428,4416.6,1728.650892857143,625.4477678571428,4516.8,1728.650892857143,625.4477678571428,4621.6,1728.650892857143,625.4477678571428,4722.3,1728.650892857143,625.4477678571428,4825.7,1728.650892857143,625.4477678571428,4926.7]","[1340.7,1340.7,1000,0,340.7,""oops"",""left"",""down"",""bad_move"",4331.1,2990,2684.5,1341.1,305.5,""smooth"",""left"",""left"",""good_move"",7206,2874.7,2601.5,4331.3,273.2,""smooth"",""up"",""up"",""good_move"",9790.9,2584.5,2307.2,7206.4,277.3,""smooth"",""left"",""left"",""good_move"",12603.8,2812.8,2510.4,9791,302.4,""smooth"",""up"",""up"",""good_move"",15133.1,2529.1,2276.6,12604,252.5,""while_blue"",""left"",""right"",""bad_move"",17733.1,2599.5,2267.3,15133.6,332.2,""smooth"",""left"",""left"",""good_move"",23584.2,5850.9,2698.3,20545.8,340.1,""smooth"",""up"",""up"",""good_move"",27037.4,3453.1,3128.1,23584.3,325,""smooth"",""left"",""left"",""good_move"",30039.2,3001.6,2721.3,27037.6,280.3,""smooth"",""up"",""up"",""good_move""]","",""
"2963","","<div style=""width:500px;"">
  <p>What determined the result of this run?</p>
  </div>","78","html-slider-response","15","258256","0.0-5.0-1.1","84","1","2025-07-16 08:56:11","1f75c3e559b7213887762d5229550c2b","122.133.157.125","Mozilla/5.0 (Macintosh; Intel Mac OS X 10_15_7) AppleWebKit/537.36 (KHTML, like Gecko) Chrome/137.0.0.0 Safari/537.36","Macintosh","Chrome","137.0.0.0","OS X","10_15_7","https://app.prolific.com/","en-US,en;q=0.9","65cb0f21257c8a98f470bb5d","686e379bc37a29ffa5cdc956","6877691be4e619d7f34814a0","1","1","65cb0f21257c8a98f470bb5d","1","1","2025-07-16T09:00:32.292Z","","","","","","","","","","","AttribQ","","50","","","","","","","","","","","","","","","","","","","","","","","","","","","","",""
"2547","","<div style=""width:500px;"">
  <p>How much control did you have over the ball?</p>
  </div>","76","html-slider-response","16","260804","0.0-5.0-2.1","84","1","2025-07-16 08:56:11","1f75c3e559b7213887762d5229550c2b","122.133.157.125","Mozilla/5.0 (Macintosh; Intel Mac OS X 10_15_7) AppleWebKit/537.36 (KHTML, like Gecko) Chrome/137.0.0.0 Safari/537.36","Macintosh","Chrome","137.0.0.0","OS X","10_15_7","https://app.prolific.com/","en-US,en;q=0.9","65cb0f21257c8a98f470bb5d","686e379bc37a29ffa5cdc956","6877691be4e619d7f34814a0","1","1","65cb0f21257c8a98f470bb5d","1","1","2025-07-16T09:00:34.840Z","","","","","","","","","","","ControlQ","","50","","","","","","","","","","","","","","","","","","","","","","","","","","","","",""
"3332","","<div style=""width:500px;"">
  <p>How would you describe your current emotional state?</p>
  </div>","32","html-slider-response","17","264137","0.0-5.0-3.1","84","1","2025-07-16 08:56:11","1f75c3e559b7213887762d5229550c2b","122.133.157.125","Mozilla/5.0 (Macintosh; Intel Mac OS X 10_15_7) AppleWebKit/537.36 (KHTML, like Gecko) Chrome/137.0.0.0 Safari/537.36","Macintosh","Chrome","137.0.0.0","OS X","10_15_7","https://app.prolific.com/","en-US,en;q=0.9","65cb0f21257c8a98f470bb5d","686e379bc37a29ffa5cdc956","6877691be4e619d7f34814a0","1","1","65cb0f21257c8a98f470bb5d","1","1","2025-07-16T09:00:38.173Z","","","","","","","","","","","StressQ","","50","","","","","","","","","","","","","","","","","","","","","","","","","","","","",""
"2467","","<div style=""width:500px;"">
  <p>What best describes how you currently feel?</p>
  </div>","83","html-slider-response","18","266605","0.0-5.0-4.1","84","1","2025-07-16 08:56:11","1f75c3e559b7213887762d5229550c2b","122.133.157.125","Mozilla/5.0 (Macintosh; Intel Mac OS X 10_15_7) AppleWebKit/537.36 (KHTML, like Gecko) Chrome/137.0.0.0 Safari/537.36","Macintosh","Chrome","137.0.0.0","OS X","10_15_7","https://app.prolific.com/","en-US,en;q=0.9","65cb0f21257c8a98f470bb5d","686e379bc37a29ffa5cdc956","6877691be4e619d7f34814a0","1","1","65cb0f21257c8a98f470bb5d","1","1","2025-07-16T09:00:40.641Z","","","","","","","","","","","MotivationQ","","50","","","","","","","","","","","","","","","","","","","","","","","","","","","","",""
"","","","","ctl-task-cpt","19","295361","0.0-5.0-0.2","84","1","2025-07-16 08:56:11","1f75c3e559b7213887762d5229550c2b","122.133.157.125","Mozilla/5.0 (Macintosh; Intel Mac OS X 10_15_7) AppleWebKit/537.36 (KHTML, like Gecko) Chrome/137.0.0.0 Safari/537.36","Macintosh","Chrome","137.0.0.0","OS X","10_15_7","https://app.prolific.com/","en-US,en;q=0.9","65cb0f21257c8a98f470bb5d","686e379bc37a29ffa5cdc956","6877691be4e619d7f34814a0","1","1","65cb0f21257c8a98f470bb5d","1","1","2025-07-16T09:01:09.397Z","","","","","","","","","","","","","","win-only","1","g1:NE,g2:SW","0.8","3","0","269707.9","1244.6","6246.5","25746.5","1","4","4","6","2","4","4","14","10","0.10606060606060606","1179.6","3000","830","[""down"",""left""]","{""num_key_presses"":6,""num_perfect"":5,""num_errors"":0,""num_randdir"":1,""num_randdir_good_moves"":1,""num_whilered"":0,""num_whileblue"":0,""num_blue"":1,""num_good_moves"":6}","[828.6508928571428,833.4477678571428,0.1,828.6508928571428,833.4477678571428,101.5,828.6508928571428,833.4477678571428,206.5,828.6508928571428,833.4477678571428,306.7,828.6508928571428,833.4477678571428,411.6,876.6508928571428,785.4477678571428,515.9,866.6508928571428,833.4477678571428,617,484.6508928571428,1301.447767857143,721.6,274.6508928571428,1317.447767857143,826.5,258.6508928571428,1369.447767857143,930.5,214.65089285714285,1541.447767857143,1032.7,214.65089285714285,1541.447767857143,1136.1,214.65089285714285,1541.447767857143,1238.3,214.65089285714285,1541.447767857143,1340.6,216.65089285714285,1541.447767857143,1441.2,1584.650892857143,997.4477678571428,1541.6,2228.650892857143,1083.447767857143,1646.5,2224.650892857143,1093.447767857143,1746.6,2054.650892857143,1133.447767857143,1851.8,2038.650892857143,1133.447767857143,1955.8,2038.650892857143,1133.447767857143,2056.1,2038.650892857143,1133.447767857143,2156.5,2038.650892857143,1133.447767857143,2261.4,2038.650892857143,1133.447767857143,2361.6,2038.650892857143,1133.447767857143,2461.6,2038.650892857143,1133.447767857143,2565.5,2038.650892857143,1133.447767857143,2666.3,2038.650892857143,1133.447767857143,2768.1,2038.650892857143,1133.447767857143,2875,2038.650892857143,1133.447767857143,2976.5,2038.650892857143,1133.447767857143,3077,2038.650892857143,1133.447767857143,3180.8,2038.650892857143,1133.447767857143,3281.7,2038.650892857143,1133.447767857143,3386.1,2038.650892857143,1133.447767857143,3487.1,2038.650892857143,1133.447767857143,3591,2038.650892857143,1133.447767857143,3691.1,2038.650892857143,1133.447767857143,3791.3,2038.650892857143,1133.447767857143,3895.6,2038.650892857143,1133.447767857143,3996,2038.650892857143,1133.447767857143,4096.9,2038.650892857143,1133.447767857143,4200.8,2038.650892857143,1133.447767857143,4301.1,2038.650892857143,1133.447767857143,4403.3,2038.650892857143,1133.447767857143,4506.4,2038.650892857143,1133.447767857143,4607.3,2038.650892857143,1133.447767857143,4713.9,2038.650892857143,1133.447767857143,4817.9,2038.650892857143,1133.447767857143,4921.3]","[1313.5,1313.5,1000,0,313.5,""smooth"",""left"",""left"",""good_move"",4769.9,3456.1,3167.3,1313.8,288.8,""smooth"",""down"",""down"",""good_move"",10856.9,6086.9,1758.4,8795.1,303.4,""oops"",""left"",""down"",""good_move"",13033.9,2176.9,1742,10857.1,434.8,""smooth"",""left"",""left"",""good_move"",16498.5,3464.4,2917.2,13034.1,547.2,""smooth"",""down"",""down"",""good_move"",19414.3,2915.7,2592.1,16498.6,323.6,""smooth"",""left"",""left"",""good_move""]","",""
"2846","","<div style=""width:500px;"">
  <p>What determined the result of this run?</p>
  </div>","89","html-slider-response","20","298208","0.0-5.0-1.2","84","1","2025-07-16 08:56:11","1f75c3e559b7213887762d5229550c2b","122.133.157.125","Mozilla/5.0 (Macintosh; Intel Mac OS X 10_15_7) AppleWebKit/537.36 (KHTML, like Gecko) Chrome/137.0.0.0 Safari/537.36","Macintosh","Chrome","137.0.0.0","OS X","10_15_7","https://app.prolific.com/","en-US,en;q=0.9","65cb0f21257c8a98f470bb5d","686e379bc37a29ffa5cdc956","6877691be4e619d7f34814a0","1","1","65cb0f21257c8a98f470bb5d","1","1","2025-07-16T09:01:12.244Z","","","","","","","","","","","AttribQ","","50","","","","","","","","","","","","","","","","","","","","","","","","","","","","",""
"2367","","<div style=""width:500px;"">
  <p>How much control did you have over the ball?</p>
  </div>","84","html-slider-response","21","300576","0.0-5.0-2.2","84","1","2025-07-16 08:56:11","1f75c3e559b7213887762d5229550c2b","122.133.157.125","Mozilla/5.0 (Macintosh; Intel Mac OS X 10_15_7) AppleWebKit/537.36 (KHTML, like Gecko) Chrome/137.0.0.0 Safari/537.36","Macintosh","Chrome","137.0.0.0","OS X","10_15_7","https://app.prolific.com/","en-US,en;q=0.9","65cb0f21257c8a98f470bb5d","686e379bc37a29ffa5cdc956","6877691be4e619d7f34814a0","1","1","65cb0f21257c8a98f470bb5d","1","1","2025-07-16T09:01:14.612Z","","","","","","","","","","","ControlQ","","50","","","","","","","","","","","","","","","","","","","","","","","","","","","","",""
"1884","","<div style=""width:500px;"">
  <p>How would you describe your current emotional state?</p>
  </div>","23","html-slider-response","22","302461","0.0-5.0-3.2","84","1","2025-07-16 08:56:11","1f75c3e559b7213887762d5229550c2b","122.133.157.125","Mozilla/5.0 (Macintosh; Intel Mac OS X 10_15_7) AppleWebKit/537.36 (KHTML, like Gecko) Chrome/137.0.0.0 Safari/537.36","Macintosh","Chrome","137.0.0.0","OS X","10_15_7","https://app.prolific.com/","en-US,en;q=0.9","65cb0f21257c8a98f470bb5d","686e379bc37a29ffa5cdc956","6877691be4e619d7f34814a0","1","1","65cb0f21257c8a98f470bb5d","1","1","2025-07-16T09:01:16.497Z","","","","","","","","","","","StressQ","","50","","","","","","","","","","","","","","","","","","","","","","","","","","","","",""
"3107","","<div style=""width:500px;"">
  <p>What best describes how you currently feel?</p>
  </div>","80","html-slider-response","23","305568","0.0-5.0-4.2","84","1","2025-07-16 08:56:11","1f75c3e559b7213887762d5229550c2b","122.133.157.125","Mozilla/5.0 (Macintosh; Intel Mac OS X 10_15_7) AppleWebKit/537.36 (KHTML, like Gecko) Chrome/137.0.0.0 Safari/537.36","Macintosh","Chrome","137.0.0.0","OS X","10_15_7","https://app.prolific.com/","en-US,en;q=0.9","65cb0f21257c8a98f470bb5d","686e379bc37a29ffa5cdc956","6877691be4e619d7f34814a0","1","1","65cb0f21257c8a98f470bb5d","1","1","2025-07-16T09:01:19.604Z","","","","","","","","","","","MotivationQ","","50","","","","","","","","","","","","","","","","","","","","","","","","","","","","",""
"","","","","ctl-task-cpt","24","345877","0.0-5.0-0.3","84","1","2025-07-16 08:56:11","1f75c3e559b7213887762d5229550c2b","122.133.157.125","Mozilla/5.0 (Macintosh; Intel Mac OS X 10_15_7) AppleWebKit/537.36 (KHTML, like Gecko) Chrome/137.0.0.0 Safari/537.36","Macintosh","Chrome","137.0.0.0","OS X","10_15_7","https://app.prolific.com/","en-US,en;q=0.9","65cb0f21257c8a98f470bb5d","686e379bc37a29ffa5cdc956","6877691be4e619d7f34814a0","1","1","65cb0f21257c8a98f470bb5d","1","1","2025-07-16T09:01:59.913Z","","","","","","","","","","","","","","win-only","1","g1:NE,g2:SW","0.7","4","0","308670.9","1016.3","6018.7","37301","1","4","8","6","2","8","7","21","14","0.1590909090909091","1018.7","3000","300","[""down"",""left""]","{""num_key_presses"":10,""num_perfect"":6,""num_errors"":1,""num_randdir"":3,""num_randdir_good_moves"":1,""num_whilered"":0,""num_whileblue"":1,""num_blue"":2,""num_good_moves"":8}","[840.6508928571428,821.4477678571428,0,840.6508928571428,821.4477678571428,100.2,840.6508928571428,821.4477678571428,200.6,840.6508928571428,821.4477678571428,304.1,896.6508928571428,751.4477678571428,409.1,812.6508928571428,813.4477678571428,509.1,318.6508928571428,1307.447767857143,609.9,278.6508928571428,1331.447767857143,716.1,192.65089285714285,1469.447767857143,819.1,172.65089285714285,1521.447767857143,919.3,172.65089285714285,1521.447767857143,1032,172.65089285714285,1521.447767857143,1134.7,172.65089285714285,1521.447767857143,1240,316.6508928571428,1437.447767857143,1344.4,1262.650892857143,875.4477678571428,1444.9,1308.650892857143,849.4477678571428,1549,1308.650892857143,849.4477678571428,1649.1,1308.650892857143,849.4477678571428,1750,1308.650892857143,849.4477678571428,1850.9,1346.650892857143,841.4477678571428,1955,1930.650892857143,661.4477678571428,2060.4,2014.650892857143,623.4477678571428,2165.1,2014.650892857143,623.4477678571428,2265.6,2014.650892857143,623.4477678571428,2370,2014.650892857143,623.4477678571428,2475.6,2014.650892857143,623.4477678571428,2582.4,2014.650892857143,623.4477678571428,2685.2,2014.650892857143,623.4477678571428,2789.6,2014.650892857143,623.4477678571428,2894.2,2014.650892857143,623.4477678571428,2999.4,2014.650892857143,623.4477678571428,3100,2014.650892857143,623.4477678571428,3204.6,2014.650892857143,623.4477678571428,3304.8,2014.650892857143,623.4477678571428,3409.5,2014.650892857143,623.4477678571428,3509.7,2014.650892857143,623.4477678571428,3613.9,2014.650892857143,623.4477678571428,3714.5,2014.650892857143,623.4477678571428,3816.9,2014.650892857143,623.4477678571428,3919.6,2014.650892857143,623.4477678571428,4019.6,2014.650892857143,623.4477678571428,4120.6,2014.650892857143,623.4477678571428,4224.1,2014.650892857143,623.4477678571428,4325.3,2014.650892857143,623.4477678571428,4429.8,2014.650892857143,623.4477678571428,4530.2,2014.650892857143,623.4477678571428,4630.4,2014.650892857143,623.4477678571428,4734.7,2014.650892857143,623.4477678571428,4839.5,2014.650892857143,623.4477678571428,4943.2]","[1325.1,1325.1,1000,0,325.1,""oops"",""left"",""right"",""bad_move"",4229,2903.7,2647.7,1325.3,256,""while_blue"",""down"",""left"",""good_move"",6855.8,2626.4,2291.7,4229.4,334.7,""smooth"",""down"",""down"",""good_move"",10099.9,3243.8,2921.4,6856.1,322.4,""smooth"",""left"",""left"",""good_move"",13892.2,3792.3,3333.9,10099.9,458.4,""oops"",""down"",""up"",""bad_move"",17062.4,3170.1,2860.4,13892.3,309.7,""smooth"",""left"",""left"",""good_move"",22267.3,5204.9,1589.1,20397.4,280.8,""oops"",""down"",""left"",""good_move"",25148.2,2880.8,2632.3,22267.4,248.5,""smooth"",""down"",""down"",""good_move"",28418.4,3270.1,3023.3,25148.3,246.9,""smooth"",""down"",""down"",""good_move"",31196.5,2778,2469.4,28418.5,308.6,""smooth"",""down"",""down"",""good_move""]","",""
"3201","","<div style=""width:500px;"">
  <p>What determined the result of this run?</p>
  </div>","76","html-slider-response","25","349079","0.0-5.0-1.3","84","1","2025-07-16 08:56:11","1f75c3e559b7213887762d5229550c2b","122.133.157.125","Mozilla/5.0 (Macintosh; Intel Mac OS X 10_15_7) AppleWebKit/537.36 (KHTML, like Gecko) Chrome/137.0.0.0 Safari/537.36","Macintosh","Chrome","137.0.0.0","OS X","10_15_7","https://app.prolific.com/","en-US,en;q=0.9","65cb0f21257c8a98f470bb5d","686e379bc37a29ffa5cdc956","6877691be4e619d7f34814a0","1","1","65cb0f21257c8a98f470bb5d","1","1","2025-07-16T09:02:03.115Z","","","","","","","","","","","AttribQ","","50","","","","","","","","","","","","","","","","","","","","","","","","","","","","",""
"1714","","<div style=""width:500px;"">
  <p>How much control did you have over the ball?</p>
  </div>","73","html-slider-response","26","350793","0.0-5.0-2.3","84","1","2025-07-16 08:56:11","1f75c3e559b7213887762d5229550c2b","122.133.157.125","Mozilla/5.0 (Macintosh; Intel Mac OS X 10_15_7) AppleWebKit/537.36 (KHTML, like Gecko) Chrome/137.0.0.0 Safari/537.36","Macintosh","Chrome","137.0.0.0","OS X","10_15_7","https://app.prolific.com/","en-US,en;q=0.9","65cb0f21257c8a98f470bb5d","686e379bc37a29ffa5cdc956","6877691be4e619d7f34814a0","1","1","65cb0f21257c8a98f470bb5d","1","1","2025-07-16T09:02:04.829Z","","","","","","","","","","","ControlQ","","50","","","","","","","","","","","","","","","","","","","","","","","","","","","","",""
"3342","","<div style=""width:500px;"">
  <p>How would you describe your current emotional state?</p>
  </div>","38","html-slider-response","27","354135","0.0-5.0-3.3","84","1","2025-07-16 08:56:11","1f75c3e559b7213887762d5229550c2b","122.133.157.125","Mozilla/5.0 (Macintosh; Intel Mac OS X 10_15_7) AppleWebKit/537.36 (KHTML, like Gecko) Chrome/137.0.0.0 Safari/537.36","Macintosh","Chrome","137.0.0.0","OS X","10_15_7","https://app.prolific.com/","en-US,en;q=0.9","65cb0f21257c8a98f470bb5d","686e379bc37a29ffa5cdc956","6877691be4e619d7f34814a0","1","1","65cb0f21257c8a98f470bb5d","1","1","2025-07-16T09:02:08.171Z","","","","","","","","","","","StressQ","","50","","","","","","","","","","","","","","","","","","","","","","","","","","","","",""
"3245","","<div style=""width:500px;"">
  <p>What best describes how you currently feel?</p>
  </div>","86","html-slider-response","28","357381","0.0-5.0-4.3","84","1","2025-07-16 08:56:11","1f75c3e559b7213887762d5229550c2b","122.133.157.125","Mozilla/5.0 (Macintosh; Intel Mac OS X 10_15_7) AppleWebKit/537.36 (KHTML, like Gecko) Chrome/137.0.0.0 Safari/537.36","Macintosh","Chrome","137.0.0.0","OS X","10_15_7","https://app.prolific.com/","en-US,en;q=0.9","65cb0f21257c8a98f470bb5d","686e379bc37a29ffa5cdc956","6877691be4e619d7f34814a0","1","1","65cb0f21257c8a98f470bb5d","1","1","2025-07-16T09:02:11.417Z","","","","","","","","","","","MotivationQ","","50","","","","","","","","","","","","","","","","","","","","","","","","","","","","",""
"","","","","ctl-task-cpt","29","402257","0.0-5.0-0.4","84","1","2025-07-16 08:56:11","1f75c3e559b7213887762d5229550c2b","122.133.157.125","Mozilla/5.0 (Macintosh; Intel Mac OS X 10_15_7) AppleWebKit/537.36 (KHTML, like Gecko) Chrome/137.0.0.0 Safari/537.36","Macintosh","Chrome","137.0.0.0","OS X","10_15_7","https://app.prolific.com/","en-US,en;q=0.9","65cb0f21257c8a98f470bb5d","686e379bc37a29ffa5cdc956","6877691be4e619d7f34814a0","1","1","65cb0f21257c8a98f470bb5d","1","1","2025-07-16T09:02:56.293Z","","","","","","","","","","","","","","win-only","1","g1:NE,g2:SW","0.6","5","0","360484.4","1047.3","6051.2","41865.7","1","4","4","6","2","-4","-5","16","21","0.12121212121212122","988.6","3000","-2915","[""down"",""left""]","{""num_key_presses"":12,""num_perfect"":7,""num_errors"":1,""num_randdir"":4,""num_randdir_good_moves"":1,""num_whilered"":0,""num_whileblue"":1,""num_blue"":1,""num_good_moves"":8}","[820.6508928571428,801.4477678571428,0.1,820.6508928571428,801.4477678571428,104.3,820.6508928571428,801.4477678571428,209.6,820.6508928571428,801.4477678571428,311.9,820.6508928571428,801.4477678571428,413.7,570.6508928571428,999.4477678571428,518.7,50.65089285714285,1549.447767857143,623.7,24.65089285714285,1525.447767857143,724.5,76.65089285714285,1513.447767857143,828.7,76.65089285714285,1513.447767857143,933.3,76.65089285714285,1513.447767857143,1033.7,76.65089285714285,1513.447767857143,1139.9,798.6508928571428,1169.447767857143,1242.7,1870.650892857143,967.4477678571428,1343.4,1894.650892857143,967.4477678571428,1443.5,1894.650892857143,967.4477678571428,1547.8,1894.650892857143,967.4477678571428,1648.6,1916.650892857143,977.4477678571428,1753.8,1968.650892857143,1005.4477678571428,1858.4,1968.650892857143,1005.4477678571428,1959.5,1968.650892857143,1005.4477678571428,2063,1968.650892857143,1005.4477678571428,2163.7,1968.650892857143,1005.4477678571428,2268.6,1968.650892857143,1005.4477678571428,2376.6,1968.650892857143,1005.4477678571428,2477.9,1968.650892857143,1005.4477678571428,2578.7,1968.650892857143,1005.4477678571428,2683.9,1968.650892857143,1005.4477678571428,2791.1,1968.650892857143,1005.4477678571428,2893.7,1968.650892857143,1005.4477678571428,2993.7,1968.650892857143,1005.4477678571428,3098.3,1968.650892857143,1005.4477678571428,3198.7,1968.650892857143,1005.4477678571428,3302.7,1968.650892857143,1005.4477678571428,3403.6,1968.650892857143,1005.4477678571428,3511,1968.650892857143,1005.4477678571428,3613.1,1968.650892857143,1005.4477678571428,3713.9,1968.650892857143,1005.4477678571428,3818.5,1968.650892857143,1005.4477678571428,3918.8,1968.650892857143,1005.4477678571428,4023.8,1968.650892857143,1005.4477678571428,4127.8,1968.650892857143,1005.4477678571428,4228.7,1968.650892857143,1005.4477678571428,4333.5,1968.650892857143,1005.4477678571428,4433.6,1968.650892857143,1005.4477678571428,4538.3,1968.650892857143,1005.4477678571428,4638.7,1968.650892857143,1005.4477678571428,4742.8,1968.650892857143,1005.4477678571428,4843.2,1968.650892857143,1005.4477678571428,4948.5]","[1349.5,1349.5,1000,0,349.5,""smooth"",""left"",""left"",""good_move"",4873.5,3523.8,3253.1,1349.7,270.7,""smooth"",""down"",""down"",""good_move"",8284.2,3410.5,3114.8,4873.7,295.7,""smooth"",""left"",""left"",""good_move"",11492,3207.6,2953.6,8284.4,254,""oops"",""down"",""down"",""good_move"",14399.1,2907.1,2655,11492,252.1,""oops"",""left"",""up"",""bad_move"",16553.5,2154.3,1813.8,14399.2,340.5,""smooth"",""down"",""down"",""good_move"",18855.3,2301.6,2052.7,16553.7,248.9,""oops"",""left"",""right"",""bad_move"",22220.5,3365.1,3110,18855.4,255.1,""smooth"",""down"",""down"",""good_move"",25340.4,3119.7,2874.6,22220.7,245.1,""oops"",""left"",""right"",""bad_move"",28121.4,2780.7,2549.6,25340.7,231.1,""while_blue"",""left"",""right"",""bad_move"",30762.6,2641,2340.4,28121.6,300.6,""smooth"",""left"",""left"",""good_move"",33555.7,2792.9,2506.8,30762.8,286.1,""smooth"",""left"",""left"",""good_move""]","",""
"4626","","<div style=""width:500px;"">
  <p>What determined the result of this run?</p>
  </div>","50","html-slider-response","30","406883","0.0-5.0-1.4","84","1","2025-07-16 08:56:11","1f75c3e559b7213887762d5229550c2b","122.133.157.125","Mozilla/5.0 (Macintosh; Intel Mac OS X 10_15_7) AppleWebKit/537.36 (KHTML, like Gecko) Chrome/137.0.0.0 Safari/537.36","Macintosh","Chrome","137.0.0.0","OS X","10_15_7","https://app.prolific.com/","en-US,en;q=0.9","65cb0f21257c8a98f470bb5d","686e379bc37a29ffa5cdc956","6877691be4e619d7f34814a0","1","1","65cb0f21257c8a98f470bb5d","1","1","2025-07-16T09:03:00.919Z","","","","","","","","","","","AttribQ","","50","","","","","","","","","","","","","","","","","","","","","","","","","","","","",""
"3354","","<div style=""width:500px;"">
  <p>How much control did you have over the ball?</p>
  </div>","50","html-slider-response","31","410237","0.0-5.0-2.4","84","1","2025-07-16 08:56:11","1f75c3e559b7213887762d5229550c2b","122.133.157.125","Mozilla/5.0 (Macintosh; Intel Mac OS X 10_15_7) AppleWebKit/537.36 (KHTML, like Gecko) Chrome/137.0.0.0 Safari/537.36","Macintosh","Chrome","137.0.0.0","OS X","10_15_7","https://app.prolific.com/","en-US,en;q=0.9","65cb0f21257c8a98f470bb5d","686e379bc37a29ffa5cdc956","6877691be4e619d7f34814a0","1","1","65cb0f21257c8a98f470bb5d","1","1","2025-07-16T09:03:04.273Z","","","","","","","","","","","ControlQ","","50","","","","","","","","","","","","","","","","","","","","","","","","","","","","",""
"4117","","<div style=""width:500px;"">
  <p>How would you describe your current emotional state?</p>
  </div>","41","html-slider-response","32","414355","0.0-5.0-3.4","84","1","2025-07-16 08:56:11","1f75c3e559b7213887762d5229550c2b","122.133.157.125","Mozilla/5.0 (Macintosh; Intel Mac OS X 10_15_7) AppleWebKit/537.36 (KHTML, like Gecko) Chrome/137.0.0.0 Safari/537.36","Macintosh","Chrome","137.0.0.0","OS X","10_15_7","https://app.prolific.com/","en-US,en;q=0.9","65cb0f21257c8a98f470bb5d","686e379bc37a29ffa5cdc956","6877691be4e619d7f34814a0","1","1","65cb0f21257c8a98f470bb5d","1","1","2025-07-16T09:03:08.391Z","","","","","","","","","","","StressQ","","50","","","","","","","","","","","","","","","","","","","","","","","","","","","","",""
"2507","","<div style=""width:500px;"">
  <p>What best describes how you currently feel?</p>
  </div>","80","html-slider-response","33","416863","0.0-5.0-4.4","84","1","2025-07-16 08:56:11","1f75c3e559b7213887762d5229550c2b","122.133.157.125","Mozilla/5.0 (Macintosh; Intel Mac OS X 10_15_7) AppleWebKit/537.36 (KHTML, like Gecko) Chrome/137.0.0.0 Safari/537.36","Macintosh","Chrome","137.0.0.0","OS X","10_15_7","https://app.prolific.com/","en-US,en;q=0.9","65cb0f21257c8a98f470bb5d","686e379bc37a29ffa5cdc956","6877691be4e619d7f34814a0","1","1","65cb0f21257c8a98f470bb5d","1","1","2025-07-16T09:03:10.899Z","","","","","","","","","","","MotivationQ","","50","","","","","","","","","","","","","","","","","","","","","","","","","","","","",""
"","","","","ctl-task-cpt","34","462766","0.0-5.0-0.5","84","1","2025-07-16 08:56:11","1f75c3e559b7213887762d5229550c2b","122.133.157.125","Mozilla/5.0 (Macintosh; Intel Mac OS X 10_15_7) AppleWebKit/537.36 (KHTML, like Gecko) Chrome/137.0.0.0 Safari/537.36","Macintosh","Chrome","137.0.0.0","OS X","10_15_7","https://app.prolific.com/","en-US,en;q=0.9","65cb0f21257c8a98f470bb5d","686e379bc37a29ffa5cdc956","6877691be4e619d7f34814a0","1","1","65cb0f21257c8a98f470bb5d","1","1","2025-07-16T09:03:56.802Z","","","","","","","","","","","","","","win-only","1","g1:NE,g2:SW","0.5","6","0","419965.9","906.3","5912.6","42888.3","1","4","8","6","2","8","6","22","16","0.16666666666666666","951.7","3000","120","[""down"",""left""]","{""num_key_presses"":14,""num_perfect"":7,""num_errors"":2,""num_randdir"":5,""num_randdir_good_moves"":2,""num_whilered"":0,""num_whileblue"":0,""num_blue"":0,""num_good_moves"":9}","[816.6508928571428,847.4477678571428,0.1,816.6508928571428,847.4477678571428,103.1,816.6508928571428,847.4477678571428,205.2,816.6508928571428,847.4477678571428,309.4,816.6508928571428,847.4477678571428,410.7,822.6508928571428,877.4477678571428,511.1,244.65089285714285,1541.447767857143,615.4,122.65089285714285,1547.447767857143,719.8,122.65089285714285,1529.447767857143,819.9,122.65089285714285,1529.447767857143,924.3,122.65089285714285,1529.447767857143,1031,122.65089285714285,1529.447767857143,1134.5,692.6508928571428,1237.447767857143,1237.8,1522.650892857143,1059.447767857143,1342.1,1532.650892857143,1065.447767857143,1444.8,1532.650892857143,1067.447767857143,1549.2,1770.650892857143,1189.447767857143,1654.3,1884.650892857143,1217.447767857143,1754.6,1884.650892857143,1209.447767857143,1855.4,1884.650892857143,1209.447767857143,1959.1,1884.650892857143,1209.447767857143,2060.1,1884.650892857143,1209.447767857143,2165.2,1884.650892857143,1209.447767857143,2269,1884.650892857143,1209.447767857143,2374.5,1884.650892857143,1209.447767857143,2477.6,1884.650892857143,1209.447767857143,2579.4,1884.650892857143,1209.447767857143,2684.7,1884.650892857143,1209.447767857143,2785.6,1884.650892857143,1209.447767857143,2889.6,1884.650892857143,1209.447767857143,2997.4,1884.650892857143,1209.447767857143,3100,1884.650892857143,1209.447767857143,3204.8,1884.650892857143,1209.447767857143,3309.7,1884.650892857143,1209.447767857143,3410.1,1884.650892857143,1209.447767857143,3511.2,1884.650892857143,1209.447767857143,3616.4,1884.650892857143,1209.447767857143,3720.5,1884.650892857143,1209.447767857143,3824.3,1884.650892857143,1209.447767857143,3925.1,1884.650892857143,1209.447767857143,4029.5,1884.650892857143,1209.447767857143,4131.3,1884.650892857143,1209.447767857143,4236.9,1884.650892857143,1209.447767857143,4337.4,1884.650892857143,1209.447767857143,4439.7,1884.650892857143,1209.447767857143,4539.8,1884.650892857143,1209.447767857143,4645,1884.650892857143,1209.447767857143,4746.4,1884.650892857143,1209.447767857143,4846.8,1884.650892857143,1209.447767857143,4949.3]","[1297.1,1297.1,1000,0,297.1,""smooth"",""left"",""left"",""good_move"",3540.1,2242.9,1917.2,1297.2,325.7,""oops"",""down"",""left"",""good_move"",6110.5,2570.2,2330.2,3540.3,240,""oops"",""down"",""up"",""bad_move"",9109.1,2998.4,2706,6110.7,292.4,""oops"",""down"",""up"",""bad_move"",11381,2271.9,2002,9109.2,269.9,""smooth"",""left"",""left"",""good_move"",14743.4,3362.3,3105.6,11381.1,256.7,""smooth"",""down"",""down"",""good_move"",17444.1,2700.4,2438.9,14743.7,261.5,""oops"",""down"",""down"",""good_move"",20424,2979.7,2722.3,17444.3,257.4,""smooth"",""down"",""down"",""good_move"",24072.6,3648.5,3368.4,20424.1,280.1,""oops"",""down"",""up"",""bad_move"",26342,2269.2,2025.5,24072.8,243.7,""smooth"",""down"",""down"",""good_move"",26523.2,181.1,2381.1,26342.1,-2200,""error"",""-"",""-"",""no_move"",30273.8,3750.5,2761.8,27524.9,-12.8,""error"",""-"",""-"",""no_move"",34290.3,4016.3,2742.8,31275.5,272,""smooth"",""down"",""down"",""good_move"",36890.3,2599.9,2320.4,34290.4,279.5,""smooth"",""down"",""down"",""good_move""]","",""
"3179","","<div style=""width:500px;"">
  <p>What determined the result of this run?</p>
  </div>","67","html-slider-response","35","465945","0.0-5.0-1.5","84","1","2025-07-16 08:56:11","1f75c3e559b7213887762d5229550c2b","122.133.157.125","Mozilla/5.0 (Macintosh; Intel Mac OS X 10_15_7) AppleWebKit/537.36 (KHTML, like Gecko) Chrome/137.0.0.0 Safari/537.36","Macintosh","Chrome","137.0.0.0","OS X","10_15_7","https://app.prolific.com/","en-US,en;q=0.9","65cb0f21257c8a98f470bb5d","686e379bc37a29ffa5cdc956","6877691be4e619d7f34814a0","1","1","65cb0f21257c8a98f470bb5d","1","1","2025-07-16T09:03:59.982Z","","","","","","","","","","","AttribQ","","50","","","","","","","","","","","","","","","","","","","","","","","","","","","","",""
"2569","","<div style=""width:500px;"">
  <p>How much control did you have over the ball?</p>
  </div>","49","html-slider-response","36","468515","0.0-5.0-2.5","84","1","2025-07-16 08:56:11","1f75c3e559b7213887762d5229550c2b","122.133.157.125","Mozilla/5.0 (Macintosh; Intel Mac OS X 10_15_7) AppleWebKit/537.36 (KHTML, like Gecko) Chrome/137.0.0.0 Safari/537.36","Macintosh","Chrome","137.0.0.0","OS X","10_15_7","https://app.prolific.com/","en-US,en;q=0.9","65cb0f21257c8a98f470bb5d","686e379bc37a29ffa5cdc956","6877691be4e619d7f34814a0","1","1","65cb0f21257c8a98f470bb5d","1","1","2025-07-16T09:04:02.551Z","","","","","","","","","","","ControlQ","","50","","","","","","","","","","","","","","","","","","","","","","","","","","","","",""
"3421","","<div style=""width:500px;"">
  <p>How would you describe your current emotional state?</p>
  </div>","39","html-slider-response","37","471937","0.0-5.0-3.5","84","1","2025-07-16 08:56:11","1f75c3e559b7213887762d5229550c2b","122.133.157.125","Mozilla/5.0 (Macintosh; Intel Mac OS X 10_15_7) AppleWebKit/537.36 (KHTML, like Gecko) Chrome/137.0.0.0 Safari/537.36","Macintosh","Chrome","137.0.0.0","OS X","10_15_7","https://app.prolific.com/","en-US,en;q=0.9","65cb0f21257c8a98f470bb5d","686e379bc37a29ffa5cdc956","6877691be4e619d7f34814a0","1","1","65cb0f21257c8a98f470bb5d","1","1","2025-07-16T09:04:05.973Z","","","","","","","","","","","StressQ","","50","","","","","","","","","","","","","","","","","","","","","","","","","","","","",""
"3429","","<div style=""width:500px;"">
  <p>What best describes how you currently feel?</p>
  </div>","81","html-slider-response","38","475366","0.0-5.0-4.5","84","1","2025-07-16 08:56:11","1f75c3e559b7213887762d5229550c2b","122.133.157.125","Mozilla/5.0 (Macintosh; Intel Mac OS X 10_15_7) AppleWebKit/537.36 (KHTML, like Gecko) Chrome/137.0.0.0 Safari/537.36","Macintosh","Chrome","137.0.0.0","OS X","10_15_7","https://app.prolific.com/","en-US,en;q=0.9","65cb0f21257c8a98f470bb5d","686e379bc37a29ffa5cdc956","6877691be4e619d7f34814a0","1","1","65cb0f21257c8a98f470bb5d","1","1","2025-07-16T09:04:09.402Z","","","","","","","","","","","MotivationQ","","50","","","","","","","","","","","","","","","","","","","","","","","","","","","","",""
"","","","","ctl-task-cpt","39","524575","0.0-5.0-0.6","84","1","2025-07-16 08:56:11","1f75c3e559b7213887762d5229550c2b","122.133.157.125","Mozilla/5.0 (Macintosh; Intel Mac OS X 10_15_7) AppleWebKit/537.36 (KHTML, like Gecko) Chrome/137.0.0.0 Safari/537.36","Macintosh","Chrome","137.0.0.0","OS X","10_15_7","https://app.prolific.com/","en-US,en;q=0.9","65cb0f21257c8a98f470bb5d","686e379bc37a29ffa5cdc956","6877691be4e619d7f34814a0","1","1","65cb0f21257c8a98f470bb5d","1","1","2025-07-16T09:04:58.611Z","","","","","","","","","","","","","","win-only","2","g1:SE,g2:NW","0.4","7","0","478469.5","991.4","5993.3","46196.1","1","4","4","6","2","-4","-6","16","22","0.12121212121212122","1124.4","3000","-2565","[""left"",""up""]","{""num_key_presses"":13,""num_perfect"":4,""num_errors"":2,""num_randdir"":7,""num_randdir_good_moves"":2,""num_whilered"":0,""num_whileblue"":2,""num_blue"":3,""num_good_moves"":7}","[816.6508928571428,821.4477678571428,0,816.6508928571428,821.4477678571428,100.5,816.6508928571428,821.4477678571428,210.6,816.6508928571428,821.4477678571428,314.5,816.6508928571428,821.4477678571428,421.6,816.6508928571428,821.4477678571428,521.8,342.6508928571428,555.4477678571428,630.9,334.6508928571428,481.4477678571428,735.6,332.6508928571428,481.4477678571428,839,178.65089285714285,145.44776785714285,942.5,176.65089285714285,135.44776785714285,1050.9,176.65089285714285,135.44776785714285,1155.5,176.65089285714285,135.44776785714285,1258.1,176.65089285714285,135.44776785714285,1368.2,176.65089285714285,135.44776785714285,1469.2,176.65089285714285,135.44776785714285,1569.6,1198.650892857143,277.4477678571428,1672.2,1854.650892857143,673.4477678571428,1776.4,1854.650892857143,673.4477678571428,1881.3,1854.650892857143,673.4477678571428,1982.5,1854.650892857143,673.4477678571428,2084.7,1854.650892857143,673.4477678571428,2184.9,1854.650892857143,673.4477678571428,2285.1,1854.650892857143,673.4477678571428,2386.4,1854.650892857143,673.4477678571428,2491.2,1854.650892857143,673.4477678571428,2599.5,1854.650892857143,673.4477678571428,2699.7,1854.650892857143,673.4477678571428,2807.7,1854.650892857143,673.4477678571428,2909.5,1854.650892857143,673.4477678571428,3011.1,1854.650892857143,673.4477678571428,3116,1854.650892857143,673.4477678571428,3221,1854.650892857143,673.4477678571428,3326.8,1854.650892857143,673.4477678571428,3429.5,1854.650892857143,673.4477678571428,3534.1,1854.650892857143,673.4477678571428,3638,1854.650892857143,673.4477678571428,3740.7,1854.650892857143,673.4477678571428,3846.9,1854.650892857143,673.4477678571428,3949.3,1854.650892857143,673.4477678571428,4054.1,1854.650892857143,673.4477678571428,4155,1854.650892857143,673.4477678571428,4261.1,1854.650892857143,673.4477678571428,4364.7,1854.650892857143,673.4477678571428,4467.1,1854.650892857143,673.4477678571428,4569.1,1854.650892857143,673.4477678571428,4669.4,1854.650892857143,673.4477678571428,4770,1854.650892857143,673.4477678571428,4872.6,1854.650892857143,673.4477678571428,4974.6]","[1274.3,1274.3,1002.9,0,271.4,""while_blue"",""left"",""right"",""bad_move"",7204.8,5930.3,2406.9,4411.6,386.3,""oops"",""left"",""right"",""bad_move"",10494,3289,2850.7,7205,438.3,""oops"",""left"",""left"",""good_move"",13301.3,2807.1,2492.9,10494.2,314.2,""smooth"",""up"",""up"",""good_move"",15596.8,2295.4,2012.5,13301.4,282.9,""smooth"",""left"",""left"",""good_move"",18988.1,3391.3,3152.6,15596.8,238.7,""oops"",""up"",""left"",""good_move"",21662,2673.9,2425.4,18988.2,248.5,""oops"",""left"",""right"",""bad_move"",24354.2,2692,2439.7,21662.2,252.3,""while_blue"",""up"",""up"",""good_move"",27330,2975.6,2646.9,24354.4,328.7,""smooth"",""left"",""left"",""good_move"",29964.8,2634.6,2324.7,27330.2,309.9,""smooth"",""up"",""up"",""good_move"",32480.7,2515.9,2264.4,29964.8,251.5,""oops"",""left"",""right"",""bad_move"",35107.6,2626.8,2379.4,32480.8,247.4,""oops"",""left"",""right"",""bad_move"",38350.5,3242.9,2997.4,35107.6,245.5,""oops"",""left"",""down"",""bad_move""]","",""
"6102","","<div style=""width:500px;"">
  <p>What determined the result of this run?</p>
  </div>","33","html-slider-response","40","530678","0.0-5.0-1.6","84","1","2025-07-16 08:56:11","1f75c3e559b7213887762d5229550c2b","122.133.157.125","Mozilla/5.0 (Macintosh; Intel Mac OS X 10_15_7) AppleWebKit/537.36 (KHTML, like Gecko) Chrome/137.0.0.0 Safari/537.36","Macintosh","Chrome","137.0.0.0","OS X","10_15_7","https://app.prolific.com/","en-US,en;q=0.9","65cb0f21257c8a98f470bb5d","686e379bc37a29ffa5cdc956","6877691be4e619d7f34814a0","1","1","65cb0f21257c8a98f470bb5d","1","1","2025-07-16T09:05:04.714Z","","","","","","","","","","","AttribQ","","50","","","","","","","","","","","","","","","","","","","","","","","","","","","","",""
"2434","","<div style=""width:500px;"">
  <p>How much control did you have over the ball?</p>
  </div>","31","html-slider-response","41","533112","0.0-5.0-2.6","84","1","2025-07-16 08:56:11","1f75c3e559b7213887762d5229550c2b","122.133.157.125","Mozilla/5.0 (Macintosh; Intel Mac OS X 10_15_7) AppleWebKit/537.36 (KHTML, like Gecko) Chrome/137.0.0.0 Safari/537.36","Macintosh","Chrome","137.0.0.0","OS X","10_15_7","https://app.prolific.com/","en-US,en;q=0.9","65cb0f21257c8a98f470bb5d","686e379bc37a29ffa5cdc956","6877691be4e619d7f34814a0","1","1","65cb0f21257c8a98f470bb5d","1","1","2025-07-16T09:05:07.148Z","","","","","","","","","","","ControlQ","","50","","","","","","","","","","","","","","","","","","","","","","","","","","","","",""
"5622","","<div style=""width:500px;"">
  <p>How would you describe your current emotional state?</p>
  </div>","47","html-slider-response","42","538734","0.0-5.0-3.6","84","1","2025-07-16 08:56:11","1f75c3e559b7213887762d5229550c2b","122.133.157.125","Mozilla/5.0 (Macintosh; Intel Mac OS X 10_15_7) AppleWebKit/537.36 (KHTML, like Gecko) Chrome/137.0.0.0 Safari/537.36","Macintosh","Chrome","137.0.0.0","OS X","10_15_7","https://app.prolific.com/","en-US,en;q=0.9","65cb0f21257c8a98f470bb5d","686e379bc37a29ffa5cdc956","6877691be4e619d7f34814a0","1","1","65cb0f21257c8a98f470bb5d","1","1","2025-07-16T09:05:12.771Z","","","","","","","","","","","StressQ","","50","","","","","","","","","","","","","","","","","","","","","","","","","","","","",""
"3130","","<div style=""width:500px;"">
  <p>What best describes how you currently feel?</p>
  </div>","71","html-slider-response","43","541865","0.0-5.0-4.6","84","1","2025-07-16 08:56:11","1f75c3e559b7213887762d5229550c2b","122.133.157.125","Mozilla/5.0 (Macintosh; Intel Mac OS X 10_15_7) AppleWebKit/537.36 (KHTML, like Gecko) Chrome/137.0.0.0 Safari/537.36","Macintosh","Chrome","137.0.0.0","OS X","10_15_7","https://app.prolific.com/","en-US,en;q=0.9","65cb0f21257c8a98f470bb5d","686e379bc37a29ffa5cdc956","6877691be4e619d7f34814a0","1","1","65cb0f21257c8a98f470bb5d","1","1","2025-07-16T09:05:15.901Z","","","","","","","","","","","MotivationQ","","50","","","","","","","","","","","","","","","","","","","","","","","","","","","","",""
"","","","","ctl-task-cpt","44","573403","0.0-5.0-0.7","84","1","2025-07-16 08:56:11","1f75c3e559b7213887762d5229550c2b","122.133.157.125","Mozilla/5.0 (Macintosh; Intel Mac OS X 10_15_7) AppleWebKit/537.36 (KHTML, like Gecko) Chrome/137.0.0.0 Safari/537.36","Macintosh","Chrome","137.0.0.0","OS X","10_15_7","https://app.prolific.com/","en-US,en;q=0.9","65cb0f21257c8a98f470bb5d","686e379bc37a29ffa5cdc956","6877691be4e619d7f34814a0","1","1","65cb0f21257c8a98f470bb5d","1","1","2025-07-16T09:05:47.439Z","","","","","","","","","","","","","","win-only","0","g1:NW,g2:SE","0.3","8","0","544968.2","848.1","5850.4","28529.1","1","4","8","6","2","8","8","24","16","0.18181818181818182","1092","3000","1485","[""down"",""right""]","{""num_key_presses"":6,""num_perfect"":2,""num_errors"":0,""num_randdir"":4,""num_randdir_good_moves"":4,""num_whilered"":0,""num_whileblue"":0,""num_blue"":2,""num_good_moves"":6}","[828.6508928571428,813.4477678571428,0.1,828.6508928571428,813.4477678571428,105,828.6508928571428,813.4477678571428,209.1,828.6508928571428,813.4477678571428,310.5,828.6508928571428,813.4477678571428,412.8,828.6508928571428,813.4477678571428,513.1,808.6508928571428,813.4477678571428,617.7,1366.650892857143,1199.447767857143,722.8,1470.650892857143,1399.447767857143,828.3,1470.650892857143,1399.447767857143,931.3,1470.650892857143,1399.447767857143,1037.1,1470.650892857143,1399.447767857143,1137.4,1470.650892857143,1399.447767857143,1237.5,1470.650892857143,1399.447767857143,1349.8,1516.650892857143,1359.447767857143,1453.6,1820.650892857143,1155.447767857143,1556.4,1826.650892857143,1153.447767857143,1657.2,1826.650892857143,1153.447767857143,1757.6,1826.650892857143,1153.447767857143,1862.4,1826.650892857143,1153.447767857143,1966.3,1826.650892857143,1153.447767857143,2069.7,1826.650892857143,1153.447767857143,2180.5,1826.650892857143,1153.447767857143,2282.3,1826.650892857143,1153.447767857143,2384,1826.650892857143,1153.447767857143,2490.8,1826.650892857143,1153.447767857143,2599,1826.650892857143,1153.447767857143,2701.6,1826.650892857143,1153.447767857143,2807.7,1826.650892857143,1153.447767857143,2908,1826.650892857143,1153.447767857143,3012.9,1826.650892857143,1153.447767857143,3113.1,1826.650892857143,1153.447767857143,3216.7,1826.650892857143,1153.447767857143,3319.7,1826.650892857143,1153.447767857143,3422.1,1826.650892857143,1153.447767857143,3522.7,1826.650892857143,1153.447767857143,3623,1826.650892857143,1153.447767857143,3727.5,1826.650892857143,1153.447767857143,3835.1,1826.650892857143,1153.447767857143,3936.7,1826.650892857143,1153.447767857143,4046.9,1826.650892857143,1153.447767857143,4147.3,1826.650892857143,1153.447767857143,4247.7,1826.650892857143,1153.447767857143,4355.5,1826.650892857143,1153.447767857143,4461.2,1826.650892857143,1153.447767857143,4565.3,1826.650892857143,1153.447767857143,4667,1826.650892857143,1153.447767857143,4773.7,1826.650892857143,1153.447767857143,4878.1,1826.650892857143,1153.447767857143,4982.8]","[1312.8,1312.8,1000,0,312.8,""oops"",""right"",""down"",""good_move"",7736.2,6423.2,2480.1,4944.8,311.3,""smooth"",""right"",""right"",""good_move"",10286.8,2550.4,2282.2,7736.4,268.2,""oops"",""down"",""down"",""good_move"",12765.9,2479,2161.7,10286.9,317.3,""oops"",""right"",""down"",""good_move"",15898,3132,2863.6,12766,268.4,""smooth"",""right"",""right"",""good_move"",22583.5,6685.3,3401,18880.3,302.2,""oops"",""right"",""right"",""good_move""]","",""
"4946","","<div style=""width:500px;"">
  <p>What determined the result of this run?</p>
  </div>","44","html-slider-response","45","578349","0.0-5.0-1.7","84","1","2025-07-16 08:56:11","1f75c3e559b7213887762d5229550c2b","122.133.157.125","Mozilla/5.0 (Macintosh; Intel Mac OS X 10_15_7) AppleWebKit/537.36 (KHTML, like Gecko) Chrome/137.0.0.0 Safari/537.36","Macintosh","Chrome","137.0.0.0","OS X","10_15_7","https://app.prolific.com/","en-US,en;q=0.9","65cb0f21257c8a98f470bb5d","686e379bc37a29ffa5cdc956","6877691be4e619d7f34814a0","1","1","65cb0f21257c8a98f470bb5d","1","1","2025-07-16T09:05:52.385Z","","","","","","","","","","","AttribQ","","50","","","","","","","","","","","","","","","","","","","","","","","","","","","","",""
"4685","","<div style=""width:500px;"">
  <p>How much control did you have over the ball?</p>
  </div>","45","html-slider-response","46","583035","0.0-5.0-2.7","84","1","2025-07-16 08:56:11","1f75c3e559b7213887762d5229550c2b","122.133.157.125","Mozilla/5.0 (Macintosh; Intel Mac OS X 10_15_7) AppleWebKit/537.36 (KHTML, like Gecko) Chrome/137.0.0.0 Safari/537.36","Macintosh","Chrome","137.0.0.0","OS X","10_15_7","https://app.prolific.com/","en-US,en;q=0.9","65cb0f21257c8a98f470bb5d","686e379bc37a29ffa5cdc956","6877691be4e619d7f34814a0","1","1","65cb0f21257c8a98f470bb5d","1","1","2025-07-16T09:05:57.071Z","","","","","","","","","","","ControlQ","","50","","","","","","","","","","","","","","","","","","","","","","","","","","","","",""
"2821","","<div style=""width:500px;"">
  <p>How would you describe your current emotional state?</p>
  </div>","34","html-slider-response","47","585857","0.0-5.0-3.7","84","1","2025-07-16 08:56:11","1f75c3e559b7213887762d5229550c2b","122.133.157.125","Mozilla/5.0 (Macintosh; Intel Mac OS X 10_15_7) AppleWebKit/537.36 (KHTML, like Gecko) Chrome/137.0.0.0 Safari/537.36","Macintosh","Chrome","137.0.0.0","OS X","10_15_7","https://app.prolific.com/","en-US,en;q=0.9","65cb0f21257c8a98f470bb5d","686e379bc37a29ffa5cdc956","6877691be4e619d7f34814a0","1","1","65cb0f21257c8a98f470bb5d","1","1","2025-07-16T09:05:59.893Z","","","","","","","","","","","StressQ","","50","","","","","","","","","","","","","","","","","","","","","","","","","","","","",""
"2330","","<div style=""width:500px;"">
  <p>What best describes how you currently feel?</p>
  </div>","78","html-slider-response","48","588187","0.0-5.0-4.7","84","1","2025-07-16 08:56:11","1f75c3e559b7213887762d5229550c2b","122.133.157.125","Mozilla/5.0 (Macintosh; Intel Mac OS X 10_15_7) AppleWebKit/537.36 (KHTML, like Gecko) Chrome/137.0.0.0 Safari/537.36","Macintosh","Chrome","137.0.0.0","OS X","10_15_7","https://app.prolific.com/","en-US,en;q=0.9","65cb0f21257c8a98f470bb5d","686e379bc37a29ffa5cdc956","6877691be4e619d7f34814a0","1","1","65cb0f21257c8a98f470bb5d","1","1","2025-07-16T09:06:02.223Z","","","","","","","","","","","MotivationQ","","50","","","","","","","","","","","","","","","","","","","","","","","","","","","","",""
"","","","","ctl-task-cpt","49","633587","0.0-5.0-0.8","84","1","2025-07-16 08:56:11","1f75c3e559b7213887762d5229550c2b","122.133.157.125","Mozilla/5.0 (Macintosh; Intel Mac OS X 10_15_7) AppleWebKit/537.36 (KHTML, like Gecko) Chrome/137.0.0.0 Safari/537.36","Macintosh","Chrome","137.0.0.0","OS X","10_15_7","https://app.prolific.com/","en-US,en;q=0.9","65cb0f21257c8a98f470bb5d","686e379bc37a29ffa5cdc956","6877691be4e619d7f34814a0","1","1","65cb0f21257c8a98f470bb5d","1","1","2025-07-16T09:06:47.623Z","","","","","","","","","","","","","","win-only","1","g1:NE,g2:SW","0.2","9","0","591291","948.7","5951","42390.4","1","4","8","6","2","-8","-8","16","24","0.12121212121212122","991.5","3000","-2375","[""down"",""left""]","{""num_key_presses"":13,""num_perfect"":2,""num_errors"":0,""num_randdir"":11,""num_randdir_good_moves"":5,""num_whilered"":0,""num_whileblue"":0,""num_blue"":0,""num_good_moves"":7}","[842.6508928571428,825.4477678571428,0.1,842.6508928571428,825.4477678571428,102.1,842.6508928571428,825.4477678571428,206.8,842.6508928571428,825.4477678571428,306.9,842.6508928571428,825.4477678571428,410.2,656.6508928571428,977.4477678571428,514.9,132.65089285714285,1553.447767857143,619.8,118.65089285714285,1553.447767857143,725.6,138.65089285714285,1513.447767857143,825.6,138.65089285714285,1513.447767857143,930.3,138.65089285714285,1513.447767857143,1033.1,138.65089285714285,1513.447767857143,1134.6,210.65089285714285,1483.447767857143,1235.5,1790.650892857143,977.4477678571428,1337.3,1974.650892857143,963.4477678571428,1439.5,1974.650892857143,963.4477678571428,1539.9,1974.650892857143,963.4477678571428,1640.1,1974.650892857143,963.4477678571428,1742.1,1974.650892857143,963.4477678571428,1842.2,1974.650892857143,963.4477678571428,1949,1974.650892857143,963.4477678571428,2052.8,1974.650892857143,963.4477678571428,2158.3,1974.650892857143,963.4477678571428,2264.7,1974.650892857143,963.4477678571428,2365.8,1974.650892857143,963.4477678571428,2465.8,1974.650892857143,963.4477678571428,2565.8,1974.650892857143,963.4477678571428,2669.8,1974.650892857143,963.4477678571428,2771.1,1974.650892857143,963.4477678571428,2872.6,1974.650892857143,963.4477678571428,2978.1,1974.650892857143,963.4477678571428,3082.4,1974.650892857143,963.4477678571428,3187.1,1974.650892857143,963.4477678571428,3290.1,1974.650892857143,963.4477678571428,3391.7,1974.650892857143,963.4477678571428,3495.6,1974.650892857143,963.4477678571428,3597.4,1974.650892857143,963.4477678571428,3702.6,1974.650892857143,963.4477678571428,3807.4,1974.650892857143,963.4477678571428,3910.1,1974.650892857143,963.4477678571428,4017.7,1974.650892857143,963.4477678571428,4120.4,1974.650892857143,963.4477678571428,4220.9,1974.650892857143,963.4477678571428,4322.2,1974.650892857143,963.4477678571428,4427.7,1974.650892857143,963.4477678571428,4530,1974.650892857143,963.4477678571428,4635.1,1974.650892857143,963.4477678571428,4741.9,1974.650892857143,963.4477678571428,4841.9,1974.650892857143,963.4477678571428,4942.6]","[1316.9,1316.9,1000,0,316.9,""oops"",""left"",""up"",""bad_move"",4016.4,2699.1,2374.4,1317.3,324.7,""oops"",""left"",""down"",""good_move"",6195.1,2178.5,1898.7,4016.6,279.8,""oops"",""left"",""right"",""bad_move"",9142.9,2947.7,2692.6,6195.2,255.1,""oops"",""left"",""left"",""good_move"",12085.4,2942.4,2661.8,9143,280.6,""oops"",""down"",""up"",""bad_move"",15056.4,2970.9,2715,12085.5,255.9,""smooth"",""left"",""left"",""good_move"",17808.2,2751.7,2511.6,15056.5,240.1,""oops"",""down"",""left"",""good_move"",20940.9,3132.6,2923.2,17808.4,209.3,""oops"",""down"",""left"",""good_move"",24022.8,3081.8,2855.7,20941,226.1,""smooth"",""down"",""down"",""good_move"",26464.6,2441.7,2185.1,24023,256.5,""oops"",""down"",""down"",""good_move"",28626,2161.2,1903.6,26464.8,257.6,""oops"",""down"",""right"",""bad_move"",31625.1,2998.9,2753.6,28626.2,245.3,""oops"",""down"",""up"",""bad_move"",33931.7,2306.5,2013.5,31625.2,293,""oops"",""down"",""right"",""bad_move""]","",""
"6054","","<div style=""width:500px;"">
  <p>What determined the result of this run?</p>
  </div>","5","html-slider-response","50","639641","0.0-5.0-1.8","84","1","2025-07-16 08:56:11","1f75c3e559b7213887762d5229550c2b","122.133.157.125","Mozilla/5.0 (Macintosh; Intel Mac OS X 10_15_7) AppleWebKit/537.36 (KHTML, like Gecko) Chrome/137.0.0.0 Safari/537.36","Macintosh","Chrome","137.0.0.0","OS X","10_15_7","https://app.prolific.com/","en-US,en;q=0.9","65cb0f21257c8a98f470bb5d","686e379bc37a29ffa5cdc956","6877691be4e619d7f34814a0","1","1","65cb0f21257c8a98f470bb5d","1","1","2025-07-16T09:06:53.677Z","","","","","","","","","","","AttribQ","","50","","","","","","","","","","","","","","","","","","","","","","","","","","","","",""
"2937","","<div style=""width:500px;"">
  <p>How much control did you have over the ball?</p>
  </div>","8","html-slider-response","51","642578","0.0-5.0-2.8","84","1","2025-07-16 08:56:11","1f75c3e559b7213887762d5229550c2b","122.133.157.125","Mozilla/5.0 (Macintosh; Intel Mac OS X 10_15_7) AppleWebKit/537.36 (KHTML, like Gecko) Chrome/137.0.0.0 Safari/537.36","Macintosh","Chrome","137.0.0.0","OS X","10_15_7","https://app.prolific.com/","en-US,en;q=0.9","65cb0f21257c8a98f470bb5d","686e379bc37a29ffa5cdc956","6877691be4e619d7f34814a0","1","1","65cb0f21257c8a98f470bb5d","1","1","2025-07-16T09:06:56.614Z","","","","","","","","","","","ControlQ","","50","","","","","","","","","","","","","","","","","","","","","","","","","","","","",""
"3301","","<div style=""width:500px;"">
  <p>How would you describe your current emotional state?</p>
  </div>","38","html-slider-response","52","645880","0.0-5.0-3.8","84","1","2025-07-16 08:56:11","1f75c3e559b7213887762d5229550c2b","122.133.157.125","Mozilla/5.0 (Macintosh; Intel Mac OS X 10_15_7) AppleWebKit/537.36 (KHTML, like Gecko) Chrome/137.0.0.0 Safari/537.36","Macintosh","Chrome","137.0.0.0","OS X","10_15_7","https://app.prolific.com/","en-US,en;q=0.9","65cb0f21257c8a98f470bb5d","686e379bc37a29ffa5cdc956","6877691be4e619d7f34814a0","1","1","65cb0f21257c8a98f470bb5d","1","1","2025-07-16T09:06:59.916Z","","","","","","","","","","","StressQ","","50","","","","","","","","","","","","","","","","","","","","","","","","","","","","",""
"3928","","<div style=""width:500px;"">
  <p>What best describes how you currently feel?</p>
  </div>","75","html-slider-response","53","649808","0.0-5.0-4.8","84","1","2025-07-16 08:56:11","1f75c3e559b7213887762d5229550c2b","122.133.157.125","Mozilla/5.0 (Macintosh; Intel Mac OS X 10_15_7) AppleWebKit/537.36 (KHTML, like Gecko) Chrome/137.0.0.0 Safari/537.36","Macintosh","Chrome","137.0.0.0","OS X","10_15_7","https://app.prolific.com/","en-US,en;q=0.9","65cb0f21257c8a98f470bb5d","686e379bc37a29ffa5cdc956","6877691be4e619d7f34814a0","1","1","65cb0f21257c8a98f470bb5d","1","1","2025-07-16T09:07:03.844Z","","","","","","","","","","","MotivationQ","","50","","","","","","","","","","","","","","","","","","","","","","","","","","","","",""
"","","","","ctl-task-cpt","54","706060","0.0-5.0-0.9","84","1","2025-07-16 08:56:11","1f75c3e559b7213887762d5229550c2b","122.133.157.125","Mozilla/5.0 (Macintosh; Intel Mac OS X 10_15_7) AppleWebKit/537.36 (KHTML, like Gecko) Chrome/137.0.0.0 Safari/537.36","Macintosh","Chrome","137.0.0.0","OS X","10_15_7","https://app.prolific.com/","en-US,en;q=0.9","65cb0f21257c8a98f470bb5d","686e379bc37a29ffa5cdc956","6877691be4e619d7f34814a0","1","1","65cb0f21257c8a98f470bb5d","1","1","2025-07-16T09:08:00.096Z","","","","","","","","","","","","","","win-only","3","g1:SW,g2:NE","0.4","10","0","652912.2","786","5789.2","53241.5","1","4","4","6","2","-4","-6","10","16","0.07575757575757576","1194.4","3000","-1980","[""up"",""right""]","{""num_key_presses"":16,""num_perfect"":5,""num_errors"":2,""num_randdir"":9,""num_randdir_good_moves"":3,""num_whilered"":0,""num_whileblue"":2,""num_blue"":2,""num_good_moves"":10}","[836.6508928571428,829.4477678571428,0.1,836.6508928571428,829.4477678571428,109,836.6508928571428,829.4477678571428,217.3,836.6508928571428,829.4477678571428,324.2,836.6508928571428,829.4477678571428,427.8,840.6508928571428,823.4477678571428,529.5,890.6508928571428,771.4477678571428,629.7,1220.650892857143,385.4477678571428,734.9,1310.650892857143,305.4477678571428,848.3,1390.650892857143,253.44776785714285,950.4,1584.650892857143,161.44776785714285,1051.9,1584.650892857143,161.44776785714285,1154.7,1584.650892857143,161.44776785714285,1259.9,1584.650892857143,161.44776785714285,1364.4,1584.650892857143,161.44776785714285,1468.6,2086.650892857143,99.44776785714285,1575.9,2116.650892857143,147.44776785714285,1682.9,2116.650892857143,147.44776785714285,1787.2,2116.650892857143,147.44776785714285,1889.7,2116.650892857143,147.44776785714285,1991.8,2116.650892857143,147.44776785714285,2098.9,2116.650892857143,147.44776785714285,2203.7,2116.650892857143,147.44776785714285,2305,2116.650892857143,147.44776785714285,2408.6,2116.650892857143,147.44776785714285,2509.6,2116.650892857143,147.44776785714285,2609.9,2116.650892857143,147.44776785714285,2710,2116.650892857143,147.44776785714285,2810.8,2116.650892857143,147.44776785714285,2914.5,2116.650892857143,147.44776785714285,3022,2116.650892857143,147.44776785714285,3124,2116.650892857143,147.44776785714285,3224.6,2116.650892857143,147.44776785714285,3325.2,2116.650892857143,147.44776785714285,3428.8,2116.650892857143,147.44776785714285,3531.3,2116.650892857143,147.44776785714285,3637.5,2116.650892857143,147.44776785714285,3739.8,2116.650892857143,147.44776785714285,3839.9,2116.650892857143,147.44776785714285,3944.6,2116.650892857143,147.44776785714285,4049.2,2116.650892857143,147.44776785714285,4150.2,2116.650892857143,147.44776785714285,4259.7,2116.650892857143,147.44776785714285,4364.5,2116.650892857143,147.44776785714285,4464.8,2116.650892857143,147.44776785714285,4572.6,2116.650892857143,147.44776785714285,4674.2,2116.650892857143,147.44776785714285,4774.2,2116.650892857143,147.44776785714285,4875.1,2116.650892857143,147.44776785714285,4980.9]","[1330.6,1330.6,1000,0,330.6,""smooth"",""right"",""right"",""good_move"",4200.4,2869.4,2601.6,1331,267.8,""oops"",""up"",""right"",""good_move"",6912.6,2712,2434.9,4200.6,277.1,""smooth"",""right"",""right"",""good_move"",9239.8,2327.1,2018.7,6912.7,308.4,""while_blue"",""up"",""up"",""good_move"",12332.5,3092.6,2828.6,9239.9,264,""oops"",""up"",""left"",""bad_move"",15107.7,2774.9,2536.9,12332.8,238,""oops"",""up"",""down"",""bad_move"",18085.3,2977.5,2709.4,15107.8,268.1,""smooth"",""up"",""up"",""good_move"",20856.9,2771.5,2513.8,18085.4,257.7,""oops"",""right"",""right"",""good_move"",23615.2,2758.1,2416.6,20857.2,341.5,""oops"",""up"",""down"",""bad_move"",26783.8,3168.5,2927.6,23615.3,240.9,""oops"",""up"",""up"",""good_move"",30013.9,3230,2981.8,26783.9,248.2,""smooth"",""up"",""up"",""good_move"",33283.5,3269.5,3015.1,30014,254.4,""oops"",""up"",""down"",""bad_move"",35950.7,2667.1,2369.1,33283.6,298,""oops"",""up"",""down"",""bad_move"",38800.3,2849.4,2635.7,35950.9,213.7,""while_blue"",""up"",""up"",""good_move"",41732.8,2932.4,2649.5,38800.4,282.9,""oops"",""up"",""down"",""bad_move"",44825.5,3092.6,2777.1,41732.9,315.5,""smooth"",""up"",""up"",""good_move""]","",""
"3581","","<div style=""width:500px;"">
  <p>What determined the result of this run?</p>
  </div>","36","html-slider-response","55","709642","0.0-5.0-1.9","84","1","2025-07-16 08:56:11","1f75c3e559b7213887762d5229550c2b","122.133.157.125","Mozilla/5.0 (Macintosh; Intel Mac OS X 10_15_7) AppleWebKit/537.36 (KHTML, like Gecko) Chrome/137.0.0.0 Safari/537.36","Macintosh","Chrome","137.0.0.0","OS X","10_15_7","https://app.prolific.com/","en-US,en;q=0.9","65cb0f21257c8a98f470bb5d","686e379bc37a29ffa5cdc956","6877691be4e619d7f34814a0","1","1","65cb0f21257c8a98f470bb5d","1","1","2025-07-16T09:08:03.678Z","","","","","","","","","","","AttribQ","","50","","","","","","","","","","","","","","","","","","","","","","","","","","","","",""
"2345","","<div style=""width:500px;"">
  <p>How much control did you have over the ball?</p>
  </div>","6","html-slider-response","56","711987","0.0-5.0-2.9","84","1","2025-07-16 08:56:11","1f75c3e559b7213887762d5229550c2b","122.133.157.125","Mozilla/5.0 (Macintosh; Intel Mac OS X 10_15_7) AppleWebKit/537.36 (KHTML, like Gecko) Chrome/137.0.0.0 Safari/537.36","Macintosh","Chrome","137.0.0.0","OS X","10_15_7","https://app.prolific.com/","en-US,en;q=0.9","65cb0f21257c8a98f470bb5d","686e379bc37a29ffa5cdc956","6877691be4e619d7f34814a0","1","1","65cb0f21257c8a98f470bb5d","1","1","2025-07-16T09:08:06.023Z","","","","","","","","","","","ControlQ","","50","","","","","","","","","","","","","","","","","","","","","","","","","","","","",""
"3639","","<div style=""width:500px;"">
  <p>How would you describe your current emotional state?</p>
  </div>","54","html-slider-response","57","715627","0.0-5.0-3.9","84","1","2025-07-16 08:56:11","1f75c3e559b7213887762d5229550c2b","122.133.157.125","Mozilla/5.0 (Macintosh; Intel Mac OS X 10_15_7) AppleWebKit/537.36 (KHTML, like Gecko) Chrome/137.0.0.0 Safari/537.36","Macintosh","Chrome","137.0.0.0","OS X","10_15_7","https://app.prolific.com/","en-US,en;q=0.9","65cb0f21257c8a98f470bb5d","686e379bc37a29ffa5cdc956","6877691be4e619d7f34814a0","1","1","65cb0f21257c8a98f470bb5d","1","1","2025-07-16T09:08:09.663Z","","","","","","","","","","","StressQ","","50","","","","","","","","","","","","","","","","","","","","","","","","","","","","",""
"2070","","<div style=""width:500px;"">
  <p>What best describes how you currently feel?</p>
  </div>","80","html-slider-response","58","717698","0.0-5.0-4.9","84","1","2025-07-16 08:56:11","1f75c3e559b7213887762d5229550c2b","122.133.157.125","Mozilla/5.0 (Macintosh; Intel Mac OS X 10_15_7) AppleWebKit/537.36 (KHTML, like Gecko) Chrome/137.0.0.0 Safari/537.36","Macintosh","Chrome","137.0.0.0","OS X","10_15_7","https://app.prolific.com/","en-US,en;q=0.9","65cb0f21257c8a98f470bb5d","686e379bc37a29ffa5cdc956","6877691be4e619d7f34814a0","1","1","65cb0f21257c8a98f470bb5d","1","1","2025-07-16T09:08:11.734Z","","","","","","","","","","","MotivationQ","","50","","","","","","","","","","","","","","","","","","","","","","","","","","","","",""
"","","","","ctl-task-cpt","59","769201","0.0-5.0-0.10","84","1","2025-07-16 08:56:11","1f75c3e559b7213887762d5229550c2b","122.133.157.125","Mozilla/5.0 (Macintosh; Intel Mac OS X 10_15_7) AppleWebKit/537.36 (KHTML, like Gecko) Chrome/137.0.0.0 Safari/537.36","Macintosh","Chrome","137.0.0.0","OS X","10_15_7","https://app.prolific.com/","en-US,en;q=0.9","65cb0f21257c8a98f470bb5d","686e379bc37a29ffa5cdc956","6877691be4e619d7f34814a0","1","1","65cb0f21257c8a98f470bb5d","1","1","2025-07-16T09:09:03.237Z","","","","","","","","","","","","","","win-only","0","g1:NW,g2:SE","0.5","11","0","720802.3","929.4","5931.3","48483.4","1","4","8","6","2","8","8","18","10","0.13636363636363635","986.3","3000","1200","[""down"",""right""]","{""num_key_presses"":8,""num_perfect"":4,""num_errors"":0,""num_randdir"":4,""num_randdir_good_moves"":3,""num_whilered"":0,""num_whileblue"":0,""num_blue"":5,""num_good_moves"":7}","[842.6508928571428,821.4477678571428,0.2,842.6508928571428,821.4477678571428,100.4,842.6508928571428,821.4477678571428,203.4,842.6508928571428,821.4477678571428,304.3,842.6508928571428,821.4477678571428,406.7,1090.650892857143,1015.4477678571428,511.9,1358.650892857143,1371.447767857143,616.2,1438.650892857143,1429.447767857143,717.6,1530.650892857143,1507.447767857143,820,1530.650892857143,1507.447767857143,926.8,1530.650892857143,1507.447767857143,1031.2,1530.650892857143,1507.447767857143,1136,1530.650892857143,1507.447767857143,1236.1,1764.650892857143,1339.447767857143,1339.3,1824.650892857143,1319.447767857143,1444.9,1824.650892857143,1319.447767857143,1545.6,1824.650892857143,1319.447767857143,1646.9,1824.650892857143,1319.447767857143,1751.2,1824.650892857143,1319.447767857143,1856.9,1824.650892857143,1319.447767857143,1963.7,1824.650892857143,1319.447767857143,2065.5,1824.650892857143,1319.447767857143,2167.7,1824.650892857143,1319.447767857143,2270.8,1824.650892857143,1319.447767857143,2371.3,1824.650892857143,1319.447767857143,2471.8,1824.650892857143,1319.447767857143,2580,1824.650892857143,1319.447767857143,2686.4,1824.650892857143,1319.447767857143,2797.1,1824.650892857143,1319.447767857143,2901.7,1824.650892857143,1319.447767857143,3006.8,1824.650892857143,1319.447767857143,3111.7,1824.650892857143,1319.447767857143,3213.1,1824.650892857143,1319.447767857143,3320.8,1824.650892857143,1319.447767857143,3428,1824.650892857143,1319.447767857143,3531,1824.650892857143,1319.447767857143,3631.2,1824.650892857143,1319.447767857143,3731.6,1824.650892857143,1319.447767857143,3837.6,1824.650892857143,1319.447767857143,3941.3,1824.650892857143,1319.447767857143,4045,1824.650892857143,1319.447767857143,4147.9,1824.650892857143,1319.447767857143,4251.4,1824.650892857143,1319.447767857143,4356.3,1824.650892857143,1319.447767857143,4464.9,1824.650892857143,1319.447767857143,4567.1,1824.650892857143,1319.447767857143,4669.2,1824.650892857143,1319.447767857143,4771.7,1824.650892857143,1319.447767857143,4873.2,1824.650892857143,1319.447767857143,4976.3]","[1300.7,1300.7,1000,0,300.7,""oops"",""right"",""left"",""bad_move"",4113.4,2812.5,2549.2,1300.9,263.3,""smooth"",""down"",""down"",""good_move"",7347.9,3234.3,2985.6,4113.6,248.7,""smooth"",""right"",""right"",""good_move"",10365.1,3017.1,2771.6,7348,245.5,""smooth"",""down"",""down"",""good_move"",16369.7,6004.5,2601.4,13445.3,323,""smooth"",""right"",""right"",""good_move"",32120.7,15751,2651,29017.6,452.2,""oops"",""down"",""down"",""good_move"",35021,2900,2587.7,32121,312.3,""oops"",""right"",""right"",""good_move"",42392.4,7371.3,2794.9,39236.8,360.7,""oops"",""right"",""right"",""good_move""]","",""
"2944","","<div style=""width:500px;"">
  <p>What determined the result of this run?</p>
  </div>","86","html-slider-response","60","772146","0.0-5.0-1.10","84","1","2025-07-16 08:56:11","1f75c3e559b7213887762d5229550c2b","122.133.157.125","Mozilla/5.0 (Macintosh; Intel Mac OS X 10_15_7) AppleWebKit/537.36 (KHTML, like Gecko) Chrome/137.0.0.0 Safari/537.36","Macintosh","Chrome","137.0.0.0","OS X","10_15_7","https://app.prolific.com/","en-US,en;q=0.9","65cb0f21257c8a98f470bb5d","686e379bc37a29ffa5cdc956","6877691be4e619d7f34814a0","1","1","65cb0f21257c8a98f470bb5d","1","1","2025-07-16T09:09:06.182Z","","","","","","","","","","","AttribQ","","50","","","","","","","","","","","","","","","","","","","","","","","","","","","","",""
"5008","","<div style=""width:500px;"">
  <p>How much control did you have over the ball?</p>
  </div>","55","html-slider-response","61","777155","0.0-5.0-2.10","84","1","2025-07-16 08:56:11","1f75c3e559b7213887762d5229550c2b","122.133.157.125","Mozilla/5.0 (Macintosh; Intel Mac OS X 10_15_7) AppleWebKit/537.36 (KHTML, like Gecko) Chrome/137.0.0.0 Safari/537.36","Macintosh","Chrome","137.0.0.0","OS X","10_15_7","https://app.prolific.com/","en-US,en;q=0.9","65cb0f21257c8a98f470bb5d","686e379bc37a29ffa5cdc956","6877691be4e619d7f34814a0","1","1","65cb0f21257c8a98f470bb5d","1","1","2025-07-16T09:09:11.191Z","","","","","","","","","","","ControlQ","","50","","","","","","","","","","","","","","","","","","","","","","","","","","","","",""
"5978","","<div style=""width:500px;"">
  <p>How would you describe your current emotional state?</p>
  </div>","52","html-slider-response","62","783133","0.0-5.0-3.10","84","1","2025-07-16 08:56:11","1f75c3e559b7213887762d5229550c2b","122.133.157.125","Mozilla/5.0 (Macintosh; Intel Mac OS X 10_15_7) AppleWebKit/537.36 (KHTML, like Gecko) Chrome/137.0.0.0 Safari/537.36","Macintosh","Chrome","137.0.0.0","OS X","10_15_7","https://app.prolific.com/","en-US,en;q=0.9","65cb0f21257c8a98f470bb5d","686e379bc37a29ffa5cdc956","6877691be4e619d7f34814a0","1","1","65cb0f21257c8a98f470bb5d","1","1","2025-07-16T09:09:17.169Z","","","","","","","","","","","StressQ","","50","","","","","","","","","","","","","","","","","","","","","","","","","","","","",""
"2354","","<div style=""width:500px;"">
  <p>What best describes how you currently feel?</p>
  </div>","87","html-slider-response","63","785488","0.0-5.0-4.10","84","1","2025-07-16 08:56:11","1f75c3e559b7213887762d5229550c2b","122.133.157.125","Mozilla/5.0 (Macintosh; Intel Mac OS X 10_15_7) AppleWebKit/537.36 (KHTML, like Gecko) Chrome/137.0.0.0 Safari/537.36","Macintosh","Chrome","137.0.0.0","OS X","10_15_7","https://app.prolific.com/","en-US,en;q=0.9","65cb0f21257c8a98f470bb5d","686e379bc37a29ffa5cdc956","6877691be4e619d7f34814a0","1","1","65cb0f21257c8a98f470bb5d","1","1","2025-07-16T09:09:19.524Z","","","","","","","","","","","MotivationQ","","50","","","","","","","","","","","","","","","","","","","","","","","","","","","","",""
"","","","","ctl-task-cpt","64","838839","0.0-5.0-0.11","84","1","2025-07-16 08:56:11","1f75c3e559b7213887762d5229550c2b","122.133.157.125","Mozilla/5.0 (Macintosh; Intel Mac OS X 10_15_7) AppleWebKit/537.36 (KHTML, like Gecko) Chrome/137.0.0.0 Safari/537.36","Macintosh","Chrome","137.0.0.0","OS X","10_15_7","https://app.prolific.com/","en-US,en;q=0.9","65cb0f21257c8a98f470bb5d","686e379bc37a29ffa5cdc956","6877691be4e619d7f34814a0","1","1","65cb0f21257c8a98f470bb5d","1","1","2025-07-16T09:10:12.875Z","","","","","","","","","","","","","","win-only","3","g1:SW,g2:NE","0.6","12","0","788592.9","958.7","5960.4","50335.7","1","4","4","6","2","4","4","22","18","0.16666666666666666","939.8","3000","655","[""up"",""right""]","{""num_key_presses"":10,""num_perfect"":6,""num_errors"":0,""num_randdir"":4,""num_randdir_good_moves"":2,""num_whilered"":0,""num_whileblue"":0,""num_blue"":5,""num_good_moves"":8}","[840.6508928571428,835.4477678571428,0.1,840.6508928571428,835.4477678571428,104.2,840.6508928571428,835.4477678571428,211.6,840.6508928571428,835.4477678571428,317.4,840.6508928571428,835.4477678571428,423.5,1080.650892857143,571.4477678571428,527,1436.650892857143,217.44776785714285,632.2,1544.650892857143,109.44776785714285,732.3,1564.650892857143,83.44776785714285,841.3,1564.650892857143,83.44776785714285,945.7,1564.650892857143,83.44776785714285,1047.4,1564.650892857143,83.44776785714285,1147.4,1698.650892857143,141.44776785714285,1247.4,2026.650892857143,373.4477678571428,1349.7,2026.650892857143,373.4477678571428,1451.4,2026.650892857143,373.4477678571428,1557.6,2026.650892857143,373.4477678571428,1663,2026.650892857143,373.4477678571428,1766.9,2026.650892857143,373.4477678571428,1872.2,2026.650892857143,373.4477678571428,1981.5,2026.650892857143,373.4477678571428,2090.4,2026.650892857143,373.4477678571428,2194.4,2026.650892857143,373.4477678571428,2296.9,2026.650892857143,373.4477678571428,2401.9,2026.650892857143,373.4477678571428,2503.7,2026.650892857143,373.4477678571428,2608.2,2026.650892857143,373.4477678571428,2712.6,2026.650892857143,373.4477678571428,2813.5,2026.650892857143,373.4477678571428,2917.5,2026.650892857143,373.4477678571428,3022.5,2026.650892857143,373.4477678571428,3126.7,2026.650892857143,373.4477678571428,3229.1,2026.650892857143,373.4477678571428,3329.4,2026.650892857143,373.4477678571428,3430.3,2026.650892857143,373.4477678571428,3535.5,2026.650892857143,373.4477678571428,3636.8,2026.650892857143,373.4477678571428,3737.4,2026.650892857143,373.4477678571428,3847.6,2026.650892857143,373.4477678571428,3954.2,2026.650892857143,373.4477678571428,4055.5,2026.650892857143,373.4477678571428,4158.7,2026.650892857143,373.4477678571428,4262,2026.650892857143,373.4477678571428,4367,2026.650892857143,373.4477678571428,4467,2026.650892857143,373.4477678571428,4569.5,2026.650892857143,373.4477678571428,4676.3,2026.650892857143,373.4477678571428,4783.6,2026.650892857143,373.4477678571428,4887.2,2026.650892857143,373.4477678571428,4992.3]","[1323.7,1323.7,1000,0,323.7,""smooth"",""right"",""right"",""good_move"",4193.8,2869.9,2595.4,1323.9,274.5,""smooth"",""up"",""up"",""good_move"",21553.7,17359.7,3015.9,18230.1,307.7,""oops"",""right"",""left"",""bad_move"",24464.3,2910.2,2610.8,21554.1,299.4,""oops"",""up"",""up"",""good_move"",27556,3091.5,2827,24464.5,264.5,""smooth"",""right"",""right"",""good_move"",29874.2,2317.9,1974.2,27556.3,343.7,""smooth"",""right"",""right"",""good_move"",36198.4,6324.2,2390.9,33316,491.5,""oops"",""up"",""down"",""bad_move"",38914.5,2715.9,2401,36198.6,314.9,""oops"",""right"",""up"",""good_move"",41462.3,2547.8,2245.9,38914.5,301.9,""smooth"",""right"",""right"",""good_move"",44220.3,2758,2456,41462.3,302,""smooth"",""up"",""up"",""good_move""]","",""
"1943","","<div style=""width:500px;"">
  <p>What determined the result of this run?</p>
  </div>","66","html-slider-response","65","840783","0.0-5.0-1.11","84","1","2025-07-16 08:56:11","1f75c3e559b7213887762d5229550c2b","122.133.157.125","Mozilla/5.0 (Macintosh; Intel Mac OS X 10_15_7) AppleWebKit/537.36 (KHTML, like Gecko) Chrome/137.0.0.0 Safari/537.36","Macintosh","Chrome","137.0.0.0","OS X","10_15_7","https://app.prolific.com/","en-US,en;q=0.9","65cb0f21257c8a98f470bb5d","686e379bc37a29ffa5cdc956","6877691be4e619d7f34814a0","1","1","65cb0f21257c8a98f470bb5d","1","1","2025-07-16T09:10:14.819Z","","","","","","","","","","","AttribQ","","50","","","","","","","","","","","","","","","","","","","","","","","","","","","","",""
"5168","","<div style=""width:500px;"">
  <p>How much control did you have over the ball?</p>
  </div>","58","html-slider-response","66","845952","0.0-5.0-2.11","84","1","2025-07-16 08:56:11","1f75c3e559b7213887762d5229550c2b","122.133.157.125","Mozilla/5.0 (Macintosh; Intel Mac OS X 10_15_7) AppleWebKit/537.36 (KHTML, like Gecko) Chrome/137.0.0.0 Safari/537.36","Macintosh","Chrome","137.0.0.0","OS X","10_15_7","https://app.prolific.com/","en-US,en;q=0.9","65cb0f21257c8a98f470bb5d","686e379bc37a29ffa5cdc956","6877691be4e619d7f34814a0","1","1","65cb0f21257c8a98f470bb5d","1","1","2025-07-16T09:10:19.988Z","","","","","","","","","","","ControlQ","","50","","","","","","","","","","","","","","","","","","","","","","","","","","","","",""
"3300","","<div style=""width:500px;"">
  <p>How would you describe your current emotional state?</p>
  </div>","46","html-slider-response","67","849253","0.0-5.0-3.11","84","1","2025-07-16 08:56:11","1f75c3e559b7213887762d5229550c2b","122.133.157.125","Mozilla/5.0 (Macintosh; Intel Mac OS X 10_15_7) AppleWebKit/537.36 (KHTML, like Gecko) Chrome/137.0.0.0 Safari/537.36","Macintosh","Chrome","137.0.0.0","OS X","10_15_7","https://app.prolific.com/","en-US,en;q=0.9","65cb0f21257c8a98f470bb5d","686e379bc37a29ffa5cdc956","6877691be4e619d7f34814a0","1","1","65cb0f21257c8a98f470bb5d","1","1","2025-07-16T09:10:23.289Z","","","","","","","","","","","StressQ","","50","","","","","","","","","","","","","","","","","","","","","","","","","","","","",""
"2682","","<div style=""width:500px;"">
  <p>What best describes how you currently feel?</p>
  </div>","84","html-slider-response","68","851938","0.0-5.0-4.11","84","1","2025-07-16 08:56:11","1f75c3e559b7213887762d5229550c2b","122.133.157.125","Mozilla/5.0 (Macintosh; Intel Mac OS X 10_15_7) AppleWebKit/537.36 (KHTML, like Gecko) Chrome/137.0.0.0 Safari/537.36","Macintosh","Chrome","137.0.0.0","OS X","10_15_7","https://app.prolific.com/","en-US,en;q=0.9","65cb0f21257c8a98f470bb5d","686e379bc37a29ffa5cdc956","6877691be4e619d7f34814a0","1","1","65cb0f21257c8a98f470bb5d","1","1","2025-07-16T09:10:25.974Z","","","","","","","","","","","MotivationQ","","50","","","","","","","","","","","","","","","","","","","","","","","","","","","","",""
"","","","","ctl-task-cpt","69","888387","0.0-5.0-0.12","84","1","2025-07-16 08:56:11","1f75c3e559b7213887762d5229550c2b","122.133.157.125","Mozilla/5.0 (Macintosh; Intel Mac OS X 10_15_7) AppleWebKit/537.36 (KHTML, like Gecko) Chrome/137.0.0.0 Safari/537.36","Macintosh","Chrome","137.0.0.0","OS X","10_15_7","https://app.prolific.com/","en-US,en;q=0.9","65cb0f21257c8a98f470bb5d","686e379bc37a29ffa5cdc956","6877691be4e619d7f34814a0","1","1","65cb0f21257c8a98f470bb5d","1","1","2025-07-16T09:11:02.423Z","","","","","","","","","","","","","","win-only","1","g1:NE,g2:SW","0.7","13","0","855042.6","985.2","5985.7","33424.8","1","4","4","6","2","4","2","24","22","0.18181818181818182","1020.2","3000","1195","[""down"",""left""]","{""num_key_presses"":10,""num_perfect"":5,""num_errors"":2,""num_randdir"":3,""num_randdir_good_moves"":2,""num_whilered"":0,""num_whileblue"":2,""num_blue"":2,""num_good_moves"":8}","[840.6508928571428,835.4477678571428,0.1,840.6508928571428,835.4477678571428,100.9,840.6508928571428,835.4477678571428,207.8,840.6508928571428,835.4477678571428,313.8,840.6508928571428,835.4477678571428,418.1,744.6508928571428,889.4477678571428,519.7,140.65089285714285,1513.447767857143,620.3,98.65089285714285,1549.447767857143,721.2,132.65089285714285,1443.447767857143,830.3,170.65089285714285,1419.447767857143,940.9,170.65089285714285,1419.447767857143,1043,170.65089285714285,1419.447767857143,1149.6,170.65089285714285,1419.447767857143,1250.2,476.6508928571428,1245.447767857143,1350.4,1706.650892857143,1135.447767857143,1460.5,1768.650892857143,1153.447767857143,1561.4,1768.650892857143,1153.447767857143,1664,1768.650892857143,1153.447767857143,1767.7,1768.650892857143,1153.447767857143,1870.6,1768.650892857143,1153.447767857143,1970.7,1768.650892857143,1153.447767857143,2072.6,1768.650892857143,1153.447767857143,2180.5,1768.650892857143,1153.447767857143,2282.5,1768.650892857143,1153.447767857143,2384.4,1768.650892857143,1153.447767857143,2486,1768.650892857143,1153.447767857143,2590.3,1768.650892857143,1153.447767857143,2690.8,1768.650892857143,1153.447767857143,2791.7,1768.650892857143,1153.447767857143,2892.2,1768.650892857143,1153.447767857143,3001.2,1768.650892857143,1153.447767857143,3104.9,1768.650892857143,1153.447767857143,3205.6,1768.650892857143,1153.447767857143,3309.9,1768.650892857143,1153.447767857143,3418.1,1768.650892857143,1153.447767857143,3525.3,1768.650892857143,1153.447767857143,3625.4,1768.650892857143,1153.447767857143,3725.6,1768.650892857143,1153.447767857143,3830.9,1768.650892857143,1153.447767857143,3930.9,1768.650892857143,1153.447767857143,4037.5,1768.650892857143,1153.447767857143,4142.2,1768.650892857143,1153.447767857143,4248.3,1768.650892857143,1153.447767857143,4350.3,1768.650892857143,1153.447767857143,4450.8,1768.650892857143,1153.447767857143,4550.9,1768.650892857143,1153.447767857143,4655.1,1768.650892857143,1153.447767857143,4762.5,1768.650892857143,1153.447767857143,4872.6,1768.650892857143,1153.447767857143,4976]","[1320.5,1320.5,1000,0,320.5,""smooth"",""left"",""left"",""good_move"",4575.2,3254.5,2985.6,1320.7,268.9,""smooth"",""down"",""down"",""good_move"",7406.1,2830.8,2499.5,4575.3,331.3,""smooth"",""left"",""left"",""good_move"",10214.5,2808.2,2532.9,7406.3,275.3,""oops"",""down"",""down"",""good_move"",13312.1,3097.5,2846.1,10214.6,251.4,""while_blue"",""left"",""right"",""bad_move"",15406.3,2094.1,1729.2,13312.2,364.9,""oops"",""left"",""down"",""good_move"",18687.7,3281.4,3008.7,15406.3,272.7,""smooth"",""left"",""left"",""good_move"",22005.3,3317.5,3025.6,18687.8,291.9,""oops"",""left"",""up"",""bad_move"",24603.4,2597.9,2253.7,22005.5,344.2,""while_blue"",""left"",""down"",""good_move"",27264.4,2660.8,2311,24603.6,349.8,""smooth"",""left"",""left"",""good_move""]","",""
"2238","","<div style=""width:500px;"">
  <p>What determined the result of this run?</p>
  </div>","61","html-slider-response","70","890625","0.0-5.0-1.12","84","1","2025-07-16 08:56:11","1f75c3e559b7213887762d5229550c2b","122.133.157.125","Mozilla/5.0 (Macintosh; Intel Mac OS X 10_15_7) AppleWebKit/537.36 (KHTML, like Gecko) Chrome/137.0.0.0 Safari/537.36","Macintosh","Chrome","137.0.0.0","OS X","10_15_7","https://app.prolific.com/","en-US,en;q=0.9","65cb0f21257c8a98f470bb5d","686e379bc37a29ffa5cdc956","6877691be4e619d7f34814a0","1","1","65cb0f21257c8a98f470bb5d","1","1","2025-07-16T09:11:04.661Z","","","","","","","","","","","AttribQ","","50","","","","","","","","","","","","","","","","","","","","","","","","","","","","",""
"2401","","<div style=""width:500px;"">
  <p>How much control did you have over the ball?</p>
  </div>","47","html-slider-response","71","893027","0.0-5.0-2.12","84","1","2025-07-16 08:56:11","1f75c3e559b7213887762d5229550c2b","122.133.157.125","Mozilla/5.0 (Macintosh; Intel Mac OS X 10_15_7) AppleWebKit/537.36 (KHTML, like Gecko) Chrome/137.0.0.0 Safari/537.36","Macintosh","Chrome","137.0.0.0","OS X","10_15_7","https://app.prolific.com/","en-US,en;q=0.9","65cb0f21257c8a98f470bb5d","686e379bc37a29ffa5cdc956","6877691be4e619d7f34814a0","1","1","65cb0f21257c8a98f470bb5d","1","1","2025-07-16T09:11:07.063Z","","","","","","","","","","","ControlQ","","50","","","","","","","","","","","","","","","","","","","","","","","","","","","","",""
"5858","","<div style=""width:500px;"">
  <p>How would you describe your current emotional state?</p>
  </div>","50","html-slider-response","72","898885","0.0-5.0-3.12","84","1","2025-07-16 08:56:11","1f75c3e559b7213887762d5229550c2b","122.133.157.125","Mozilla/5.0 (Macintosh; Intel Mac OS X 10_15_7) AppleWebKit/537.36 (KHTML, like Gecko) Chrome/137.0.0.0 Safari/537.36","Macintosh","Chrome","137.0.0.0","OS X","10_15_7","https://app.prolific.com/","en-US,en;q=0.9","65cb0f21257c8a98f470bb5d","686e379bc37a29ffa5cdc956","6877691be4e619d7f34814a0","1","1","65cb0f21257c8a98f470bb5d","1","1","2025-07-16T09:11:12.921Z","","","","","","","","","","","StressQ","","50","","","","","","","","","","","","","","","","","","","","","","","","","","","","",""
"1681","","<div style=""width:500px;"">
  <p>What best describes how you currently feel?</p>
  </div>","86","html-slider-response","73","900567","0.0-5.0-4.12","84","1","2025-07-16 08:56:11","1f75c3e559b7213887762d5229550c2b","122.133.157.125","Mozilla/5.0 (Macintosh; Intel Mac OS X 10_15_7) AppleWebKit/537.36 (KHTML, like Gecko) Chrome/137.0.0.0 Safari/537.36","Macintosh","Chrome","137.0.0.0","OS X","10_15_7","https://app.prolific.com/","en-US,en;q=0.9","65cb0f21257c8a98f470bb5d","686e379bc37a29ffa5cdc956","6877691be4e619d7f34814a0","1","1","65cb0f21257c8a98f470bb5d","1","1","2025-07-16T09:11:14.603Z","","","","","","","","","","","MotivationQ","","50","","","","","","","","","","","","","","","","","","","","","","","","","","","","",""
