"rt","response_timestamp","stimulus","response","trial_type","trial_index","time_elapsed","internal_node_id","run_id","condition","recorded_at","source_code_version","ip","user_agent","device","browser","browser_version","platform","platform_version","referer","accept_language","PROLIFIC_PID","STUDY_ID","SESSION_ID","WEEK","BATCH","prolific_id","week","batch","realtime","success","responses","item_order","radio_event_ids","radio_event_times","key_event_times","mouse_event_times","straightlining","zigzagging","honeypot","eventType","view_history","slider_start","which_type","canvas_config","goals_layout","control_level","trial_number","tutorial_trial_number","trial_start_time","phase1_start_time","phase2_start_time","phase3_start_time","goal_1_value","goal_1_distance","goal_2_value","goal_2_distance","goal_selected","outcome","outcome_total","participant_final_score","participant_initial_score","participant_final_score_prop","goal_choice_rt","allocated_time","allocated_time_remaining","goal_direction","counts","mouse_movements","key_presses","question_order","question_id"
"120468","1753277228008","<p style='font-size:40px;line-height:1.25'><strong>Welcome to the experiment!</strong></p><p style='font-size:1.1em;line-height:1.25'>Thank you for participanting in our experiment again! You will be asked to play the Dysfunctional Ball Game again. We will briefly recap the rules before we start.</p><p style='font-size:1.1em;line-height:1.25'>Press <strong>Next</strong> to continue.</p>","0","custom-html-button-response","0","120472","0.0-0.0","222","1","2025-07-23 13:25:06","1f75c3e559b7213887762d5229550c2b","41.150.225.117","Mozilla/5.0 (Windows NT 10.0; Win64; x64) AppleWebKit/537.36 (KHTML, like Gecko) Chrome/138.0.0.0 Safari/537.36","WebKit","Chrome","138.0.0.0","Windows","10.0","https://app.prolific.com/","en-US,en;q=0.9","6785052a054e7c96c09f69cd","683db9eb0562dbf637994deb","6880e1aa1a41d16149988670","2","1","6785052a054e7c96c09f69cd","2","1","2025-07-23T13:27:08.011Z","","","","","","","","","","","","","","","","","","","","","","","","","","","","","","","","","","","","","","","","","",""
"7954","","","","fullscreen","1","129439","0.0-1.0","222","1","2025-07-23 13:25:06","1f75c3e559b7213887762d5229550c2b","41.150.225.117","Mozilla/5.0 (Windows NT 10.0; Win64; x64) AppleWebKit/537.36 (KHTML, like Gecko) Chrome/138.0.0.0 Safari/537.36","WebKit","Chrome","138.0.0.0","Windows","10.0","https://app.prolific.com/","en-US,en;q=0.9","6785052a054e7c96c09f69cd","683db9eb0562dbf637994deb","6880e1aa1a41d16149988670","2","1","6785052a054e7c96c09f69cd","2","1","","true","","","","","","","","","","","","","","","","","","","","","","","","","","","","","","","","","","","","","","","","",""
"1339","1753277238317","<p style='font-size:1.1em;line-height:1.25'>In the following, we will ask you a few questions relating to your feelings in the last 24 hours.<br></p><p style='font-size:1.1em;line-height:1.25'>Press the <strong>Next</strong> button to continue.</p>","0","custom-html-button-response","2","130779","0.0-2.0-0.0","222","1","2025-07-23 13:25:06","1f75c3e559b7213887762d5229550c2b","41.150.225.117","Mozilla/5.0 (Windows NT 10.0; Win64; x64) AppleWebKit/537.36 (KHTML, like Gecko) Chrome/138.0.0.0 Safari/537.36","WebKit","Chrome","138.0.0.0","Windows","10.0","https://app.prolific.com/","en-US,en;q=0.9","6785052a054e7c96c09f69cd","683db9eb0562dbf637994deb","6880e1aa1a41d16149988670","2","1","6785052a054e7c96c09f69cd","2","1","2025-07-23T13:27:18.317Z","","","","","","","","","","","","","","","","","","","","","","","","","","","","","","","","","","","","","","","","","",""
"116280.90000009537","","","","survey-template","3","247064","0.0-2.0-1.0","222","1","2025-07-23 13:25:06","1f75c3e559b7213887762d5229550c2b","41.150.225.117","Mozilla/5.0 (Windows NT 10.0; Win64; x64) AppleWebKit/537.36 (KHTML, like Gecko) Chrome/138.0.0.0 Safari/537.36","WebKit","Chrome","138.0.0.0","Windows","10.0","https://app.prolific.com/","en-US,en;q=0.9","6785052a054e7c96c09f69cd","683db9eb0562dbf637994deb","6880e1aa1a41d16149988670","2","1","6785052a054e7c96c09f69cd","2","1","2025-07-23T13:29:14.602Z","","{""Q01"":""3"",""Q02"":""0"",""Q03"":""0"",""Q04"":""3"",""Q05"":""4"",""Q06"":""0"",""Q07"":""4"",""Q08"":""0"",""Q09"":""2"",""Q10"":""1"",""Q11"":""5"",""Q12"":""3"",""Q13"":""5"",""Q14"":""2"",""Q15"":""3"",""Q16"":""3"",""Q17"":""0"",""Q18"":""2"",""Q19"":""3"",""Q20"":""2"",""Q21"":""3"",""Q22"":""0""}","[0,1,2,3,4,5,6,7,8,9,10,11,12,13,14,15,16,17,18,19,20,21]","[""Q01"",""Q02"",""Q03"",""Q04"",""Q05"",""Q06"",""Q07"",""Q08"",""Q09"",""Q11"",""Q12"",""Q13"",""Q14"",""Q15"",""Q16"",""Q17"",""Q18"",""Q19"",""Q20"",""Q21"",""Q22"",""Q10""]","[4650.200000047684,7564.100000023842,11488.300000071526,16286.200000047684,17426.400000095367,24332.100000023842,26611.900000095367,30025.900000095367,43459.90000009537,51297.90000009537,54159.800000071526,56676.200000047684,62409.5,67981.80000007153,72991.80000007153,77359.90000009537,81001.5,87903.5,93751.5,101433.5,105564.30000007153,112497.30000007153]","[]","[0,4650.200000047684,7564.100000023842,10008.100000023842,11488.300000071526,15285.900000095367,16286.200000047684,17426.400000095367,24332.100000023842,26611.900000095367,30025.900000095367,43459.90000009537,48141.5,51297.90000009537,54159.800000071526,56676.200000047684,62409.5,67981.80000007153,72991.80000007153,77359.90000009537,81001.5,87903.5,93751.5,101433.5,105564.30000007153,106584.10000002384,112497.30000007153,116273.5]","0.3181818181818182","0.2857142857142857","0","drsp","","","","","","","","","","","","","","","","","","","","","","","","","","","","","","",""
"31093.399999976158","","","","survey-template","4","278160","0.0-2.0-2.0","222","1","2025-07-23 13:25:06","1f75c3e559b7213887762d5229550c2b","41.150.225.117","Mozilla/5.0 (Windows NT 10.0; Win64; x64) AppleWebKit/537.36 (KHTML, like Gecko) Chrome/138.0.0.0 Safari/537.36","WebKit","Chrome","138.0.0.0","Windows","10.0","https://app.prolific.com/","en-US,en;q=0.9","6785052a054e7c96c09f69cd","683db9eb0562dbf637994deb","6880e1aa1a41d16149988670","2","1","6785052a054e7c96c09f69cd","2","1","2025-07-23T13:29:45.698Z","","{""Q01"":""3"",""Q02"":""3"",""Q03"":""3""}","[0,1,2]","[""Q01"",""Q02"",""Q03""]","[15384.700000047684,22571.700000047684,29823.100000023842]","[]","[15384.700000047684,22571.700000047684,29823.100000023842,30525,31092.5]","0.6666666666666666","1","0","stress","","","","","","","","","","","","","","","","","","","","","","","","","","","","","","",""
"2074","","","","instructions","5","280235","0.0-3.0-0.0","222","1","2025-07-23 13:25:06","1f75c3e559b7213887762d5229550c2b","41.150.225.117","Mozilla/5.0 (Windows NT 10.0; Win64; x64) AppleWebKit/537.36 (KHTML, like Gecko) Chrome/138.0.0.0 Safari/537.36","WebKit","Chrome","138.0.0.0","Windows","10.0","https://app.prolific.com/","en-US,en;q=0.9","6785052a054e7c96c09f69cd","683db9eb0562dbf637994deb","6880e1aa1a41d16149988670","2","1","6785052a054e7c96c09f69cd","2","1","","","","","","","","","","","","","[{""page_index"":0,""viewing_time"":2074}]","","","","","","","","","","","","","","","","","","","","","","","","","","","","","",""
"6103","","<p>Before you start with this game please answer the following three questions yourself. </p>
  <p>Through this game, we measure several aspects of your cognitive performance, such as reaction times, multi-tasking capabilities </p>
  <p>and the ability to assess the situation you are in.</p>
  <p></p>
  <p><b>How good do you usually are in such tasks?</b></p>","100","html-slider-response","6","286341","0.0-4.0-0.0","222","1","2025-07-23 13:25:06","1f75c3e559b7213887762d5229550c2b","41.150.225.117","Mozilla/5.0 (Windows NT 10.0; Win64; x64) AppleWebKit/537.36 (KHTML, like Gecko) Chrome/138.0.0.0 Safari/537.36","WebKit","Chrome","138.0.0.0","Windows","10.0","https://app.prolific.com/","en-US,en;q=0.9","6785052a054e7c96c09f69cd","683db9eb0562dbf637994deb","6880e1aa1a41d16149988670","2","1","6785052a054e7c96c09f69cd","2","1","2025-07-23T13:29:53.879Z","","","","","","","","","","","PreSkillQ","","50","","","","","","","","","","","","","","","","","","","","","","","","","","","","",""
"4625","","<div style=""width:500px;"">
  <p>How well do you think you will perform in this task compared to other participants?</p>
  </div>","100","html-slider-response","7","290967","0.0-4.0-1.0","222","1","2025-07-23 13:25:06","1f75c3e559b7213887762d5229550c2b","41.150.225.117","Mozilla/5.0 (Windows NT 10.0; Win64; x64) AppleWebKit/537.36 (KHTML, like Gecko) Chrome/138.0.0.0 Safari/537.36","WebKit","Chrome","138.0.0.0","Windows","10.0","https://app.prolific.com/","en-US,en;q=0.9","6785052a054e7c96c09f69cd","683db9eb0562dbf637994deb","6880e1aa1a41d16149988670","2","1","6785052a054e7c96c09f69cd","2","1","2025-07-23T13:29:58.505Z","","","","","","","","","","","PrePerfQ","","50","","","","","","","","","","","","","","","","","","","","","","","","","","","","",""
"4263","","<div style=""width:500px;"">
  <p>What best describes how you currently feel?</p>
  </div>","0","html-slider-response","8","295231","0.0-4.0-2.0","222","1","2025-07-23 13:25:06","1f75c3e559b7213887762d5229550c2b","41.150.225.117","Mozilla/5.0 (Windows NT 10.0; Win64; x64) AppleWebKit/537.36 (KHTML, like Gecko) Chrome/138.0.0.0 Safari/537.36","WebKit","Chrome","138.0.0.0","Windows","10.0","https://app.prolific.com/","en-US,en;q=0.9","6785052a054e7c96c09f69cd","683db9eb0562dbf637994deb","6880e1aa1a41d16149988670","2","1","6785052a054e7c96c09f69cd","2","1","2025-07-23T13:30:02.769Z","","","","","","","","","","","PreMotivationQ","","50","","","","","","","","","","","","","","","","","","","","","","","","","","","","",""
"","","","","ctl-task-cpt","9","318302","0.0-5.0-0.0","222","1","2025-07-23 13:25:06","1f75c3e559b7213887762d5229550c2b","41.150.225.117","Mozilla/5.0 (Windows NT 10.0; Win64; x64) AppleWebKit/537.36 (KHTML, like Gecko) Chrome/138.0.0.0 Safari/537.36","WebKit","Chrome","138.0.0.0","Windows","10.0","https://app.prolific.com/","en-US,en;q=0.9","6785052a054e7c96c09f69cd","683db9eb0562dbf637994deb","6880e1aa1a41d16149988670","2","1","6785052a054e7c96c09f69cd","2","1","2025-07-23T13:30:25.840Z","","","","","","","","","","","","","","win-only","0","g1:NW,g2:SE","1","1","0","298429.1","1519.9","6520.8","20063","1","4","8","6","1","1","1","1","0","0.007575757575757576","1563.4","3000","1140","[""left"",""up""]","{""num_key_presses"":4,""num_perfect"":4,""num_errors"":0,""num_randdir"":0,""num_randdir_good_moves"":0,""num_whilered"":0,""num_whileblue"":0,""num_blue"":1,""num_good_moves"":4}","[424.07142857142856,414.6808016640799,0.3,424.07142857142856,414.6808016640799,112.7,424.07142857142856,414.6808016640799,213.9,424.07142857142856,414.6808016640799,314.1,424.07142857142856,414.6808016640799,415.6,424.07142857142856,414.6808016640799,516.4,424.07142857142856,414.6808016640799,621.4,424.07142857142856,414.6808016640799,733.5,346.07142857142856,278.1808016640799,839.9,205.07142857142856,93.68080166407994,940.8,164.57142857142856,65.18080166407994,1041,74.57142857142857,35.18080166407994,1141.8,61.07142857142857,32.18080166407994,1247.6,68.57142857142857,41.18080166407994,1347.7,83.57142857142857,53.18080166407994,1449.6,83.57142857142857,54.68080166407994,1551,83.57142857142857,54.68080166407994,1651.9,83.57142857142857,54.68080166407994,1755.5,74.57142857142857,80.18080166407994,1857.1,-69.42857142857143,242.18080166407992,1964,-198.42857142857144,287.1808016640799,2066.3,-202.92857142857144,287.1808016640799,2166.5,-202.92857142857144,287.1808016640799,2266.5,-202.92857142857144,287.1808016640799,2372,-202.92857142857144,287.1808016640799,2480.7,-202.92857142857144,287.1808016640799,2586.7,-202.92857142857144,287.1808016640799,2686.8,-202.92857142857144,287.1808016640799,2791.2,-202.92857142857144,287.1808016640799,2896.5,-202.92857142857144,287.1808016640799,2996.6,-202.92857142857144,287.1808016640799,3101.3,-202.92857142857144,287.1808016640799,3201.6,-202.92857142857144,287.1808016640799,3305.9,-202.92857142857144,287.1808016640799,3407.5,-202.92857142857144,287.1808016640799,3513.2,-202.92857142857144,287.1808016640799,3616.4,-202.92857142857144,287.1808016640799,3721.4,-202.92857142857144,287.1808016640799,3821.6,-202.92857142857144,287.1808016640799,3922.1,-202.92857142857144,287.1808016640799,4029.4,-202.92857142857144,287.1808016640799,4129.5,-202.92857142857144,287.1808016640799,4230.4,-202.92857142857144,287.1808016640799,4330.6,-202.92857142857144,287.1808016640799,4436.1,-202.92857142857144,287.1808016640799,4536.6,-202.92857142857144,287.1808016640799,4646.5,-202.92857142857144,287.1808016640799,4746.5,-202.92857142857144,287.1808016640799,4846.5,-202.92857142857144,287.1808016640799,4951]","[1502.4,1502.4,1000,0,502.4,""smooth"",""up"",""up"",""good_move"",4575.3,3072.3,2604.3,1503,468,""smooth"",""up"",""up"",""good_move"",7460,2884.4,2408,4575.6,476.4,""smooth"",""left"",""left"",""good_move"",13444.8,5984.3,2036,10729.7,679.1,""smooth"",""left"",""left"",""good_move""]","",""
"5016","","<div style=""width:500px;"">
  <p>What determined the result of this run?</p>
  </div>","100","html-slider-response","10","323319","0.0-5.0-1.0","222","1","2025-07-23 13:25:06","1f75c3e559b7213887762d5229550c2b","41.150.225.117","Mozilla/5.0 (Windows NT 10.0; Win64; x64) AppleWebKit/537.36 (KHTML, like Gecko) Chrome/138.0.0.0 Safari/537.36","WebKit","Chrome","138.0.0.0","Windows","10.0","https://app.prolific.com/","en-US,en;q=0.9","6785052a054e7c96c09f69cd","683db9eb0562dbf637994deb","6880e1aa1a41d16149988670","2","1","6785052a054e7c96c09f69cd","2","1","2025-07-23T13:30:30.857Z","","","","","","","","","","","AttribQ","","50","","","","","","","","","","","","","","","","","","","","","","","","","","","","",""
"4022","","<div style=""width:500px;"">
  <p>How much control did you have over the ball?</p>
  </div>","100","html-slider-response","11","327343","0.0-5.0-2.0","222","1","2025-07-23 13:25:06","1f75c3e559b7213887762d5229550c2b","41.150.225.117","Mozilla/5.0 (Windows NT 10.0; Win64; x64) AppleWebKit/537.36 (KHTML, like Gecko) Chrome/138.0.0.0 Safari/537.36","WebKit","Chrome","138.0.0.0","Windows","10.0","https://app.prolific.com/","en-US,en;q=0.9","6785052a054e7c96c09f69cd","683db9eb0562dbf637994deb","6880e1aa1a41d16149988670","2","1","6785052a054e7c96c09f69cd","2","1","2025-07-23T13:30:34.881Z","","","","","","","","","","","ControlQ","","50","","","","","","","","","","","","","","","","","","","","","","","","","","","","",""
"5045","","<div style=""width:500px;"">
  <p>How would you describe your current emotional state?</p>
  </div>","0","html-slider-response","12","332389","0.0-5.0-3.0","222","1","2025-07-23 13:25:06","1f75c3e559b7213887762d5229550c2b","41.150.225.117","Mozilla/5.0 (Windows NT 10.0; Win64; x64) AppleWebKit/537.36 (KHTML, like Gecko) Chrome/138.0.0.0 Safari/537.36","WebKit","Chrome","138.0.0.0","Windows","10.0","https://app.prolific.com/","en-US,en;q=0.9","6785052a054e7c96c09f69cd","683db9eb0562dbf637994deb","6880e1aa1a41d16149988670","2","1","6785052a054e7c96c09f69cd","2","1","2025-07-23T13:30:39.927Z","","","","","","","","","","","StressQ","","50","","","","","","","","","","","","","","","","","","","","","","","","","","","","",""
"4598","","<div style=""width:500px;"">
  <p>What best describes how you currently feel?</p>
  </div>","0","html-slider-response","13","336989","0.0-5.0-4.0","222","1","2025-07-23 13:25:06","1f75c3e559b7213887762d5229550c2b","41.150.225.117","Mozilla/5.0 (Windows NT 10.0; Win64; x64) AppleWebKit/537.36 (KHTML, like Gecko) Chrome/138.0.0.0 Safari/537.36","WebKit","Chrome","138.0.0.0","Windows","10.0","https://app.prolific.com/","en-US,en;q=0.9","6785052a054e7c96c09f69cd","683db9eb0562dbf637994deb","6880e1aa1a41d16149988670","2","1","6785052a054e7c96c09f69cd","2","1","2025-07-23T13:30:44.527Z","","","","","","","","","","","MotivationQ","","50","","","","","","","","","","","","","","","","","","","","","","","","","","","","",""
"","","","","ctl-task-cpt","14","371932","0.0-5.0-0.1","222","1","2025-07-23 13:25:06","1f75c3e559b7213887762d5229550c2b","41.150.225.117","Mozilla/5.0 (Windows NT 10.0; Win64; x64) AppleWebKit/537.36 (KHTML, like Gecko) Chrome/138.0.0.0 Safari/537.36","WebKit","Chrome","138.0.0.0","Windows","10.0","https://app.prolific.com/","en-US,en;q=0.9","6785052a054e7c96c09f69cd","683db9eb0562dbf637994deb","6880e1aa1a41d16149988670","2","1","6785052a054e7c96c09f69cd","2","1","2025-07-23T13:31:19.470Z","","","","","","","","","","","","","","win-only","3","g1:SW,g2:NE","0.9","2","0","340184","1423.7","6426.6","31926.7","1","4","4","6","2","4","4","5","1","0.03787878787878788","1404.9","3000","370","[""up"",""right""]","{""num_key_presses"":6,""num_perfect"":6,""num_errors"":0,""num_randdir"":0,""num_randdir_good_moves"":0,""num_whilered"":0,""num_whileblue"":0,""num_blue"":2,""num_good_moves"":6}","[413.57142857142856,414.6808016640799,0.2,413.57142857142856,414.6808016640799,100.5,413.57142857142856,414.6808016640799,201.9,413.57142857142856,414.6808016640799,302.2,413.57142857142856,414.6808016640799,402.4,413.57142857142856,414.6808016640799,507.8,413.57142857142856,414.6808016640799,607.9,413.57142857142856,414.6808016640799,716.7,413.57142857142856,414.6808016640799,817.3,413.57142857142856,414.6808016640799,922.1,583.0714285714286,282.6808016640799,1028.3,778.0714285714286,56.18080166407994,1134,778.0714285714286,47.18080166407994,1234.8,775.0714285714286,53.18080166407994,1336.9,773.5714285714286,53.18080166407994,1437.9,773.5714285714286,53.18080166407994,1537.9,772.0714285714286,56.18080166407994,1642.9,769.0714285714286,273.6808016640799,1745.1,764.5714285714286,452.1808016640799,1850.5,764.5714285714286,473.1808016640799,1951,764.5714285714286,473.1808016640799,2052.3,764.5714285714286,473.1808016640799,2152.8,764.5714285714286,473.1808016640799,2253.7,764.5714285714286,473.1808016640799,2356.6,764.5714285714286,473.1808016640799,2457.8,764.5714285714286,473.1808016640799,2566.4,764.5714285714286,473.1808016640799,2666.7,764.5714285714286,473.1808016640799,2772.4,764.5714285714286,473.1808016640799,2872.4,764.5714285714286,473.1808016640799,2977.9,764.5714285714286,473.1808016640799,3078.1,764.5714285714286,473.1808016640799,3184.9,764.5714285714286,473.1808016640799,3287.7,764.5714285714286,473.1808016640799,3388.1,764.5714285714286,473.1808016640799,3493.2,764.5714285714286,473.1808016640799,3593.2,764.5714285714286,473.1808016640799,3700.1,764.5714285714286,473.1808016640799,3802.7,764.5714285714286,473.1808016640799,3907.7,764.5714285714286,473.1808016640799,4007.8,764.5714285714286,473.1808016640799,4120.6,764.5714285714286,473.1808016640799,4223,764.5714285714286,473.1808016640799,4323.7,764.5714285714286,473.1808016640799,4427.3,764.5714285714286,473.1808016640799,4528.1,764.5714285714286,473.1808016640799,4628.5,764.5714285714286,473.1808016640799,4734.3,764.5714285714286,473.1808016640799,4837.2,764.5714285714286,473.1808016640799,4937.7]","[1800.6,1800.6,1000,0,800.6,""smooth"",""up"",""up"",""good_move"",9213.1,7412.3,2583.1,6118.9,511.1,""smooth"",""up"",""up"",""good_move"",12162.8,2949.4,2263.1,9213.4,686.3,""smooth"",""up"",""up"",""good_move"",18244.4,6081.2,2697.3,15178.9,368.2,""smooth"",""right"",""right"",""good_move"",21544.2,3299.5,2787.8,18244.7,511.7,""smooth"",""right"",""right"",""good_move"",25334.7,3790.1,3389.1,21544.6,401,""smooth"",""right"",""right"",""good_move""]","",""
"4870","","<div style=""width:500px;"">
  <p>What determined the result of this run?</p>
  </div>","100","html-slider-response","15","376803","0.0-5.0-1.1","222","1","2025-07-23 13:25:06","1f75c3e559b7213887762d5229550c2b","41.150.225.117","Mozilla/5.0 (Windows NT 10.0; Win64; x64) AppleWebKit/537.36 (KHTML, like Gecko) Chrome/138.0.0.0 Safari/537.36","WebKit","Chrome","138.0.0.0","Windows","10.0","https://app.prolific.com/","en-US,en;q=0.9","6785052a054e7c96c09f69cd","683db9eb0562dbf637994deb","6880e1aa1a41d16149988670","2","1","6785052a054e7c96c09f69cd","2","1","2025-07-23T13:31:24.341Z","","","","","","","","","","","AttribQ","","50","","","","","","","","","","","","","","","","","","","","","","","","","","","","",""
"2848","","<div style=""width:500px;"">
  <p>How much control did you have over the ball?</p>
  </div>","100","html-slider-response","16","379652","0.0-5.0-2.1","222","1","2025-07-23 13:25:06","1f75c3e559b7213887762d5229550c2b","41.150.225.117","Mozilla/5.0 (Windows NT 10.0; Win64; x64) AppleWebKit/537.36 (KHTML, like Gecko) Chrome/138.0.0.0 Safari/537.36","WebKit","Chrome","138.0.0.0","Windows","10.0","https://app.prolific.com/","en-US,en;q=0.9","6785052a054e7c96c09f69cd","683db9eb0562dbf637994deb","6880e1aa1a41d16149988670","2","1","6785052a054e7c96c09f69cd","2","1","2025-07-23T13:31:27.190Z","","","","","","","","","","","ControlQ","","50","","","","","","","","","","","","","","","","","","","","","","","","","","","","",""
"5545","","<div style=""width:500px;"">
  <p>How would you describe your current emotional state?</p>
  </div>","0","html-slider-response","17","385198","0.0-5.0-3.1","222","1","2025-07-23 13:25:06","1f75c3e559b7213887762d5229550c2b","41.150.225.117","Mozilla/5.0 (Windows NT 10.0; Win64; x64) AppleWebKit/537.36 (KHTML, like Gecko) Chrome/138.0.0.0 Safari/537.36","WebKit","Chrome","138.0.0.0","Windows","10.0","https://app.prolific.com/","en-US,en;q=0.9","6785052a054e7c96c09f69cd","683db9eb0562dbf637994deb","6880e1aa1a41d16149988670","2","1","6785052a054e7c96c09f69cd","2","1","2025-07-23T13:31:32.736Z","","","","","","","","","","","StressQ","","50","","","","","","","","","","","","","","","","","","","","","","","","","","","","",""
"2503","","<div style=""width:500px;"">
  <p>What best describes how you currently feel?</p>
  </div>","0","html-slider-response","18","387702","0.0-5.0-4.1","222","1","2025-07-23 13:25:06","1f75c3e559b7213887762d5229550c2b","41.150.225.117","Mozilla/5.0 (Windows NT 10.0; Win64; x64) AppleWebKit/537.36 (KHTML, like Gecko) Chrome/138.0.0.0 Safari/537.36","WebKit","Chrome","138.0.0.0","Windows","10.0","https://app.prolific.com/","en-US,en;q=0.9","6785052a054e7c96c09f69cd","683db9eb0562dbf637994deb","6880e1aa1a41d16149988670","2","1","6785052a054e7c96c09f69cd","2","1","2025-07-23T13:31:35.240Z","","","","","","","","","","","MotivationQ","","50","","","","","","","","","","","","","","","","","","","","","","","","","","","","",""
"","","","","ctl-task-cpt","19","413758","0.0-5.0-0.2","222","1","2025-07-23 13:25:06","1f75c3e559b7213887762d5229550c2b","41.150.225.117","Mozilla/5.0 (Windows NT 10.0; Win64; x64) AppleWebKit/537.36 (KHTML, like Gecko) Chrome/138.0.0.0 Safari/537.36","WebKit","Chrome","138.0.0.0","Windows","10.0","https://app.prolific.com/","en-US,en;q=0.9","6785052a054e7c96c09f69cd","683db9eb0562dbf637994deb","6880e1aa1a41d16149988670","2","1","6785052a054e7c96c09f69cd","2","1","2025-07-23T13:32:01.296Z","","","","","","","","","","","","","","win-only","1","g1:NE,g2:SW","0.8","3","0","390898.5","1271.9","6277.1","23040.5","1","4","8","6","2","8","8","13","5","0.09848484848484848","1149.8","3000","870","[""down"",""left""]","{""num_key_presses"":6,""num_perfect"":4,""num_errors"":0,""num_randdir"":2,""num_randdir_good_moves"":2,""num_whilered"":0,""num_whileblue"":0,""num_blue"":0,""num_good_moves"":6}","[422.57142857142856,410.1808016640799,0.1,422.57142857142856,410.1808016640799,104.9,422.57142857142856,410.1808016640799,209.5,422.57142857142856,410.1808016640799,309.9,422.57142857142856,410.1808016640799,410.7,422.57142857142856,410.1808016640799,511.1,398.57142857142856,425.1808016640799,615.5,199.07142857142856,636.6808016640799,719.4,106.07142857142857,689.1808016640799,819.5,80.57142857142857,720.6808016640799,924.3,79.07142857142857,752.1808016640799,1025.1,86.57142857142857,749.1808016640799,1129.2,88.07142857142857,749.1808016640799,1229.7,92.57142857142857,747.6808016640799,1330.5,94.07142857142857,747.6808016640799,1435.2,94.07142857142857,747.6808016640799,1539.1,94.07142857142857,747.6808016640799,1639.3,94.07142857142857,747.6808016640799,1739.3,94.07142857142857,747.6808016640799,1844.2,94.07142857142857,747.6808016640799,1944.9,94.07142857142857,747.6808016640799,2048.8,94.07142857142857,747.6808016640799,2149.5,94.07142857142857,747.6808016640799,2249.6,94.07142857142857,747.6808016640799,2349.6,94.07142857142857,747.6808016640799,2454.9,94.07142857142857,747.6808016640799,2554.9,94.07142857142857,747.6808016640799,2658.8,94.07142857142857,747.6808016640799,2765.3,94.07142857142857,747.6808016640799,2869.2,94.07142857142857,747.6808016640799,2970,94.07142857142857,747.6808016640799,3074.8,94.07142857142857,747.6808016640799,3178.9,94.07142857142857,747.6808016640799,3279.2,94.07142857142857,747.6808016640799,3379.5,94.07142857142857,747.6808016640799,3479.7,94.07142857142857,747.6808016640799,3581,94.07142857142857,747.6808016640799,3683.8,94.07142857142857,747.6808016640799,3783.8,94.07142857142857,747.6808016640799,3884,94.07142857142857,747.6808016640799,3984.7,94.07142857142857,747.6808016640799,4089.5,94.07142857142857,747.6808016640799,4193.7,94.07142857142857,747.6808016640799,4296.5,94.07142857142857,747.6808016640799,4399.8,94.07142857142857,747.6808016640799,4500.3,94.07142857142857,747.6808016640799,4604.8,94.07142857142857,747.6808016640799,4705.1,94.07142857142857,747.6808016640799,4811.1,94.07142857142857,747.6808016640799,4915.9]","[1518.1,1518.1,1000,0,518.1,""oops"",""left"",""left"",""good_move"",4111,2592.5,2031.1,1518.5,561.4,""oops"",""left"",""left"",""good_move"",7424.1,3313,2896.1,4111.2,416.9,""smooth"",""left"",""left"",""good_move"",10768.3,3344,2978,7424.3,366,""smooth"",""down"",""down"",""good_move"",13693.8,2924.3,2553.5,10769.5,370.8,""smooth"",""down"",""down"",""good_move"",16672.9,2979,2590.2,13694,388.8,""smooth"",""down"",""down"",""good_move""]","",""
"4144","","<div style=""width:500px;"">
  <p>What determined the result of this run?</p>
  </div>","100","html-slider-response","20","417903","0.0-5.0-1.2","222","1","2025-07-23 13:25:06","1f75c3e559b7213887762d5229550c2b","41.150.225.117","Mozilla/5.0 (Windows NT 10.0; Win64; x64) AppleWebKit/537.36 (KHTML, like Gecko) Chrome/138.0.0.0 Safari/537.36","WebKit","Chrome","138.0.0.0","Windows","10.0","https://app.prolific.com/","en-US,en;q=0.9","6785052a054e7c96c09f69cd","683db9eb0562dbf637994deb","6880e1aa1a41d16149988670","2","1","6785052a054e7c96c09f69cd","2","1","2025-07-23T13:32:05.441Z","","","","","","","","","","","AttribQ","","50","","","","","","","","","","","","","","","","","","","","","","","","","","","","",""
"3526","","<div style=""width:500px;"">
  <p>How much control did you have over the ball?</p>
  </div>","100","html-slider-response","21","421430","0.0-5.0-2.2","222","1","2025-07-23 13:25:06","1f75c3e559b7213887762d5229550c2b","41.150.225.117","Mozilla/5.0 (Windows NT 10.0; Win64; x64) AppleWebKit/537.36 (KHTML, like Gecko) Chrome/138.0.0.0 Safari/537.36","WebKit","Chrome","138.0.0.0","Windows","10.0","https://app.prolific.com/","en-US,en;q=0.9","6785052a054e7c96c09f69cd","683db9eb0562dbf637994deb","6880e1aa1a41d16149988670","2","1","6785052a054e7c96c09f69cd","2","1","2025-07-23T13:32:08.968Z","","","","","","","","","","","ControlQ","","50","","","","","","","","","","","","","","","","","","","","","","","","","","","","",""
"3067","","<div style=""width:500px;"">
  <p>How would you describe your current emotional state?</p>
  </div>","0","html-slider-response","22","424498","0.0-5.0-3.2","222","1","2025-07-23 13:25:06","1f75c3e559b7213887762d5229550c2b","41.150.225.117","Mozilla/5.0 (Windows NT 10.0; Win64; x64) AppleWebKit/537.36 (KHTML, like Gecko) Chrome/138.0.0.0 Safari/537.36","WebKit","Chrome","138.0.0.0","Windows","10.0","https://app.prolific.com/","en-US,en;q=0.9","6785052a054e7c96c09f69cd","683db9eb0562dbf637994deb","6880e1aa1a41d16149988670","2","1","6785052a054e7c96c09f69cd","2","1","2025-07-23T13:32:12.036Z","","","","","","","","","","","StressQ","","50","","","","","","","","","","","","","","","","","","","","","","","","","","","","",""
"3841","","<div style=""width:500px;"">
  <p>What best describes how you currently feel?</p>
  </div>","0","html-slider-response","23","428341","0.0-5.0-4.2","222","1","2025-07-23 13:25:06","1f75c3e559b7213887762d5229550c2b","41.150.225.117","Mozilla/5.0 (Windows NT 10.0; Win64; x64) AppleWebKit/537.36 (KHTML, like Gecko) Chrome/138.0.0.0 Safari/537.36","WebKit","Chrome","138.0.0.0","Windows","10.0","https://app.prolific.com/","en-US,en;q=0.9","6785052a054e7c96c09f69cd","683db9eb0562dbf637994deb","6880e1aa1a41d16149988670","2","1","6785052a054e7c96c09f69cd","2","1","2025-07-23T13:32:15.879Z","","","","","","","","","","","MotivationQ","","50","","","","","","","","","","","","","","","","","","","","","","","","","","","","",""
"","","","","ctl-task-cpt","24","457394","0.0-5.0-0.3","222","1","2025-07-23 13:25:06","1f75c3e559b7213887762d5229550c2b","41.150.225.117","Mozilla/5.0 (Windows NT 10.0; Win64; x64) AppleWebKit/537.36 (KHTML, like Gecko) Chrome/138.0.0.0 Safari/537.36","WebKit","Chrome","138.0.0.0","Windows","10.0","https://app.prolific.com/","en-US,en;q=0.9","6785052a054e7c96c09f69cd","683db9eb0562dbf637994deb","6880e1aa1a41d16149988670","2","1","6785052a054e7c96c09f69cd","2","1","2025-07-23T13:32:44.932Z","","","","","","","","","","","","","","win-only","3","g1:SW,g2:NE","0.7","4","0","431539","1183.3","6188.4","26041.5","1","4","4","6","2","4","4","17","13","0.12878787878787878","1350.2","3000","1090","[""up"",""right""]","{""num_key_presses"":6,""num_perfect"":5,""num_errors"":0,""num_randdir"":1,""num_randdir_good_moves"":1,""num_whilered"":0,""num_whileblue"":0,""num_blue"":1,""num_good_moves"":6}","[413.57142857142856,416.1808016640799,0.2,413.57142857142856,416.1808016640799,104.7,416.57142857142856,416.1808016640799,219.1,416.57142857142856,416.1808016640799,324.4,416.57142857142856,416.1808016640799,432.9,416.57142857142856,416.1808016640799,533.8,400.07142857142856,428.1808016640799,634,443.57142857142856,356.1808016640799,740.5,601.0714285714286,72.68080166407994,844.9,643.0714285714286,26.180801664079937,948.7,680.5714285714286,53.18080166407994,1070.9,710.5714285714286,80.18080166407994,1198.1,719.5714285714286,75.68080166407994,1299.5,719.5714285714286,74.18080166407994,1431.1,719.5714285714286,74.18080166407994,1533,731.5714285714286,113.18080166407994,1664.1,857.5714285714286,194.18080166407992,1772.9,1079.5714285714287,242.18080166407992,1880.7,1099.0714285714287,242.18080166407992,1994.1,1102.0714285714287,239.18080166407992,2098.8,1102.0714285714287,239.18080166407992,2201.2,1102.0714285714287,239.18080166407992,2302.7,1102.0714285714287,239.18080166407992,2422.5,1102.0714285714287,239.18080166407992,2529.9,1102.0714285714287,239.18080166407992,2630.3,1102.0714285714287,239.18080166407992,2732.7,1102.0714285714287,239.18080166407992,2832.7,1102.0714285714287,239.18080166407992,2932.7,1102.0714285714287,239.18080166407992,3034.6,1102.0714285714287,239.18080166407992,3143.4,1102.0714285714287,239.18080166407992,3244.2,1102.0714285714287,239.18080166407992,3348.1,1102.0714285714287,239.18080166407992,3460.4,1102.0714285714287,239.18080166407992,3560.7,1102.0714285714287,239.18080166407992,3660.7,1102.0714285714287,239.18080166407992,3760.7,1102.0714285714287,239.18080166407992,3860.9,1102.0714285714287,239.18080166407992,3964.2,1102.0714285714287,239.18080166407992,4075.2,1102.0714285714287,239.18080166407992,4177.3,1102.0714285714287,239.18080166407992,4282.3,1102.0714285714287,239.18080166407992,4383.1,1102.0714285714287,239.18080166407992,4483.3,1102.0714285714287,239.18080166407992,4596,1102.0714285714287,239.18080166407992,4698.3,1102.0714285714287,239.18080166407992,4811.3,1102.0714285714287,239.18080166407992,4913.4]","[4740.9,4740.9,2262.3,2002.9,475.7,""smooth"",""right"",""right"",""good_move"",8253.3,3512,2983.5,4741.3,528.5,""smooth"",""right"",""right"",""good_move"",11207.1,2953.5,2488.2,8253.6,465.4,""smooth"",""right"",""right"",""good_move"",13471.4,2263.7,1830.9,11207.7,432.8,""smooth"",""up"",""up"",""good_move"",16802.4,3330.6,2866.8,13471.8,463.8,""smooth"",""up"",""up"",""good_move"",19739.9,2937.3,2545.3,16802.6,392,""oops"",""up"",""up"",""good_move""]","",""
"3991","","<div style=""width:500px;"">
  <p>What determined the result of this run?</p>
  </div>","100","html-slider-response","25","461388","0.0-5.0-1.3","222","1","2025-07-23 13:25:06","1f75c3e559b7213887762d5229550c2b","41.150.225.117","Mozilla/5.0 (Windows NT 10.0; Win64; x64) AppleWebKit/537.36 (KHTML, like Gecko) Chrome/138.0.0.0 Safari/537.36","WebKit","Chrome","138.0.0.0","Windows","10.0","https://app.prolific.com/","en-US,en;q=0.9","6785052a054e7c96c09f69cd","683db9eb0562dbf637994deb","6880e1aa1a41d16149988670","2","1","6785052a054e7c96c09f69cd","2","1","2025-07-23T13:32:48.926Z","","","","","","","","","","","AttribQ","","50","","","","","","","","","","","","","","","","","","","","","","","","","","","","",""
"5013","","<div style=""width:500px;"">
  <p>How much control did you have over the ball?</p>
  </div>","100","html-slider-response","26","466402","0.0-5.0-2.3","222","1","2025-07-23 13:25:06","1f75c3e559b7213887762d5229550c2b","41.150.225.117","Mozilla/5.0 (Windows NT 10.0; Win64; x64) AppleWebKit/537.36 (KHTML, like Gecko) Chrome/138.0.0.0 Safari/537.36","WebKit","Chrome","138.0.0.0","Windows","10.0","https://app.prolific.com/","en-US,en;q=0.9","6785052a054e7c96c09f69cd","683db9eb0562dbf637994deb","6880e1aa1a41d16149988670","2","1","6785052a054e7c96c09f69cd","2","1","2025-07-23T13:32:53.940Z","","","","","","","","","","","ControlQ","","50","","","","","","","","","","","","","","","","","","","","","","","","","","","","",""
"3112","","<div style=""width:500px;"">
  <p>How would you describe your current emotional state?</p>
  </div>","0","html-slider-response","27","469515","0.0-5.0-3.3","222","1","2025-07-23 13:25:06","1f75c3e559b7213887762d5229550c2b","41.150.225.117","Mozilla/5.0 (Windows NT 10.0; Win64; x64) AppleWebKit/537.36 (KHTML, like Gecko) Chrome/138.0.0.0 Safari/537.36","WebKit","Chrome","138.0.0.0","Windows","10.0","https://app.prolific.com/","en-US,en;q=0.9","6785052a054e7c96c09f69cd","683db9eb0562dbf637994deb","6880e1aa1a41d16149988670","2","1","6785052a054e7c96c09f69cd","2","1","2025-07-23T13:32:57.053Z","","","","","","","","","","","StressQ","","50","","","","","","","","","","","","","","","","","","","","","","","","","","","","",""
"4349","","<div style=""width:500px;"">
  <p>What best describes how you currently feel?</p>
  </div>","100","html-slider-response","28","473866","0.0-5.0-4.3","222","1","2025-07-23 13:25:06","1f75c3e559b7213887762d5229550c2b","41.150.225.117","Mozilla/5.0 (Windows NT 10.0; Win64; x64) AppleWebKit/537.36 (KHTML, like Gecko) Chrome/138.0.0.0 Safari/537.36","WebKit","Chrome","138.0.0.0","Windows","10.0","https://app.prolific.com/","en-US,en;q=0.9","6785052a054e7c96c09f69cd","683db9eb0562dbf637994deb","6880e1aa1a41d16149988670","2","1","6785052a054e7c96c09f69cd","2","1","2025-07-23T13:33:01.404Z","","","","","","","","","","","MotivationQ","","50","","","","","","","","","","","","","","","","","","","","","","","","","","","","",""
"","","","","ctl-task-cpt","29","517578","0.0-5.0-0.4","222","1","2025-07-23 13:25:06","1f75c3e559b7213887762d5229550c2b","41.150.225.117","Mozilla/5.0 (Windows NT 10.0; Win64; x64) AppleWebKit/537.36 (KHTML, like Gecko) Chrome/138.0.0.0 Safari/537.36","WebKit","Chrome","138.0.0.0","Windows","10.0","https://app.prolific.com/","en-US,en;q=0.9","6785052a054e7c96c09f69cd","683db9eb0562dbf637994deb","6880e1aa1a41d16149988670","2","1","6785052a054e7c96c09f69cd","2","1","2025-07-23T13:33:45.116Z","","","","","","","","","","","","","","win-only","3","g1:SW,g2:NE","0.6","5","0","477062.8","1381.4","6381.8","40693.5","1","4","8","6","2","-8","-8","9","17","0.06818181818181818","1312.7","3000","-2720","[""up"",""right""]","{""num_key_presses"":7,""num_perfect"":5,""num_errors"":0,""num_randdir"":2,""num_randdir_good_moves"":0,""num_whilered"":0,""num_whileblue"":0,""num_blue"":3,""num_good_moves"":5}","[419.57142857142856,419.1808016640799,0.3,419.57142857142856,419.1808016640799,100.8,419.57142857142856,419.1808016640799,204.8,419.57142857142856,419.1808016640799,305.5,419.57142857142856,419.1808016640799,416.7,419.57142857142856,419.1808016640799,519.7,419.57142857142856,419.1808016640799,619.8,451.07142857142856,402.6808016640799,719.8,611.5714285714286,281.1808016640799,820.6,661.0714285714286,164.18080166407992,926.8,695.5714285714286,134.18080166407992,1029.7,746.5714285714286,104.18080166407994,1130.8,752.5714285714286,93.68080166407994,1241.9,752.5714285714286,93.68080166407994,1351.2,752.5714285714286,93.68080166407994,1455.6,746.5714285714286,162.68080166407992,1570.1,715.0714285714286,380.1808016640799,1684.9,700.0714285714286,441.6808016640799,1789.2,698.5714285714286,443.1808016640799,1890,698.5714285714286,443.1808016640799,1994.6,698.5714285714286,443.1808016640799,2095.1,698.5714285714286,443.1808016640799,2202.9,698.5714285714286,443.1808016640799,2305,698.5714285714286,443.1808016640799,2409.1,698.5714285714286,443.1808016640799,2522.7,698.5714285714286,443.1808016640799,2626,698.5714285714286,443.1808016640799,2740.9,698.5714285714286,443.1808016640799,2853.4,698.5714285714286,443.1808016640799,2953.8,698.5714285714286,443.1808016640799,3055.2,698.5714285714286,443.1808016640799,3155.8,698.5714285714286,443.1808016640799,3268.9,698.5714285714286,443.1808016640799,3370.9,698.5714285714286,443.1808016640799,3482.1,698.5714285714286,443.1808016640799,3584.4,698.5714285714286,443.1808016640799,3684.9,698.5714285714286,443.1808016640799,3790.1,698.5714285714286,443.1808016640799,3901.1,698.5714285714286,443.1808016640799,4003.7,698.5714285714286,443.1808016640799,4106.9,698.5714285714286,443.1808016640799,4212.2,698.5714285714286,443.1808016640799,4343.4,698.5714285714286,443.1808016640799,4444.2,698.5714285714286,443.1808016640799,4549.9,698.5714285714286,443.1808016640799,4650.1,698.5714285714286,443.1808016640799,4752.2,698.5714285714286,443.1808016640799,4856.8,698.5714285714286,443.1808016640799,4959.7]","[1430.7,1430.7,1000,0,430.7,""oops"",""up"",""down"",""bad_move"",7977.1,6546,1745.4,5495,736.7,""smooth"",""up"",""up"",""good_move"",11482,3504.3,2940.6,7977.7,563.7,""smooth"",""up"",""up"",""good_move"",14487.5,3005.2,2175.9,11482.3,829.3,""oops"",""up"",""left"",""bad_move"",21037,6548.6,2808.1,17807.1,421.8,""smooth"",""up"",""up"",""good_move"",24366.2,3329,2829.3,21037.2,499.7,""smooth"",""up"",""up"",""good_move"",30416.1,6049.6,2031.7,27845.3,539.1,""smooth"",""right"",""right"",""good_move""]","",""
"5805","","<div style=""width:500px;"">
  <p>What determined the result of this run?</p>
  </div>","0","html-slider-response","30","523384","0.0-5.0-1.4","222","1","2025-07-23 13:25:06","1f75c3e559b7213887762d5229550c2b","41.150.225.117","Mozilla/5.0 (Windows NT 10.0; Win64; x64) AppleWebKit/537.36 (KHTML, like Gecko) Chrome/138.0.0.0 Safari/537.36","WebKit","Chrome","138.0.0.0","Windows","10.0","https://app.prolific.com/","en-US,en;q=0.9","6785052a054e7c96c09f69cd","683db9eb0562dbf637994deb","6880e1aa1a41d16149988670","2","1","6785052a054e7c96c09f69cd","2","1","2025-07-23T13:33:50.923Z","","","","","","","","","","","AttribQ","","50","","","","","","","","","","","","","","","","","","","","","","","","","","","","",""
"3210","","<div style=""width:500px;"">
  <p>How much control did you have over the ball?</p>
  </div>","0","html-slider-response","31","526596","0.0-5.0-2.4","222","1","2025-07-23 13:25:06","1f75c3e559b7213887762d5229550c2b","41.150.225.117","Mozilla/5.0 (Windows NT 10.0; Win64; x64) AppleWebKit/537.36 (KHTML, like Gecko) Chrome/138.0.0.0 Safari/537.36","WebKit","Chrome","138.0.0.0","Windows","10.0","https://app.prolific.com/","en-US,en;q=0.9","6785052a054e7c96c09f69cd","683db9eb0562dbf637994deb","6880e1aa1a41d16149988670","2","1","6785052a054e7c96c09f69cd","2","1","2025-07-23T13:33:54.134Z","","","","","","","","","","","ControlQ","","50","","","","","","","","","","","","","","","","","","","","","","","","","","","","",""
"5237","","<div style=""width:500px;"">
  <p>How would you describe your current emotional state?</p>
  </div>","0","html-slider-response","32","531834","0.0-5.0-3.4","222","1","2025-07-23 13:25:06","1f75c3e559b7213887762d5229550c2b","41.150.225.117","Mozilla/5.0 (Windows NT 10.0; Win64; x64) AppleWebKit/537.36 (KHTML, like Gecko) Chrome/138.0.0.0 Safari/537.36","WebKit","Chrome","138.0.0.0","Windows","10.0","https://app.prolific.com/","en-US,en;q=0.9","6785052a054e7c96c09f69cd","683db9eb0562dbf637994deb","6880e1aa1a41d16149988670","2","1","6785052a054e7c96c09f69cd","2","1","2025-07-23T13:33:59.372Z","","","","","","","","","","","StressQ","","50","","","","","","","","","","","","","","","","","","","","","","","","","","","","",""
"3295","","<div style=""width:500px;"">
  <p>What best describes how you currently feel?</p>
  </div>","100","html-slider-response","33","535131","0.0-5.0-4.4","222","1","2025-07-23 13:25:06","1f75c3e559b7213887762d5229550c2b","41.150.225.117","Mozilla/5.0 (Windows NT 10.0; Win64; x64) AppleWebKit/537.36 (KHTML, like Gecko) Chrome/138.0.0.0 Safari/537.36","WebKit","Chrome","138.0.0.0","Windows","10.0","https://app.prolific.com/","en-US,en;q=0.9","6785052a054e7c96c09f69cd","683db9eb0562dbf637994deb","6880e1aa1a41d16149988670","2","1","6785052a054e7c96c09f69cd","2","1","2025-07-23T13:34:02.670Z","","","","","","","","","","","MotivationQ","","50","","","","","","","","","","","","","","","","","","","","","","","","","","","","",""
"","","","","ctl-task-cpt","34","575597","0.0-5.0-0.5","222","1","2025-07-23 13:25:06","1f75c3e559b7213887762d5229550c2b","41.150.225.117","Mozilla/5.0 (Windows NT 10.0; Win64; x64) AppleWebKit/537.36 (KHTML, like Gecko) Chrome/138.0.0.0 Safari/537.36","WebKit","Chrome","138.0.0.0","Windows","10.0","https://app.prolific.com/","en-US,en;q=0.9","6785052a054e7c96c09f69cd","683db9eb0562dbf637994deb","6880e1aa1a41d16149988670","2","1","6785052a054e7c96c09f69cd","2","1","2025-07-23T13:34:43.135Z","","","","","","","","","","","","","","win-only","2","g1:SE,g2:NW","0.5","6","0","538328.8","1188.3","6193","37443.9","1","4","4","6","2","-4","-5","4","9","0.030303030303030304","2069.5","3000","-2225","[""left"",""up""]","{""num_key_presses"":8,""num_perfect"":4,""num_errors"":1,""num_randdir"":3,""num_randdir_good_moves"":0,""num_whilered"":0,""num_whileblue"":1,""num_blue"":3,""num_good_moves"":5}","[415.07142857142856,410.1808016640799,0.2,415.07142857142856,410.1808016640799,112.6,415.07142857142856,410.1808016640799,218.9,415.07142857142856,410.1808016640799,320.9,416.57142857142856,411.6808016640799,423.5,416.57142857142856,411.6808016640799,525.2,416.57142857142856,411.6808016640799,630,425.57142857142856,414.6808016640799,730.9,449.57142857142856,431.1808016640799,841.2,263.57142857142856,228.68080166407992,944.5,194.57142857142856,101.18080166407994,1049.9,194.57142857142856,125.18080166407994,1160.8,329.57142857142856,315.6808016640799,1264.9,584.5714285714286,548.1808016640799,1373.6,608.5714285714286,563.1808016640799,1476,380.57142857142856,374.1808016640799,1598.8,110.57142857142857,126.68080166407994,1703,58.07142857142857,92.18080166407994,1804,29.57142857142857,93.68080166407994,1919.8,29.57142857142857,92.18080166407994,2022.4,29.57142857142857,92.18080166407994,2122.6,29.57142857142857,92.18080166407994,2223.3,68.57142857142857,132.68080166407992,2330.1,43.07142857142857,317.1808016640799,2449.2,-159.42857142857144,365.1808016640799,2552.6,-277.92857142857144,392.1808016640799,2654.4,-277.92857142857144,392.1808016640799,2755.8,-277.92857142857144,392.1808016640799,2875.2,-277.92857142857144,392.1808016640799,3002.5,-277.92857142857144,392.1808016640799,3103.8,-277.92857142857144,392.1808016640799,3204.2,-277.92857142857144,392.1808016640799,3304.9,-277.92857142857144,392.1808016640799,3412.1,-277.92857142857144,392.1808016640799,3520.5,-277.92857142857144,392.1808016640799,3625.3,-277.92857142857144,392.1808016640799,3728.2,-277.92857142857144,392.1808016640799,3828.5,-277.92857142857144,392.1808016640799,3928.7,-277.92857142857144,392.1808016640799,4041.2,-277.92857142857144,392.1808016640799,4143.1,-277.92857142857144,392.1808016640799,4243.5,-277.92857142857144,392.1808016640799,4343.5,-277.92857142857144,392.1808016640799,4453.6,-277.92857142857144,392.1808016640799,4553.9,-277.92857142857144,392.1808016640799,4657.9,-277.92857142857144,392.1808016640799,4758.1,-277.92857142857144,392.1808016640799,4858.7,-277.92857142857144,392.1808016640799,4962.9]","[1486.3,1486.3,1000,0,486.3,""smooth"",""up"",""up"",""good_move"",4628.5,3141.7,2560.4,1486.8,581.3,""oops"",""up"",""down"",""bad_move"",7552.8,2923.6,2028.3,4629.2,895.3,""smooth"",""up"",""up"",""good_move"",10182.6,2629.5,2193.1,7553.1,436.4,""oops"",""up"",""down"",""bad_move"",13077.8,2894.8,2481.9,10183,412.9,""smooth"",""left"",""left"",""good_move"",15475.8,2397.5,1866.2,13078.3,531.3,""smooth"",""left"",""left"",""good_move"",18046.5,2570.4,2191.9,15476.1,378.5,""while_blue"",""up"",""up"",""good_move"",24043.4,5994.6,2038.3,21400.9,604.2,""oops"",""up"",""right"",""bad_move""]","",""
"4975","","<div style=""width:500px;"">
  <p>What determined the result of this run?</p>
  </div>","0","html-slider-response","35","580574","0.0-5.0-1.5","222","1","2025-07-23 13:25:06","1f75c3e559b7213887762d5229550c2b","41.150.225.117","Mozilla/5.0 (Windows NT 10.0; Win64; x64) AppleWebKit/537.36 (KHTML, like Gecko) Chrome/138.0.0.0 Safari/537.36","WebKit","Chrome","138.0.0.0","Windows","10.0","https://app.prolific.com/","en-US,en;q=0.9","6785052a054e7c96c09f69cd","683db9eb0562dbf637994deb","6880e1aa1a41d16149988670","2","1","6785052a054e7c96c09f69cd","2","1","2025-07-23T13:34:48.112Z","","","","","","","","","","","AttribQ","","50","","","","","","","","","","","","","","","","","","","","","","","","","","","","",""
"4223","","<div style=""width:500px;"">
  <p>How much control did you have over the ball?</p>
  </div>","0","html-slider-response","36","584802","0.0-5.0-2.5","222","1","2025-07-23 13:25:06","1f75c3e559b7213887762d5229550c2b","41.150.225.117","Mozilla/5.0 (Windows NT 10.0; Win64; x64) AppleWebKit/537.36 (KHTML, like Gecko) Chrome/138.0.0.0 Safari/537.36","WebKit","Chrome","138.0.0.0","Windows","10.0","https://app.prolific.com/","en-US,en;q=0.9","6785052a054e7c96c09f69cd","683db9eb0562dbf637994deb","6880e1aa1a41d16149988670","2","1","6785052a054e7c96c09f69cd","2","1","2025-07-23T13:34:52.340Z","","","","","","","","","","","ControlQ","","50","","","","","","","","","","","","","","","","","","","","","","","","","","","","",""
"3298","","<div style=""width:500px;"">
  <p>How would you describe your current emotional state?</p>
  </div>","100","html-slider-response","37","588101","0.0-5.0-3.5","222","1","2025-07-23 13:25:06","1f75c3e559b7213887762d5229550c2b","41.150.225.117","Mozilla/5.0 (Windows NT 10.0; Win64; x64) AppleWebKit/537.36 (KHTML, like Gecko) Chrome/138.0.0.0 Safari/537.36","WebKit","Chrome","138.0.0.0","Windows","10.0","https://app.prolific.com/","en-US,en;q=0.9","6785052a054e7c96c09f69cd","683db9eb0562dbf637994deb","6880e1aa1a41d16149988670","2","1","6785052a054e7c96c09f69cd","2","1","2025-07-23T13:34:55.639Z","","","","","","","","","","","StressQ","","50","","","","","","","","","","","","","","","","","","","","","","","","","","","","",""
"5840","","<div style=""width:500px;"">
  <p>What best describes how you currently feel?</p>
  </div>","0","html-slider-response","38","593942","0.0-5.0-4.5","222","1","2025-07-23 13:25:06","1f75c3e559b7213887762d5229550c2b","41.150.225.117","Mozilla/5.0 (Windows NT 10.0; Win64; x64) AppleWebKit/537.36 (KHTML, like Gecko) Chrome/138.0.0.0 Safari/537.36","WebKit","Chrome","138.0.0.0","Windows","10.0","https://app.prolific.com/","en-US,en;q=0.9","6785052a054e7c96c09f69cd","683db9eb0562dbf637994deb","6880e1aa1a41d16149988670","2","1","6785052a054e7c96c09f69cd","2","1","2025-07-23T13:35:01.480Z","","","","","","","","","","","MotivationQ","","50","","","","","","","","","","","","","","","","","","","","","","","","","","","","",""
"","","","","ctl-task-cpt","39","626208","0.0-5.0-0.6","222","1","2025-07-23 13:25:06","1f75c3e559b7213887762d5229550c2b","41.150.225.117","Mozilla/5.0 (Windows NT 10.0; Win64; x64) AppleWebKit/537.36 (KHTML, like Gecko) Chrome/138.0.0.0 Safari/537.36","WebKit","Chrome","138.0.0.0","Windows","10.0","https://app.prolific.com/","en-US,en;q=0.9","6785052a054e7c96c09f69cd","683db9eb0562dbf637994deb","6880e1aa1a41d16149988670","2","1","6785052a054e7c96c09f69cd","2","1","2025-07-23T13:35:33.746Z","","","","","","","","","","","","","","win-only","2","g1:SE,g2:NW","0.4","7","0","597140.1","3245","8250.3","29247.4","1","4","8","6","1","1","1","5","4","0.03787878787878788","1763.3","3000","1780","[""down"",""right""]","{""num_key_presses"":4,""num_perfect"":2,""num_errors"":0,""num_randdir"":2,""num_randdir_good_moves"":2,""num_whilered"":0,""num_whileblue"":0,""num_blue"":3,""num_good_moves"":4}","[407.57142857142856,416.1808016640799,0.4,407.57142857142856,416.1808016640799,135.7,407.57142857142856,416.1808016640799,253.7,407.57142857142856,416.1808016640799,373.4,407.57142857142856,416.1808016640799,496.9,407.57142857142856,416.1808016640799,597.7,407.57142857142856,416.1808016640799,711.2,407.57142857142856,416.1808016640799,820.5,407.57142857142856,414.6808016640799,931.4,407.57142857142856,414.6808016640799,1033,412.07142857142856,428.1808016640799,1136,581.5714285714286,549.6808016640799,1240.9,712.0714285714286,659.1808016640799,1343.4,760.0714285714286,692.1808016640799,1447.1,763.0714285714286,722.1808016640799,1548.1,770.5714285714286,752.1808016640799,1654.5,770.5714285714286,752.1808016640799,1762.7,770.5714285714286,752.1808016640799,1869.8,770.5714285714286,752.1808016640799,1989.9,770.5714285714286,752.1808016640799,2092.2,770.5714285714286,752.1808016640799,2193.7,770.5714285714286,752.1808016640799,2300.6,770.5714285714286,752.1808016640799,2404.8,872.5714285714286,719.1808016640799,2508.2,932.5714285714286,696.6808016640799,2609.5,1013.5714285714286,674.1808016640799,2713.9,1013.5714285714286,674.1808016640799,2825.2,1013.5714285714286,674.1808016640799,2925.5,1013.5714285714286,674.1808016640799,3029.2,1013.5714285714286,674.1808016640799,3130.8,1013.5714285714286,674.1808016640799,3233.2,1013.5714285714286,674.1808016640799,3334.8,1013.5714285714286,674.1808016640799,3448.3,1013.5714285714286,674.1808016640799,3562.8,1013.5714285714286,674.1808016640799,3663.8,1013.5714285714286,674.1808016640799,3766.8,1013.5714285714286,674.1808016640799,3870,1013.5714285714286,674.1808016640799,3973.3,1013.5714285714286,674.1808016640799,4080,1013.5714285714286,674.1808016640799,4190.1,1013.5714285714286,674.1808016640799,4296.5,1013.5714285714286,674.1808016640799,4414.7,1013.5714285714286,674.1808016640799,4530.8,1013.5714285714286,674.1808016640799,4634.5,1013.5714285714286,674.1808016640799,4738.5,1013.5714285714286,674.1808016640799,4838.5,1013.5714285714286,674.1808016640799,4938.7]","[5841.6,5841.7,3319.2,2004.8,517.7,""smooth"",""right"",""right"",""good_move"",8958.3,3115.7,2571.4,5842.7,544.2,""smooth"",""right"",""right"",""good_move"",14458.2,5499.3,2374.9,11507.1,576.2,""oops"",""down"",""down"",""good_move"",20813.5,6354.8,2179.2,18172.4,461.9,""oops"",""down"",""down"",""good_move""]","",""
"5325","","<div style=""width:500px;"">
  <p>What determined the result of this run?</p>
  </div>","100","html-slider-response","40","631534","0.0-5.0-1.6","222","1","2025-07-23 13:25:06","1f75c3e559b7213887762d5229550c2b","41.150.225.117","Mozilla/5.0 (Windows NT 10.0; Win64; x64) AppleWebKit/537.36 (KHTML, like Gecko) Chrome/138.0.0.0 Safari/537.36","WebKit","Chrome","138.0.0.0","Windows","10.0","https://app.prolific.com/","en-US,en;q=0.9","6785052a054e7c96c09f69cd","683db9eb0562dbf637994deb","6880e1aa1a41d16149988670","2","1","6785052a054e7c96c09f69cd","2","1","2025-07-23T13:35:39.072Z","","","","","","","","","","","AttribQ","","50","","","","","","","","","","","","","","","","","","","","","","","","","","","","",""
"4270","","<div style=""width:500px;"">
  <p>How much control did you have over the ball?</p>
  </div>","100","html-slider-response","41","635808","0.0-5.0-2.6","222","1","2025-07-23 13:25:06","1f75c3e559b7213887762d5229550c2b","41.150.225.117","Mozilla/5.0 (Windows NT 10.0; Win64; x64) AppleWebKit/537.36 (KHTML, like Gecko) Chrome/138.0.0.0 Safari/537.36","WebKit","Chrome","138.0.0.0","Windows","10.0","https://app.prolific.com/","en-US,en;q=0.9","6785052a054e7c96c09f69cd","683db9eb0562dbf637994deb","6880e1aa1a41d16149988670","2","1","6785052a054e7c96c09f69cd","2","1","2025-07-23T13:35:43.347Z","","","","","","","","","","","ControlQ","","50","","","","","","","","","","","","","","","","","","","","","","","","","","","","",""
"5627","","<div style=""width:500px;"">
  <p>How would you describe your current emotional state?</p>
  </div>","100","html-slider-response","42","641441","0.0-5.0-3.6","222","1","2025-07-23 13:25:06","1f75c3e559b7213887762d5229550c2b","41.150.225.117","Mozilla/5.0 (Windows NT 10.0; Win64; x64) AppleWebKit/537.36 (KHTML, like Gecko) Chrome/138.0.0.0 Safari/537.36","WebKit","Chrome","138.0.0.0","Windows","10.0","https://app.prolific.com/","en-US,en;q=0.9","6785052a054e7c96c09f69cd","683db9eb0562dbf637994deb","6880e1aa1a41d16149988670","2","1","6785052a054e7c96c09f69cd","2","1","2025-07-23T13:35:48.983Z","","","","","","","","","","","StressQ","","50","","","","","","","","","","","","","","","","","","","","","","","","","","","","",""
"6665","","<div style=""width:500px;"">
  <p>What best describes how you currently feel?</p>
  </div>","100","html-slider-response","43","648116","0.0-5.0-4.6","222","1","2025-07-23 13:25:06","1f75c3e559b7213887762d5229550c2b","41.150.225.117","Mozilla/5.0 (Windows NT 10.0; Win64; x64) AppleWebKit/537.36 (KHTML, like Gecko) Chrome/138.0.0.0 Safari/537.36","WebKit","Chrome","138.0.0.0","Windows","10.0","https://app.prolific.com/","en-US,en;q=0.9","6785052a054e7c96c09f69cd","683db9eb0562dbf637994deb","6880e1aa1a41d16149988670","2","1","6785052a054e7c96c09f69cd","2","1","2025-07-23T13:35:55.654Z","","","","","","","","","","","MotivationQ","","50","","","","","","","","","","","","","","","","","","","","","","","","","","","","",""
"","","","","ctl-task-cpt","44","702906","0.0-5.0-0.7","222","1","2025-07-23 13:25:06","1f75c3e559b7213887762d5229550c2b","41.150.225.117","Mozilla/5.0 (Windows NT 10.0; Win64; x64) AppleWebKit/537.36 (KHTML, like Gecko) Chrome/138.0.0.0 Safari/537.36","WebKit","Chrome","138.0.0.0","Windows","10.0","https://app.prolific.com/","en-US,en;q=0.9","6785052a054e7c96c09f69cd","683db9eb0562dbf637994deb","6880e1aa1a41d16149988670","2","1","6785052a054e7c96c09f69cd","2","1","2025-07-23T13:36:50.444Z","","","","","","","","","","","","","","win-only","2","g1:SE,g2:NW","0.3","8","0","651315.2","24474.9","29484.4","51773.9","1","4","4","6","2","-4","-4","1","5","0.007575757575757576","1710.9","3000","-1665","[""left"",""up""]","{""num_key_presses"":2,""num_perfect"":1,""num_errors"":0,""num_randdir"":1,""num_randdir_good_moves"":1,""num_whilered"":0,""num_whileblue"":0,""num_blue"":3,""num_good_moves"":2}","[410.57142857142856,408.6808016640799,1.1,410.57142857142856,408.6808016640799,113.5,410.57142857142856,408.6808016640799,225.5,410.57142857142856,408.6808016640799,328.8,410.57142857142856,408.6808016640799,431.9,410.57142857142856,408.6808016640799,534.1,410.57142857142856,408.6808016640799,655.9,410.57142857142856,408.6808016640799,762.9,410.57142857142856,408.6808016640799,865,410.57142857142856,408.6808016640799,979.5,410.57142857142856,408.6808016640799,1080.9,295.07142857142856,293.1808016640799,1182.9,188.57142857142856,144.68080166407992,1307.6,160.07142857142856,119.18080166407994,1425.7,119.57142857142857,104.18080166407994,1526.2,104.57142857142857,96.68080166407994,1632.6,104.57142857142857,96.68080166407994,1738.1,104.57142857142857,96.68080166407994,1838.4,104.57142857142857,96.68080166407994,1944.5,104.57142857142857,96.68080166407994,2047,104.57142857142857,96.68080166407994,2147.6,104.57142857142857,96.68080166407994,2250.2,104.57142857142857,96.68080166407994,2351.1,104.57142857142857,96.68080166407994,2456.1,104.57142857142857,96.68080166407994,2559,104.57142857142857,96.68080166407994,2662.9,104.57142857142857,96.68080166407994,2763.6,104.57142857142857,96.68080166407994,2865.6,104.57142857142857,96.68080166407994,2966.6,104.57142857142857,96.68080166407994,3082.4,104.57142857142857,96.68080166407994,3182.9,104.57142857142857,96.68080166407994,3285.7,104.57142857142857,96.68080166407994,3394.6,104.57142857142857,96.68080166407994,3496.4,104.57142857142857,96.68080166407994,3598.6,104.57142857142857,96.68080166407994,3702.4,104.57142857142857,96.68080166407994,3806,104.57142857142857,96.68080166407994,3908.8,104.57142857142857,96.68080166407994,4012.4,104.57142857142857,96.68080166407994,4114,104.57142857142857,96.68080166407994,4216,104.57142857142857,96.68080166407994,4326.1,104.57142857142857,96.68080166407994,4426.3,104.57142857142857,96.68080166407994,4534,104.57142857142857,96.68080166407994,4638.2,104.57142857142857,96.68080166407994,4748.3,104.57142857142857,96.68080166407994,4854,104.57142857142857,96.68080166407994,4956.9]","[1571.3,1571.3,1000,0,571.3,""smooth"",""up"",""up"",""good_move"",12356.6,10784.8,2827,8606.6,923,""oops"",""up"",""left"",""good_move""]","",""
"7197","","<div style=""width:500px;"">
  <p>What determined the result of this run?</p>
  </div>","100","html-slider-response","45","710106","0.0-5.0-1.7","222","1","2025-07-23 13:25:06","1f75c3e559b7213887762d5229550c2b","41.150.225.117","Mozilla/5.0 (Windows NT 10.0; Win64; x64) AppleWebKit/537.36 (KHTML, like Gecko) Chrome/138.0.0.0 Safari/537.36","WebKit","Chrome","138.0.0.0","Windows","10.0","https://app.prolific.com/","en-US,en;q=0.9","6785052a054e7c96c09f69cd","683db9eb0562dbf637994deb","6880e1aa1a41d16149988670","2","1","6785052a054e7c96c09f69cd","2","1","2025-07-23T13:36:57.644Z","","","","","","","","","","","AttribQ","","50","","","","","","","","","","","","","","","","","","","","","","","","","","","","",""
"5803","","<div style=""width:500px;"">
  <p>How much control did you have over the ball?</p>
  </div>","0","html-slider-response","46","715913","0.0-5.0-2.7","222","1","2025-07-23 13:25:06","1f75c3e559b7213887762d5229550c2b","41.150.225.117","Mozilla/5.0 (Windows NT 10.0; Win64; x64) AppleWebKit/537.36 (KHTML, like Gecko) Chrome/138.0.0.0 Safari/537.36","WebKit","Chrome","138.0.0.0","Windows","10.0","https://app.prolific.com/","en-US,en;q=0.9","6785052a054e7c96c09f69cd","683db9eb0562dbf637994deb","6880e1aa1a41d16149988670","2","1","6785052a054e7c96c09f69cd","2","1","2025-07-23T13:37:03.453Z","","","","","","","","","","","ControlQ","","50","","","","","","","","","","","","","","","","","","","","","","","","","","","","",""
"4135","","<div style=""width:500px;"">
  <p>How would you describe your current emotional state?</p>
  </div>","100","html-slider-response","47","720054","0.0-5.0-3.7","222","1","2025-07-23 13:25:06","1f75c3e559b7213887762d5229550c2b","41.150.225.117","Mozilla/5.0 (Windows NT 10.0; Win64; x64) AppleWebKit/537.36 (KHTML, like Gecko) Chrome/138.0.0.0 Safari/537.36","WebKit","Chrome","138.0.0.0","Windows","10.0","https://app.prolific.com/","en-US,en;q=0.9","6785052a054e7c96c09f69cd","683db9eb0562dbf637994deb","6880e1aa1a41d16149988670","2","1","6785052a054e7c96c09f69cd","2","1","2025-07-23T13:37:07.592Z","","","","","","","","","","","StressQ","","50","","","","","","","","","","","","","","","","","","","","","","","","","","","","",""
"193214","","<div style=""width:500px;"">
  <p>What best describes how you currently feel?</p>
  </div>","0","html-slider-response","48","913270","0.0-5.0-4.7","222","1","2025-07-23 13:25:06","1f75c3e559b7213887762d5229550c2b","41.150.225.117","Mozilla/5.0 (Windows NT 10.0; Win64; x64) AppleWebKit/537.36 (KHTML, like Gecko) Chrome/138.0.0.0 Safari/537.36","WebKit","Chrome","138.0.0.0","Windows","10.0","https://app.prolific.com/","en-US,en;q=0.9","6785052a054e7c96c09f69cd","683db9eb0562dbf637994deb","6880e1aa1a41d16149988670","2","1","6785052a054e7c96c09f69cd","2","1","2025-07-23T13:40:20.809Z","","","","","","","","","","","MotivationQ","","50","","","","","","","","","","","","","","","","","","","","","","","","","","","","",""
"","","","","ctl-task-cpt","49","955742","0.0-5.0-0.8","222","1","2025-07-23 13:25:06","1f75c3e559b7213887762d5229550c2b","41.150.225.117","Mozilla/5.0 (Windows NT 10.0; Win64; x64) AppleWebKit/537.36 (KHTML, like Gecko) Chrome/138.0.0.0 Safari/537.36","WebKit","Chrome","138.0.0.0","Windows","10.0","https://app.prolific.com/","en-US,en;q=0.9","6785052a054e7c96c09f69cd","683db9eb0562dbf637994deb","6880e1aa1a41d16149988670","2","1","6785052a054e7c96c09f69cd","2","1","2025-07-23T13:41:03.281Z","","","","","","","","","","","","","","win-only","2","g1:SE,g2:NW","0.2","9","0","916471.5","1935.9","6944.2","39434","1","4","8","6","2","-8","-9","0","1","0","1382.7","3000","-1835","[""left"",""up""]","{""num_key_presses"":10,""num_perfect"":2,""num_errors"":1,""num_randdir"":7,""num_randdir_good_moves"":3,""num_whilered"":0,""num_whileblue"":0,""num_blue"":1,""num_good_moves"":5}","[419.57142857142856,414.6808016640799,0.3,419.57142857142856,414.6808016640799,101.1,419.57142857142856,414.6808016640799,209.9,419.57142857142856,414.6808016640799,315.3,419.57142857142856,414.6808016640799,424.9,419.57142857142856,414.6808016640799,527,419.57142857142856,414.6808016640799,631.5,419.57142857142856,414.6808016640799,734.3,349.07142857142856,366.6808016640799,843.5,-15.42857142857143,114.68080166407994,955.6,-9.42857142857143,110.18080166407994,1061.2,41.57142857142857,111.68080166407994,1161.6,44.57142857142857,99.68080166407994,1294.3,44.57142857142857,96.68080166407994,1396.4,44.57142857142857,96.68080166407994,1501.7,44.57142857142857,96.68080166407994,1604.8,-36.42857142857143,134.18080166407992,1725.3,-133.92857142857144,171.68080166407992,1845.3,-138.42857142857144,176.18080166407992,1947.1,-138.42857142857144,176.18080166407992,2049.7,-138.42857142857144,176.18080166407992,2149.7,-138.42857142857144,176.18080166407992,2249.8,-138.42857142857144,176.18080166407992,2352,-138.42857142857144,176.18080166407992,2465.1,-138.42857142857144,176.18080166407992,2570.7,-138.42857142857144,176.18080166407992,2699.7,-138.42857142857144,176.18080166407992,2803.4,-138.42857142857144,176.18080166407992,2905.1,-138.42857142857144,176.18080166407992,3025.2,-138.42857142857144,176.18080166407992,3125.6,-138.42857142857144,176.18080166407992,3232.4,-138.42857142857144,176.18080166407992,3345.3,-138.42857142857144,176.18080166407992,3458.1,-138.42857142857144,176.18080166407992,3560.5,-138.42857142857144,176.18080166407992,3664.9,-138.42857142857144,176.18080166407992,3768.8,-138.42857142857144,176.18080166407992,3870.5,-138.42857142857144,176.18080166407992,3975.7,-138.42857142857144,176.18080166407992,4081.7,-138.42857142857144,176.18080166407992,4186.7,-138.42857142857144,176.18080166407992,4293,-138.42857142857144,176.18080166407992,4397.2,-138.42857142857144,176.18080166407992,4497.2,-138.42857142857144,176.18080166407992,4600.1,-138.42857142857144,176.18080166407992,4707,-138.42857142857144,176.18080166407992,4810.6,-138.42857142857144,176.18080166407992,4931.1]","[1492.3,1492.3,1000,0,492.3,""smooth"",""up"",""up"",""good_move"",4122.7,2629.7,1841.8,1493,787.9,""oops"",""left"",""up"",""good_move"",6576.2,2453.2,1922,4123,531.2,""oops"",""left"",""right"",""bad_move"",9622.9,3046.1,2647,6576.8,399.1,""oops"",""up"",""down"",""bad_move"",12294.2,2670.5,2171.5,9623.7,499,""oops"",""left"",""down"",""bad_move"",15316.7,3022.2,2631.1,12294.5,391.1,""oops"",""up"",""down"",""bad_move"",18016.6,2699.7,2303.1,15316.9,396.6,""smooth"",""left"",""left"",""good_move"",21888.2,3871.1,2566.7,21377.3,-2055.8,""error"",""-"",""-"",""no_move"",25759.2,3870.7,2249.4,22889.5,620.3,""oops"",""left"",""up"",""good_move"",29317.8,3558.2,2753.5,25759.7,804.7,""oops"",""left"",""up"",""good_move""]","",""
"11637","","<div style=""width:500px;"">
  <p>What determined the result of this run?</p>
  </div>","0","html-slider-response","50","967381","0.0-5.0-1.8","222","1","2025-07-23 13:25:06","1f75c3e559b7213887762d5229550c2b","41.150.225.117","Mozilla/5.0 (Windows NT 10.0; Win64; x64) AppleWebKit/537.36 (KHTML, like Gecko) Chrome/138.0.0.0 Safari/537.36","WebKit","Chrome","138.0.0.0","Windows","10.0","https://app.prolific.com/","en-US,en;q=0.9","6785052a054e7c96c09f69cd","683db9eb0562dbf637994deb","6880e1aa1a41d16149988670","2","1","6785052a054e7c96c09f69cd","2","1","2025-07-23T13:41:14.919Z","","","","","","","","","","","AttribQ","","50","","","","","","","","","","","","","","","","","","","","","","","","","","","","",""
"12378","","<div style=""width:500px;"">
  <p>How much control did you have over the ball?</p>
  </div>","100","html-slider-response","51","979761","0.0-5.0-2.8","222","1","2025-07-23 13:25:06","1f75c3e559b7213887762d5229550c2b","41.150.225.117","Mozilla/5.0 (Windows NT 10.0; Win64; x64) AppleWebKit/537.36 (KHTML, like Gecko) Chrome/138.0.0.0 Safari/537.36","WebKit","Chrome","138.0.0.0","Windows","10.0","https://app.prolific.com/","en-US,en;q=0.9","6785052a054e7c96c09f69cd","683db9eb0562dbf637994deb","6880e1aa1a41d16149988670","2","1","6785052a054e7c96c09f69cd","2","1","2025-07-23T13:41:27.300Z","","","","","","","","","","","ControlQ","","50","","","","","","","","","","","","","","","","","","","","","","","","","","","","",""
"7471","","<div style=""width:500px;"">
  <p>How would you describe your current emotional state?</p>
  </div>","100","html-slider-response","52","987234","0.0-5.0-3.8","222","1","2025-07-23 13:25:06","1f75c3e559b7213887762d5229550c2b","41.150.225.117","Mozilla/5.0 (Windows NT 10.0; Win64; x64) AppleWebKit/537.36 (KHTML, like Gecko) Chrome/138.0.0.0 Safari/537.36","WebKit","Chrome","138.0.0.0","Windows","10.0","https://app.prolific.com/","en-US,en;q=0.9","6785052a054e7c96c09f69cd","683db9eb0562dbf637994deb","6880e1aa1a41d16149988670","2","1","6785052a054e7c96c09f69cd","2","1","2025-07-23T13:41:34.773Z","","","","","","","","","","","StressQ","","50","","","","","","","","","","","","","","","","","","","","","","","","","","","","",""
"8287","","<div style=""width:500px;"">
  <p>What best describes how you currently feel?</p>
  </div>","0","html-slider-response","53","995523","0.0-5.0-4.8","222","1","2025-07-23 13:25:06","1f75c3e559b7213887762d5229550c2b","41.150.225.117","Mozilla/5.0 (Windows NT 10.0; Win64; x64) AppleWebKit/537.36 (KHTML, like Gecko) Chrome/138.0.0.0 Safari/537.36","WebKit","Chrome","138.0.0.0","Windows","10.0","https://app.prolific.com/","en-US,en;q=0.9","6785052a054e7c96c09f69cd","683db9eb0562dbf637994deb","6880e1aa1a41d16149988670","2","1","6785052a054e7c96c09f69cd","2","1","2025-07-23T13:41:43.061Z","","","","","","","","","","","MotivationQ","","50","","","","","","","","","","","","","","","","","","","","","","","","","","","","",""
"","","","","ctl-task-cpt","54","1029907","0.0-5.0-0.9","222","1","2025-07-23 13:25:06","1f75c3e559b7213887762d5229550c2b","41.150.225.117","Mozilla/5.0 (Windows NT 10.0; Win64; x64) AppleWebKit/537.36 (KHTML, like Gecko) Chrome/138.0.0.0 Safari/537.36","WebKit","Chrome","138.0.0.0","Windows","10.0","https://app.prolific.com/","en-US,en;q=0.9","6785052a054e7c96c09f69cd","683db9eb0562dbf637994deb","6880e1aa1a41d16149988670","2","1","6785052a054e7c96c09f69cd","2","1","2025-07-23T13:42:17.446Z","","","","","","","","","","","","","","win-only","3","g1:SW,g2:NE","0.4","10","0","998720.8","7904.7","12910.3","31347.8","1","4","4","6","2","-4","-4","0","0","0","2451.4","3000","-1570","[""up"",""right""]","{""num_key_presses"":5,""num_perfect"":1,""num_errors"":0,""num_randdir"":4,""num_randdir_good_moves"":2,""num_whilered"":0,""num_whileblue"":0,""num_blue"":0,""num_good_moves"":3}","[409.07142857142856,416.1808016640799,0.3,409.07142857142856,416.1808016640799,100.4,409.07142857142856,416.1808016640799,202.3,409.07142857142856,416.1808016640799,306.5,409.07142857142856,416.1808016640799,413.4,409.07142857142856,416.1808016640799,515.3,409.07142857142856,416.1808016640799,615.5,409.07142857142856,416.1808016640799,719.8,409.07142857142856,416.1808016640799,831.8,254.57142857142856,639.6808016640799,936.9,83.57142857142857,837.6808016640799,1046.1,13.07142857142857,866.1808016640799,1149.4,5.571428571428569,866.1808016640799,1250,2.5714285714285694,866.1808016640799,1354.7,1.0714285714285694,866.1808016640799,1460.7,157.07142857142856,713.1808016640799,1563.3,373.07142857142856,408.6808016640799,1667.1,389.57142857142856,380.1808016640799,1767.7,713.5714285714286,285.6808016640799,1870.8,779.5714285714286,236.18080166407992,1973.8,791.5714285714286,186.68080166407992,2083.2,809.5714285714286,132.68080166407992,2189.2,805.0714285714286,101.18080166407994,2298.3,781.0714285714286,86.18080166407994,2404.4,779.5714285714286,84.68080166407994,2535.6,779.5714285714286,84.68080166407994,2636.4,782.5714285714286,90.68080166407994,2736.5,790.0714285714286,137.18080166407992,2836.9,775.0714285714286,296.1808016640799,2938.1,572.5714285714286,413.1808016640799,3041,353.57142857142856,417.6808016640799,3145.7,283.07142857142856,425.1808016640799,3258.8,226.07142857142856,407.1808016640799,3359.4,197.57142857142856,398.1808016640799,3463.5,197.57142857142856,398.1808016640799,3564,197.57142857142856,398.1808016640799,3671.7,197.57142857142856,398.1808016640799,3779.1,197.57142857142856,398.1808016640799,3879.1,197.57142857142856,398.1808016640799,3984.3,197.57142857142856,398.1808016640799,4086.2,197.57142857142856,398.1808016640799,4205.4,197.57142857142856,398.1808016640799,4305.7,197.57142857142856,398.1808016640799,4412.2,197.57142857142856,398.1808016640799,4516.2,197.57142857142856,398.1808016640799,4617.3,197.57142857142856,398.1808016640799,4720.8,197.57142857142856,398.1808016640799,4842,197.57142857142856,398.1808016640799,4942.2]","[1559.3,1559.3,1000,0,559.3,""oops"",""up"",""up"",""good_move"",4271.1,2711.3,1967.4,1559.8,743.9,""oops"",""up"",""down"",""bad_move"",7459.4,3188,2363.9,4271.5,824.1,""smooth"",""up"",""up"",""good_move"",10596,3136.3,2322.3,7459.7,814,""oops"",""up"",""right"",""good_move"",15102.6,4506.1,2725.8,10596.5,1780.3,""oops"",""up"",""down"",""bad_move""]","",""
"24318","","<div style=""width:500px;"">
  <p>What determined the result of this run?</p>
  </div>","0","html-slider-response","55","1054228","0.0-5.0-1.9","222","1","2025-07-23 13:25:06","1f75c3e559b7213887762d5229550c2b","41.150.225.117","Mozilla/5.0 (Windows NT 10.0; Win64; x64) AppleWebKit/537.36 (KHTML, like Gecko) Chrome/138.0.0.0 Safari/537.36","WebKit","Chrome","138.0.0.0","Windows","10.0","https://app.prolific.com/","en-US,en;q=0.9","6785052a054e7c96c09f69cd","683db9eb0562dbf637994deb","6880e1aa1a41d16149988670","2","1","6785052a054e7c96c09f69cd","2","1","2025-07-23T13:42:41.767Z","","","","","","","","","","","AttribQ","","50","","","","","","","","","","","","","","","","","","","","","","","","","","","","",""
"7300","","<div style=""width:500px;"">
  <p>How much control did you have over the ball?</p>
  </div>","0","html-slider-response","56","1061536","0.0-5.0-2.9","222","1","2025-07-23 13:25:06","1f75c3e559b7213887762d5229550c2b","41.150.225.117","Mozilla/5.0 (Windows NT 10.0; Win64; x64) AppleWebKit/537.36 (KHTML, like Gecko) Chrome/138.0.0.0 Safari/537.36","WebKit","Chrome","138.0.0.0","Windows","10.0","https://app.prolific.com/","en-US,en;q=0.9","6785052a054e7c96c09f69cd","683db9eb0562dbf637994deb","6880e1aa1a41d16149988670","2","1","6785052a054e7c96c09f69cd","2","1","2025-07-23T13:42:49.075Z","","","","","","","","","","","ControlQ","","50","","","","","","","","","","","","","","","","","","","","","","","","","","","","",""
"2965","","<div style=""width:500px;"">
  <p>How would you describe your current emotional state?</p>
  </div>","100","html-slider-response","57","1064504","0.0-5.0-3.9","222","1","2025-07-23 13:25:06","1f75c3e559b7213887762d5229550c2b","41.150.225.117","Mozilla/5.0 (Windows NT 10.0; Win64; x64) AppleWebKit/537.36 (KHTML, like Gecko) Chrome/138.0.0.0 Safari/537.36","WebKit","Chrome","138.0.0.0","Windows","10.0","https://app.prolific.com/","en-US,en;q=0.9","6785052a054e7c96c09f69cd","683db9eb0562dbf637994deb","6880e1aa1a41d16149988670","2","1","6785052a054e7c96c09f69cd","2","1","2025-07-23T13:42:52.042Z","","","","","","","","","","","StressQ","","50","","","","","","","","","","","","","","","","","","","","","","","","","","","","",""
"11260","","<div style=""width:500px;"">
  <p>What best describes how you currently feel?</p>
  </div>","0","html-slider-response","58","1075766","0.0-5.0-4.9","222","1","2025-07-23 13:25:06","1f75c3e559b7213887762d5229550c2b","41.150.225.117","Mozilla/5.0 (Windows NT 10.0; Win64; x64) AppleWebKit/537.36 (KHTML, like Gecko) Chrome/138.0.0.0 Safari/537.36","WebKit","Chrome","138.0.0.0","Windows","10.0","https://app.prolific.com/","en-US,en;q=0.9","6785052a054e7c96c09f69cd","683db9eb0562dbf637994deb","6880e1aa1a41d16149988670","2","1","6785052a054e7c96c09f69cd","2","1","2025-07-23T13:43:03.305Z","","","","","","","","","","","MotivationQ","","50","","","","","","","","","","","","","","","","","","","","","","","","","","","","",""
"","","","","ctl-task-cpt","59","1135786","0.0-5.0-0.10","222","1","2025-07-23 13:25:06","1f75c3e559b7213887762d5229550c2b","41.150.225.117","Mozilla/5.0 (Windows NT 10.0; Win64; x64) AppleWebKit/537.36 (KHTML, like Gecko) Chrome/138.0.0.0 Safari/537.36","WebKit","Chrome","138.0.0.0","Windows","10.0","https://app.prolific.com/","en-US,en;q=0.9","6785052a054e7c96c09f69cd","683db9eb0562dbf637994deb","6880e1aa1a41d16149988670","2","1","6785052a054e7c96c09f69cd","2","1","2025-07-23T13:44:03.325Z","","","","","","","","","","","","","","win-only","2","g1:SE,g2:NW","0.5","11","0","1078970.4","14276.6","19294.1","56976.4","1","4","8","6","2","8","8","8","0","0.06060606060606061","1772.3","3000","1530","[""left"",""up""]","{""num_key_presses"":8,""num_perfect"":4,""num_errors"":0,""num_randdir"":4,""num_randdir_good_moves"":3,""num_whilered"":0,""num_whileblue"":0,""num_blue"":3,""num_good_moves"":7}","[413.57142857142856,404.1808016640799,0.4,413.57142857142856,404.1808016640799,100.2,413.57142857142856,404.1808016640799,213.2,413.57142857142856,404.1808016640799,314,413.57142857142856,404.1808016640799,417.8,413.57142857142856,404.1808016640799,521.9,413.57142857142856,404.1808016640799,623.5,395.57142857142856,417.6808016640799,733.2,370.07142857142856,425.1808016640799,839.8,191.57142857142856,350.1808016640799,946.3,-18.42857142857143,237.68080166407992,1050.5,-15.42857142857143,191.18080166407992,1159,5.571428571428569,155.18080166407992,1267.7,17.57142857142857,135.68080166407992,1377.4,17.57142857142857,116.18080166407994,1488.5,20.57142857142857,105.68080166407994,1600.5,22.07142857142857,104.18080166407994,1706.6,22.07142857142857,104.18080166407994,1819.5,22.07142857142857,104.18080166407994,1922.2,23.57142857142857,102.68080166407994,2033.6,23.57142857142857,102.68080166407994,2135.8,-75.42857142857143,152.18080166407992,2239.3,-108.42857142857143,215.18080166407992,2341.7,-120.42857142857143,248.18080166407992,2442.7,163.07142857142856,245.18080166407992,2550.5,163.07142857142856,245.18080166407992,2655.2,163.07142857142856,245.18080166407992,2765.7,163.07142857142856,236.18080166407992,2873,118.07142857142857,252.68080166407992,2982.4,-138.42857142857144,368.1808016640799,3090.2,-303.42857142857144,420.6808016640799,3190.5,-303.42857142857144,419.1808016640799,3296.2,-295.92857142857144,407.1808016640799,3404.7,-285.42857142857144,395.1808016640799,3517.9,-282.42857142857144,392.1808016640799,3619.5,-282.42857142857144,383.1808016640799,3721.5,-282.42857142857144,377.1808016640799,3833.9,-282.42857142857144,377.1808016640799,3944.5,-282.42857142857144,377.1808016640799,4049,-282.42857142857144,377.1808016640799,4164.8,-282.42857142857144,377.1808016640799,4265.7,-282.42857142857144,377.1808016640799,4367.6,-282.42857142857144,377.1808016640799,4470.7,-282.42857142857144,377.1808016640799,4583.5,-282.42857142857144,377.1808016640799,4684.3,-282.42857142857144,377.1808016640799,4802.1,-282.42857142857144,377.1808016640799,4906.2]","[9645.2,9645.2,2744.6,6264.9,635.7,""smooth"",""left"",""left"",""good_move"",16532.3,6886.5,2781.9,13219,531.4,""smooth"",""left"",""left"",""good_move"",20397.5,3865,3163.3,16532.5,701.7,""oops"",""left"",""up"",""good_move"",23802.4,3404.5,1573,20398,1831.5,""oops"",""left"",""down"",""bad_move"",26726.7,2923.7,2427.4,23803,496.3,""oops"",""up"",""up"",""good_move"",30000,3272.9,2285.1,26727.1,987.8,""smooth"",""up"",""up"",""good_move"",33730.4,3730.2,2769.7,30000.2,960.5,""oops"",""up"",""left"",""good_move"",37301.6,3570.9,2121.7,33730.7,1449.2,""smooth"",""up"",""up"",""good_move""]","",""
"6495","","<div style=""width:500px;"">
  <p>What determined the result of this run?</p>
  </div>","50","html-slider-response","60","1142284","0.0-5.0-1.10","222","1","2025-07-23 13:25:06","1f75c3e559b7213887762d5229550c2b","41.150.225.117","Mozilla/5.0 (Windows NT 10.0; Win64; x64) AppleWebKit/537.36 (KHTML, like Gecko) Chrome/138.0.0.0 Safari/537.36","WebKit","Chrome","138.0.0.0","Windows","10.0","https://app.prolific.com/","en-US,en;q=0.9","6785052a054e7c96c09f69cd","683db9eb0562dbf637994deb","6880e1aa1a41d16149988670","2","1","6785052a054e7c96c09f69cd","2","1","2025-07-23T13:44:09.822Z","","","","","","","","","","","AttribQ","","50","","","","","","","","","","","","","","","","","","","","","","","","","","","","",""
"6852","","<div style=""width:500px;"">
  <p>How much control did you have over the ball?</p>
  </div>","50","html-slider-response","61","1149139","0.0-5.0-2.10","222","1","2025-07-23 13:25:06","1f75c3e559b7213887762d5229550c2b","41.150.225.117","Mozilla/5.0 (Windows NT 10.0; Win64; x64) AppleWebKit/537.36 (KHTML, like Gecko) Chrome/138.0.0.0 Safari/537.36","WebKit","Chrome","138.0.0.0","Windows","10.0","https://app.prolific.com/","en-US,en;q=0.9","6785052a054e7c96c09f69cd","683db9eb0562dbf637994deb","6880e1aa1a41d16149988670","2","1","6785052a054e7c96c09f69cd","2","1","2025-07-23T13:44:16.677Z","","","","","","","","","","","ControlQ","","50","","","","","","","","","","","","","","","","","","","","","","","","","","","","",""
"5318","","<div style=""width:500px;"">
  <p>How would you describe your current emotional state?</p>
  </div>","100","html-slider-response","62","1154459","0.0-5.0-3.10","222","1","2025-07-23 13:25:06","1f75c3e559b7213887762d5229550c2b","41.150.225.117","Mozilla/5.0 (Windows NT 10.0; Win64; x64) AppleWebKit/537.36 (KHTML, like Gecko) Chrome/138.0.0.0 Safari/537.36","WebKit","Chrome","138.0.0.0","Windows","10.0","https://app.prolific.com/","en-US,en;q=0.9","6785052a054e7c96c09f69cd","683db9eb0562dbf637994deb","6880e1aa1a41d16149988670","2","1","6785052a054e7c96c09f69cd","2","1","2025-07-23T13:44:21.997Z","","","","","","","","","","","StressQ","","50","","","","","","","","","","","","","","","","","","","","","","","","","","","","",""
"3094","","<div style=""width:500px;"">
  <p>What best describes how you currently feel?</p>
  </div>","0","html-slider-response","63","1157557","0.0-5.0-4.10","222","1","2025-07-23 13:25:06","1f75c3e559b7213887762d5229550c2b","41.150.225.117","Mozilla/5.0 (Windows NT 10.0; Win64; x64) AppleWebKit/537.36 (KHTML, like Gecko) Chrome/138.0.0.0 Safari/537.36","WebKit","Chrome","138.0.0.0","Windows","10.0","https://app.prolific.com/","en-US,en;q=0.9","6785052a054e7c96c09f69cd","683db9eb0562dbf637994deb","6880e1aa1a41d16149988670","2","1","6785052a054e7c96c09f69cd","2","1","2025-07-23T13:44:25.095Z","","","","","","","","","","","MotivationQ","","50","","","","","","","","","","","","","","","","","","","","","","","","","","","","",""
"","","","","ctl-task-cpt","64","1322738","0.0-5.0-0.11","222","1","2025-07-23 13:25:06","1f75c3e559b7213887762d5229550c2b","41.150.225.117","Mozilla/5.0 (Windows NT 10.0; Win64; x64) AppleWebKit/537.36 (KHTML, like Gecko) Chrome/138.0.0.0 Safari/537.36","WebKit","Chrome","138.0.0.0","Windows","10.0","https://app.prolific.com/","en-US,en;q=0.9","6785052a054e7c96c09f69cd","683db9eb0562dbf637994deb","6880e1aa1a41d16149988670","2","1","6785052a054e7c96c09f69cd","2","1","2025-07-23T13:47:10.277Z","","","","","","","","","","","","","","win-only","2","g1:SE,g2:NW","0.6","12","0","1160753.6","135585.7","140588.2","162151.6","1","4","4","6","2","4","4","12","8","0.09090909090909091","1527.3","3000","1285","[""left"",""up""]","{""num_key_presses"":6,""num_perfect"":5,""num_errors"":0,""num_randdir"":1,""num_randdir_good_moves"":1,""num_whilered"":0,""num_whileblue"":0,""num_blue"":1,""num_good_moves"":6}","[407.57142857142856,407.1808016640799,0.6,407.57142857142856,407.1808016640799,105.5,407.57142857142856,407.1808016640799,209.4,407.57142857142856,407.1808016640799,310.2,407.57142857142856,407.1808016640799,420.3,407.57142857142856,407.1808016640799,523.1,407.57142857142856,440.1808016640799,633.6,413.57142857142856,462.6808016640799,750.1,416.57142857142856,465.6808016640799,856.1,119.57142857142857,290.1808016640799,972.5,-30.42857142857143,149.18080166407992,1086.1,-30.42857142857143,98.18080166407994,1194.5,-22.92857142857143,84.68080166407994,1298.6,34.07142857142857,83.18080166407994,1413.7,35.57142857142857,83.18080166407994,1530.5,37.07142857142857,83.18080166407994,1641.8,37.07142857142857,83.18080166407994,1753.2,37.07142857142857,83.18080166407994,1858.2,203.57142857142856,117.68080166407994,1972.3,206.57142857142856,119.18080166407994,2081.2,206.57142857142856,119.18080166407994,2187.5,206.57142857142856,119.18080166407994,2293.5,212.57142857142856,128.18080166407992,2395.4,215.57142857142856,170.18080166407992,2506.4,235.07142857142856,245.18080166407992,2609.3,262.07142857142856,324.6808016640799,2710.5,308.57142857142856,435.6808016640799,2814.1,290.57142857142856,710.1808016640799,2926.1,38.57142857142857,960.6808016640799,3037,-249.42857142857144,960.6808016640799,3158.2,-249.42857142857144,960.6808016640799,3270.9,-249.42857142857144,960.6808016640799,3378.2,-249.42857142857144,960.6808016640799,3487,-249.42857142857144,960.6808016640799,3596.9,-249.42857142857144,960.6808016640799,3720.9,-249.42857142857144,960.6808016640799,3835.8,-249.42857142857144,960.6808016640799,3941.8,-249.42857142857144,960.6808016640799,4047.3,-249.42857142857144,960.6808016640799,4147.5,-249.42857142857144,960.6808016640799,4250.5,-249.42857142857144,960.6808016640799,4351.5,-249.42857142857144,960.6808016640799,4461.7,-249.42857142857144,960.6808016640799,4564.5,-249.42857142857144,960.6808016640799,4674.8,-249.42857142857144,960.6808016640799,4784.8,-249.42857142857144,960.6808016640799,4895.1]","[5301.1,5301.1,2795.6,2015.7,489.8,""oops"",""up"",""left"",""good_move"",9402.1,4100.5,3294.4,5301.6,806.1,""smooth"",""up"",""up"",""good_move"",12537.6,3135,2501.5,9402.7,633.4,""smooth"",""up"",""up"",""good_move"",15376.5,2838.7,2177.7,12537.9,660.9,""smooth"",""up"",""up"",""good_move"",18131.2,2754.6,2225.3,15376.6,529.3,""smooth"",""left"",""left"",""good_move"",21342.5,3211,2589.3,18131.5,621.8,""smooth"",""left"",""left"",""good_move""]","",""
"6722","","<div style=""width:500px;"">
  <p>What determined the result of this run?</p>
  </div>","100","html-slider-response","65","1329462","0.0-5.0-1.11","222","1","2025-07-23 13:25:06","1f75c3e559b7213887762d5229550c2b","41.150.225.117","Mozilla/5.0 (Windows NT 10.0; Win64; x64) AppleWebKit/537.36 (KHTML, like Gecko) Chrome/138.0.0.0 Safari/537.36","WebKit","Chrome","138.0.0.0","Windows","10.0","https://app.prolific.com/","en-US,en;q=0.9","6785052a054e7c96c09f69cd","683db9eb0562dbf637994deb","6880e1aa1a41d16149988670","2","1","6785052a054e7c96c09f69cd","2","1","2025-07-23T13:47:17.001Z","","","","","","","","","","","AttribQ","","50","","","","","","","","","","","","","","","","","","","","","","","","","","","","",""
"3319","","<div style=""width:500px;"">
  <p>How much control did you have over the ball?</p>
  </div>","100","html-slider-response","66","1332784","0.0-5.0-2.11","222","1","2025-07-23 13:25:06","1f75c3e559b7213887762d5229550c2b","41.150.225.117","Mozilla/5.0 (Windows NT 10.0; Win64; x64) AppleWebKit/537.36 (KHTML, like Gecko) Chrome/138.0.0.0 Safari/537.36","WebKit","Chrome","138.0.0.0","Windows","10.0","https://app.prolific.com/","en-US,en;q=0.9","6785052a054e7c96c09f69cd","683db9eb0562dbf637994deb","6880e1aa1a41d16149988670","2","1","6785052a054e7c96c09f69cd","2","1","2025-07-23T13:47:20.322Z","","","","","","","","","","","ControlQ","","50","","","","","","","","","","","","","","","","","","","","","","","","","","","","",""
"4154","","<div style=""width:500px;"">
  <p>How would you describe your current emotional state?</p>
  </div>","50","html-slider-response","67","1336940","0.0-5.0-3.11","222","1","2025-07-23 13:25:06","1f75c3e559b7213887762d5229550c2b","41.150.225.117","Mozilla/5.0 (Windows NT 10.0; Win64; x64) AppleWebKit/537.36 (KHTML, like Gecko) Chrome/138.0.0.0 Safari/537.36","WebKit","Chrome","138.0.0.0","Windows","10.0","https://app.prolific.com/","en-US,en;q=0.9","6785052a054e7c96c09f69cd","683db9eb0562dbf637994deb","6880e1aa1a41d16149988670","2","1","6785052a054e7c96c09f69cd","2","1","2025-07-23T13:47:24.478Z","","","","","","","","","","","StressQ","","50","","","","","","","","","","","","","","","","","","","","","","","","","","","","",""
"2908","","<div style=""width:500px;"">
  <p>What best describes how you currently feel?</p>
  </div>","50","html-slider-response","68","1339849","0.0-5.0-4.11","222","1","2025-07-23 13:25:06","1f75c3e559b7213887762d5229550c2b","41.150.225.117","Mozilla/5.0 (Windows NT 10.0; Win64; x64) AppleWebKit/537.36 (KHTML, like Gecko) Chrome/138.0.0.0 Safari/537.36","WebKit","Chrome","138.0.0.0","Windows","10.0","https://app.prolific.com/","en-US,en;q=0.9","6785052a054e7c96c09f69cd","683db9eb0562dbf637994deb","6880e1aa1a41d16149988670","2","1","6785052a054e7c96c09f69cd","2","1","2025-07-23T13:47:27.387Z","","","","","","","","","","","MotivationQ","","50","","","","","","","","","","","","","","","","","","","","","","","","","","","","",""
"","","","","ctl-task-cpt","69","1380484","0.0-5.0-0.12","222","1","2025-07-23 13:25:06","1f75c3e559b7213887762d5229550c2b","41.150.225.117","Mozilla/5.0 (Windows NT 10.0; Win64; x64) AppleWebKit/537.36 (KHTML, like Gecko) Chrome/138.0.0.0 Safari/537.36","WebKit","Chrome","138.0.0.0","Windows","10.0","https://app.prolific.com/","en-US,en;q=0.9","6785052a054e7c96c09f69cd","683db9eb0562dbf637994deb","6880e1aa1a41d16149988670","2","1","6785052a054e7c96c09f69cd","2","1","2025-07-23T13:48:08.022Z","","","","","","","","","","","","","","win-only","1","g1:NE,g2:SW","0.7","13","0","1343044.6","1323","6325.1","37604.6","1","4","4","6","2","4","3","15","12","0.11363636363636363","1293.8","3000","375","[""down"",""left""]","{""num_key_presses"":10,""num_perfect"":6,""num_errors"":1,""num_randdir"":3,""num_randdir_good_moves"":1,""num_whilered"":0,""num_whileblue"":1,""num_blue"":1,""num_good_moves"":8}","[421.07142857142856,416.1808016640799,0.2,421.07142857142856,416.1808016640799,102.4,421.07142857142856,416.1808016640799,208.4,421.07142857142856,416.1808016640799,316.6,421.07142857142856,416.1808016640799,418.3,421.07142857142856,416.1808016640799,520.7,424.07142857142856,408.6808016640799,626.9,359.57142857142856,495.6808016640799,731,256.07142857142856,648.6808016640799,835.1,205.07142857142856,705.6808016640799,943.2,131.57142857142856,738.6808016640799,1051.7,98.57142857142857,755.1808016640799,1156.7,98.57142857142857,755.1808016640799,1263.8,98.57142857142857,755.1808016640799,1371.8,100.07142857142857,749.1808016640799,1486.3,101.57142857142857,746.1808016640799,1603.2,101.57142857142857,746.1808016640799,1714,101.57142857142857,746.1808016640799,1819.5,101.57142857142857,746.1808016640799,1930.4,103.07142857142857,743.1808016640799,2035.5,104.57142857142857,741.6808016640799,2143.8,104.57142857142857,740.1808016640799,2249.7,104.57142857142857,740.1808016640799,2352,104.57142857142857,738.6808016640799,2460.9,107.57142857142857,737.1808016640799,2562.4,109.07142857142857,737.1808016640799,2669.7,109.07142857142857,737.1808016640799,2774,109.07142857142857,737.1808016640799,2882.6,109.07142857142857,737.1808016640799,2982.6,109.07142857142857,737.1808016640799,3084.4,109.07142857142857,737.1808016640799,3199.5,109.07142857142857,737.1808016640799,3302.2,109.07142857142857,737.1808016640799,3415.3,109.07142857142857,737.1808016640799,3530.3,109.07142857142857,737.1808016640799,3643.8,109.07142857142857,737.1808016640799,3747.4,109.07142857142857,737.1808016640799,3847.7,109.07142857142857,737.1808016640799,3960.4,109.07142857142857,737.1808016640799,4067.9,109.07142857142857,737.1808016640799,4178.2,109.07142857142857,737.1808016640799,4279,109.07142857142857,737.1808016640799,4386.3,109.07142857142857,737.1808016640799,4494.3,109.07142857142857,737.1808016640799,4597.7,109.07142857142857,737.1808016640799,4716,109.07142857142857,737.1808016640799,4818.7,109.07142857142857,737.1808016640799,4942.3]","[2193.7,2193.7,1000,0,1193.7,""smooth"",""left"",""left"",""good_move"",5201.6,3007.4,1610.3,2194.2,1397.1,""oops"",""left"",""right"",""bad_move"",8460.8,3258.3,2200.9,5202.5,1057.4,""oops"",""left"",""up"",""bad_move"",11630.6,3169.1,1922.1,8461.5,1247,""smooth"",""left"",""left"",""good_move"",15457.6,3826.7,2573.4,11630.9,1253.3,""smooth"",""left"",""left"",""good_move"",18247,2789.2,2359.6,15457.8,429.6,""smooth"",""left"",""left"",""good_move"",21626.5,3379.1,3006.1,18247.4,373,""while_blue"",""down"",""down"",""good_move"",24741.2,3114.3,2554.9,21626.9,559.4,""smooth"",""down"",""down"",""good_move"",28059.6,3318.1,2816.4,24741.5,501.7,""oops"",""down"",""down"",""good_move"",31051.1,2991.3,2568.2,28059.9,423.1,""smooth"",""down"",""down"",""good_move""]","",""
"3782","","<div style=""width:500px;"">
  <p>What determined the result of this run?</p>
  </div>","100","html-slider-response","70","1384268","0.0-5.0-1.12","222","1","2025-07-23 13:25:06","1f75c3e559b7213887762d5229550c2b","41.150.225.117","Mozilla/5.0 (Windows NT 10.0; Win64; x64) AppleWebKit/537.36 (KHTML, like Gecko) Chrome/138.0.0.0 Safari/537.36","WebKit","Chrome","138.0.0.0","Windows","10.0","https://app.prolific.com/","en-US,en;q=0.9","6785052a054e7c96c09f69cd","683db9eb0562dbf637994deb","6880e1aa1a41d16149988670","2","1","6785052a054e7c96c09f69cd","2","1","2025-07-23T13:48:11.806Z","","","","","","","","","","","AttribQ","","50","","","","","","","","","","","","","","","","","","","","","","","","","","","","",""
"4068","","<div style=""width:500px;"">
  <p>How much control did you have over the ball?</p>
  </div>","100","html-slider-response","71","1388338","0.0-5.0-2.12","222","1","2025-07-23 13:25:06","1f75c3e559b7213887762d5229550c2b","41.150.225.117","Mozilla/5.0 (Windows NT 10.0; Win64; x64) AppleWebKit/537.36 (KHTML, like Gecko) Chrome/138.0.0.0 Safari/537.36","WebKit","Chrome","138.0.0.0","Windows","10.0","https://app.prolific.com/","en-US,en;q=0.9","6785052a054e7c96c09f69cd","683db9eb0562dbf637994deb","6880e1aa1a41d16149988670","2","1","6785052a054e7c96c09f69cd","2","1","2025-07-23T13:48:15.876Z","","","","","","","","","","","ControlQ","","50","","","","","","","","","","","","","","","","","","","","","","","","","","","","",""
"13296","","<div style=""width:500px;"">
  <p>How would you describe your current emotional state?</p>
  </div>","51","html-slider-response","72","1401636","0.0-5.0-3.12","222","1","2025-07-23 13:25:06","1f75c3e559b7213887762d5229550c2b","41.150.225.117","Mozilla/5.0 (Windows NT 10.0; Win64; x64) AppleWebKit/537.36 (KHTML, like Gecko) Chrome/138.0.0.0 Safari/537.36","WebKit","Chrome","138.0.0.0","Windows","10.0","https://app.prolific.com/","en-US,en;q=0.9","6785052a054e7c96c09f69cd","683db9eb0562dbf637994deb","6880e1aa1a41d16149988670","2","1","6785052a054e7c96c09f69cd","2","1","2025-07-23T13:48:29.174Z","","","","","","","","","","","StressQ","","50","","","","","","","","","","","","","","","","","","","","","","","","","","","","",""
"4504","","<div style=""width:500px;"">
  <p>What best describes how you currently feel?</p>
  </div>","50","html-slider-response","73","1406142","0.0-5.0-4.12","222","1","2025-07-23 13:25:06","1f75c3e559b7213887762d5229550c2b","41.150.225.117","Mozilla/5.0 (Windows NT 10.0; Win64; x64) AppleWebKit/537.36 (KHTML, like Gecko) Chrome/138.0.0.0 Safari/537.36","WebKit","Chrome","138.0.0.0","Windows","10.0","https://app.prolific.com/","en-US,en;q=0.9","6785052a054e7c96c09f69cd","683db9eb0562dbf637994deb","6880e1aa1a41d16149988670","2","1","6785052a054e7c96c09f69cd","2","1","2025-07-23T13:48:33.680Z","","","","","","","","","","","MotivationQ","","50","","","","","","","","","","","","","","","","","","","","","","","","","","","","",""
"","","","","ctl-task-cpt","74","1434054","0.0-5.0-0.13","222","1","2025-07-23 13:25:06","1f75c3e559b7213887762d5229550c2b","41.150.225.117","Mozilla/5.0 (Windows NT 10.0; Win64; x64) AppleWebKit/537.36 (KHTML, like Gecko) Chrome/138.0.0.0 Safari/537.36","WebKit","Chrome","138.0.0.0","Windows","10.0","https://app.prolific.com/","en-US,en;q=0.9","6785052a054e7c96c09f69cd","683db9eb0562dbf637994deb","6880e1aa1a41d16149988670","2","1","6785052a054e7c96c09f69cd","2","1","2025-07-23T13:49:01.592Z","","","","","","","","","","","","","","win-only","0","g1:NW,g2:SE","0.8","14","0","1409339","1803.9","6804.9","24882.1","1","4","8","6","2","8","8","23","15","0.17424242424242425","1600.4","3000","1390","[""down"",""right""]","{""num_key_presses"":6,""num_perfect"":6,""num_errors"":0,""num_randdir"":0,""num_randdir_good_moves"":0,""num_whilered"":0,""num_whileblue"":0,""num_blue"":0,""num_good_moves"":6}","[410.57142857142856,405.6808016640799,0.2,410.57142857142856,404.1808016640799,114.2,410.57142857142856,404.1808016640799,218,410.57142857142856,404.1808016640799,322.5,397.07142857142856,408.6808016640799,425.5,391.07142857142856,410.1808016640799,539.1,391.07142857142856,410.1808016640799,651.6,427.07142857142856,501.6808016640799,752.8,538.0714285714286,611.1808016640799,856.8,767.5714285714286,746.1808016640799,965.7,833.5714285714286,765.6808016640799,1068.6,838.0714285714286,768.6808016640799,1181.1,835.0714285714286,767.1808016640799,1290.3,791.5714285714286,764.1808016640799,1403.2,761.5714285714286,764.1808016640799,1505.4,761.5714285714286,764.1808016640799,1613.3,758.5714285714286,761.1808016640799,1726.4,758.5714285714286,761.1808016640799,1833.8,758.5714285714286,761.1808016640799,1946.1,758.5714285714286,761.1808016640799,2052.8,758.5714285714286,761.1808016640799,2162.5,758.5714285714286,761.1808016640799,2264.8,758.5714285714286,761.1808016640799,2371,758.5714285714286,761.1808016640799,2480.5,758.5714285714286,761.1808016640799,2585.9,758.5714285714286,761.1808016640799,2693,758.5714285714286,761.1808016640799,2797.6,758.5714285714286,761.1808016640799,2900.5,758.5714285714286,761.1808016640799,3001.6,758.5714285714286,761.1808016640799,3108.4,758.5714285714286,761.1808016640799,3215.9,758.5714285714286,761.1808016640799,3319.6,758.5714285714286,761.1808016640799,3421.9,758.5714285714286,761.1808016640799,3524.9,758.5714285714286,761.1808016640799,3633.4,758.5714285714286,761.1808016640799,3736.9,758.5714285714286,761.1808016640799,3844.5,758.5714285714286,761.1808016640799,3950.9,758.5714285714286,761.1808016640799,4059.9,758.5714285714286,761.1808016640799,4166.8,758.5714285714286,761.1808016640799,4276.6,758.5714285714286,761.1808016640799,4384,758.5714285714286,761.1808016640799,4494.2,758.5714285714286,761.1808016640799,4596.6,758.5714285714286,761.1808016640799,4706.4,758.5714285714286,761.1808016640799,4810.7,758.5714285714286,761.1808016640799,4911.9]","[2989,2989,1000,0,1989,""smooth"",""right"",""right"",""good_move"",6114.4,3125.1,2417.6,2989.3,707.5,""smooth"",""down"",""down"",""good_move"",8802.8,2687.8,2273.1,6115,414.7,""smooth"",""right"",""right"",""good_move"",11711.4,2907.9,2506.9,8803.6,400.9,""smooth"",""down"",""down"",""good_move"",14933.2,3221.5,2810.2,11711.7,411.3,""smooth"",""right"",""right"",""good_move"",17793.9,2860.3,2471.6,14933.6,388.7,""smooth"",""down"",""down"",""good_move""]","",""
"4562","","<div style=""width:500px;"">
  <p>What determined the result of this run?</p>
  </div>","100","html-slider-response","75","1438618","0.0-5.0-1.13","222","1","2025-07-23 13:25:06","1f75c3e559b7213887762d5229550c2b","41.150.225.117","Mozilla/5.0 (Windows NT 10.0; Win64; x64) AppleWebKit/537.36 (KHTML, like Gecko) Chrome/138.0.0.0 Safari/537.36","WebKit","Chrome","138.0.0.0","Windows","10.0","https://app.prolific.com/","en-US,en;q=0.9","6785052a054e7c96c09f69cd","683db9eb0562dbf637994deb","6880e1aa1a41d16149988670","2","1","6785052a054e7c96c09f69cd","2","1","2025-07-23T13:49:06.156Z","","","","","","","","","","","AttribQ","","50","","","","","","","","","","","","","","","","","","","","","","","","","","","","",""
"5929","","<div style=""width:500px;"">
  <p>How much control did you have over the ball?</p>
  </div>","100","html-slider-response","76","1444549","0.0-5.0-2.13","222","1","2025-07-23 13:25:06","1f75c3e559b7213887762d5229550c2b","41.150.225.117","Mozilla/5.0 (Windows NT 10.0; Win64; x64) AppleWebKit/537.36 (KHTML, like Gecko) Chrome/138.0.0.0 Safari/537.36","WebKit","Chrome","138.0.0.0","Windows","10.0","https://app.prolific.com/","en-US,en;q=0.9","6785052a054e7c96c09f69cd","683db9eb0562dbf637994deb","6880e1aa1a41d16149988670","2","1","6785052a054e7c96c09f69cd","2","1","2025-07-23T13:49:12.087Z","","","","","","","","","","","ControlQ","","50","","","","","","","","","","","","","","","","","","","","","","","","","","","","",""
"6516","","<div style=""width:500px;"">
  <p>How would you describe your current emotional state?</p>
  </div>","50","html-slider-response","77","1451068","0.0-5.0-3.13","222","1","2025-07-23 13:25:06","1f75c3e559b7213887762d5229550c2b","41.150.225.117","Mozilla/5.0 (Windows NT 10.0; Win64; x64) AppleWebKit/537.36 (KHTML, like Gecko) Chrome/138.0.0.0 Safari/537.36","WebKit","Chrome","138.0.0.0","Windows","10.0","https://app.prolific.com/","en-US,en;q=0.9","6785052a054e7c96c09f69cd","683db9eb0562dbf637994deb","6880e1aa1a41d16149988670","2","1","6785052a054e7c96c09f69cd","2","1","2025-07-23T13:49:18.606Z","","","","","","","","","","","StressQ","","50","","","","","","","","","","","","","","","","","","","","","","","","","","","","",""
"5704","","<div style=""width:500px;"">
  <p>What best describes how you currently feel?</p>
  </div>","50","html-slider-response","78","1456773","0.0-5.0-4.13","222","1","2025-07-23 13:25:06","1f75c3e559b7213887762d5229550c2b","41.150.225.117","Mozilla/5.0 (Windows NT 10.0; Win64; x64) AppleWebKit/537.36 (KHTML, like Gecko) Chrome/138.0.0.0 Safari/537.36","WebKit","Chrome","138.0.0.0","Windows","10.0","https://app.prolific.com/","en-US,en;q=0.9","6785052a054e7c96c09f69cd","683db9eb0562dbf637994deb","6880e1aa1a41d16149988670","2","1","6785052a054e7c96c09f69cd","2","1","2025-07-23T13:49:24.311Z","","","","","","","","","","","MotivationQ","","50","","","","","","","","","","","","","","","","","","","","","","","","","","","","",""
