"rt","response_timestamp","stimulus","response","trial_type","trial_index","time_elapsed","internal_node_id","run_id","condition","recorded_at","source_code_version","ip","user_agent","device","browser","browser_version","platform","platform_version","referer","accept_language","PROLIFIC_PID","STUDY_ID","SESSION_ID","WEEK","prolific_id","week","realtime","success","responses","item_order","radio_event_ids","radio_event_times","key_event_times","mouse_event_times","straightlining","zigzagging","honeypot","eventType","view_history","slider_start","which_type","canvas_config","goals_layout","control_level","trial_number","tutorial_trial_number","trial_start_time","phase1_start_time","phase2_start_time","phase3_start_time","goal_1_value","goal_1_distance","goal_2_value","goal_2_distance","goal_selected","outcome","outcome_total","participant_final_score","participant_initial_score","participant_final_score_prop","goal_choice_rt","allocated_time","allocated_time_remaining","goal_direction","counts","mouse_movements","key_presses","question_order","question_id"
"1571","1752050345292","<p style='font-size:40px;line-height:1.25'><strong>Welcome to the experiment!</strong></p><p style='font-size:1.1em;line-height:1.25'>Thank you for participanting in our experiment again! You will be asked to play the Dysfunctional Ball Game again. We will briefly recap the rules before we start.</p><p style='font-size:1.1em;line-height:1.25'>Press <strong>Next</strong> to continue.</p>","0","custom-html-button-response","0","1577","0.0-0.0","6","1","2025-07-09 08:38:59","01610cd0009c79a99da7d0a3353eb402","31.52.104.175","Mozilla/5.0 (Windows NT 10.0; Win64; x64) AppleWebKit/537.36 (KHTML, like Gecko) Chrome/138.0.0.0 Safari/537.36","WebKit","Chrome","138.0.0.0","Windows","10.0","https://app.prolific.com/","en-US,en;q=0.9","5d1290103b20b0000102e8e3","683db7602f5db6a34d12d064","686e2a819f8d7f413b8f7800","1","5d1290103b20b0000102e8e3","1","2025-07-09T08:39:05.295Z","","","","","","","","","","","","","","","","","","","","","","","","","","","","","","","","","","","","","","","","","",""
"11758","","","","fullscreen","1","14354","0.0-1.0","6","1","2025-07-09 08:38:59","01610cd0009c79a99da7d0a3353eb402","31.52.104.175","Mozilla/5.0 (Windows NT 10.0; Win64; x64) AppleWebKit/537.36 (KHTML, like Gecko) Chrome/138.0.0.0 Safari/537.36","WebKit","Chrome","138.0.0.0","Windows","10.0","https://app.prolific.com/","en-US,en;q=0.9","5d1290103b20b0000102e8e3","683db7602f5db6a34d12d064","686e2a819f8d7f413b8f7800","1","5d1290103b20b0000102e8e3","1","","true","","","","","","","","","","","","","","","","","","","","","","","","","","","","","","","","","","","","","","","","",""
"2038","1752050360112","<p style='font-size:1.1em;line-height:1.25'>In the following, we will ask you a few questions relating to your feelings in the last 24 hours.<br></p><p style='font-size:1.1em;line-height:1.25'>Press the <strong>Next</strong> button to continue.</p>","0","custom-html-button-response","2","16396","0.0-2.0-0.0","6","1","2025-07-09 08:38:59","01610cd0009c79a99da7d0a3353eb402","31.52.104.175","Mozilla/5.0 (Windows NT 10.0; Win64; x64) AppleWebKit/537.36 (KHTML, like Gecko) Chrome/138.0.0.0 Safari/537.36","WebKit","Chrome","138.0.0.0","Windows","10.0","https://app.prolific.com/","en-US,en;q=0.9","5d1290103b20b0000102e8e3","683db7602f5db6a34d12d064","686e2a819f8d7f413b8f7800","1","5d1290103b20b0000102e8e3","1","2025-07-09T08:39:20.113Z","","","","","","","","","","","","","","","","","","","","","","","","","","","","","","","","","","","","","","","","","",""
"73624.5","","","","survey-template","3","90029","0.0-2.0-1.0","6","1","2025-07-09 08:38:59","01610cd0009c79a99da7d0a3353eb402","31.52.104.175","Mozilla/5.0 (Windows NT 10.0; Win64; x64) AppleWebKit/537.36 (KHTML, like Gecko) Chrome/138.0.0.0 Safari/537.36","WebKit","Chrome","138.0.0.0","Windows","10.0","https://app.prolific.com/","en-US,en;q=0.9","5d1290103b20b0000102e8e3","683db7602f5db6a34d12d064","686e2a819f8d7f413b8f7800","1","5d1290103b20b0000102e8e3","1","2025-07-09T08:40:33.746Z","","{""Q01"":""1"",""Q02"":""1"",""Q03"":""1"",""Q04"":""1"",""Q05"":""0"",""Q06"":""0"",""Q07"":""0"",""Q08"":""0"",""Q09"":""2"",""Q10"":""1"",""Q11"":""1"",""Q12"":""2"",""Q13"":""5"",""Q14"":""3"",""Q15"":""0"",""Q16"":""1"",""Q17"":""2"",""Q18"":""3"",""Q19"":""0"",""Q20"":""0"",""Q21"":""1"",""Q22"":""0""}","[0,1,2,3,4,5,6,7,8,9,10,11,12,13,14,15,16,17,18,19,20,21]","[""Q01"",""Q02"",""Q03"",""Q04"",""Q05"",""Q06"",""Q07"",""Q08"",""Q09"",""Q10"",""Q11"",""Q12"",""Q13"",""Q14"",""Q15"",""Q16"",""Q17"",""Q18"",""Q18"",""Q19"",""Q20"",""Q21"",""Q22"",""Q21""]","[6417.5,7906,9883,11355.5,12843.5,14968.10000000894,16259.90000000596,22222.70000000298,24662.79999999702,26220.20000000298,27658.70000000298,31332.90000000596,34981,36026.10000000894,44310.79999999702,46274.90000000596,48884.20000000298,50357.70000000298,51109,58136.20000000298,65046.29999999702,69479.29999999702,71400.40000000596,72383.60000000894]","[]","[0.10000000894069672,6417.5,7906,9883,11355.5,12843.5,14968.10000000894,16259.90000000596,17381.90000000596,20860.10000000894,22222.70000000298,23813,24662.79999999702,26220.20000000298,27658.70000000298,31332.90000000596,33299.29999999702,34981,36026.10000000894,44310.79999999702,46274.90000000596,48884.20000000298,50357.70000000298,51109,58136.20000000298,65046.29999999702,68576,69479.29999999702,71400.40000000596,72383.60000000894,73616.40000000596]","0.36363636363636365","0.38095238095238093","0","drsp","","","","","","","","","","","","","","","","","","","","","","","","","","","","","","",""
"13263.300000011921","","","","survey-template","4","103296","0.0-2.0-2.0","6","1","2025-07-09 08:38:59","01610cd0009c79a99da7d0a3353eb402","31.52.104.175","Mozilla/5.0 (Windows NT 10.0; Win64; x64) AppleWebKit/537.36 (KHTML, like Gecko) Chrome/138.0.0.0 Safari/537.36","WebKit","Chrome","138.0.0.0","Windows","10.0","https://app.prolific.com/","en-US,en;q=0.9","5d1290103b20b0000102e8e3","683db7602f5db6a34d12d064","686e2a819f8d7f413b8f7800","1","5d1290103b20b0000102e8e3","1","2025-07-09T08:40:47.014Z","","{""Q01"":""2"",""Q02"":""4"",""Q03"":""3""}","[0,1,2]","[""Q01"",""Q02"",""Q02"",""Q03""]","[4845.4000000059605,8140.600000008941,8661.800000011921,11309.800000011921]","[]","[4845.4000000059605,7278.100000008941,8140.600000008941,8661.800000011921,11309.800000011921,12076.60000000894,12630.40000000596,13261.90000000596]","0.3333333333333333","0.5","0","stress","","","","","","","","","","","","","","","","","","","","","","","","","","","","","","",""
"2695","","","","instructions","5","105994","0.0-3.0-0.0","6","1","2025-07-09 08:38:59","01610cd0009c79a99da7d0a3353eb402","31.52.104.175","Mozilla/5.0 (Windows NT 10.0; Win64; x64) AppleWebKit/537.36 (KHTML, like Gecko) Chrome/138.0.0.0 Safari/537.36","WebKit","Chrome","138.0.0.0","Windows","10.0","https://app.prolific.com/","en-US,en;q=0.9","5d1290103b20b0000102e8e3","683db7602f5db6a34d12d064","686e2a819f8d7f413b8f7800","1","5d1290103b20b0000102e8e3","1","","","","","","","","","","","","","[{""page_index"":0,""viewing_time"":2695}]","","","","","","","","","","","","","","","","","","","","","","","","","","","","","",""
"14904","","<p>Before you start with this game please answer the following three questions yourself. </p>
  <p>Through this game, we measure several aspects of your cognitive performance, such as reaction times, multi-tasking capabilities </p>
  <p>and the ability to assess the situation you are in.</p>
  <p></p>
  <p><b>How good do you usually are in such tasks?</b></p>","60","html-slider-response","6","120907","0.0-4.0-0.0","6","1","2025-07-09 08:38:59","01610cd0009c79a99da7d0a3353eb402","31.52.104.175","Mozilla/5.0 (Windows NT 10.0; Win64; x64) AppleWebKit/537.36 (KHTML, like Gecko) Chrome/138.0.0.0 Safari/537.36","WebKit","Chrome","138.0.0.0","Windows","10.0","https://app.prolific.com/","en-US,en;q=0.9","5d1290103b20b0000102e8e3","683db7602f5db6a34d12d064","686e2a819f8d7f413b8f7800","1","5d1290103b20b0000102e8e3","1","2025-07-09T08:41:04.624Z","","","","","","","","","","","PreSkillQ","","50","","","","","","","","","","","","","","","","","","","","","","","","","","","","",""
"3847","","<div style=""width:500px;"">
  <p>How well do you think you will perform in this task compared to other participants?</p>
  </div>","62","html-slider-response","7","124758","0.0-4.0-1.0","6","1","2025-07-09 08:38:59","01610cd0009c79a99da7d0a3353eb402","31.52.104.175","Mozilla/5.0 (Windows NT 10.0; Win64; x64) AppleWebKit/537.36 (KHTML, like Gecko) Chrome/138.0.0.0 Safari/537.36","WebKit","Chrome","138.0.0.0","Windows","10.0","https://app.prolific.com/","en-US,en;q=0.9","5d1290103b20b0000102e8e3","683db7602f5db6a34d12d064","686e2a819f8d7f413b8f7800","1","5d1290103b20b0000102e8e3","1","2025-07-09T08:41:08.475Z","","","","","","","","","","","PrePerfQ","","50","","","","","","","","","","","","","","","","","","","","","","","","","","","","",""
"3574","","<div style=""width:500px;"">
  <p>What best describes how you currently feel?</p>
  </div>","59","html-slider-response","8","128336","0.0-4.0-2.0","6","1","2025-07-09 08:38:59","01610cd0009c79a99da7d0a3353eb402","31.52.104.175","Mozilla/5.0 (Windows NT 10.0; Win64; x64) AppleWebKit/537.36 (KHTML, like Gecko) Chrome/138.0.0.0 Safari/537.36","WebKit","Chrome","138.0.0.0","Windows","10.0","https://app.prolific.com/","en-US,en;q=0.9","5d1290103b20b0000102e8e3","683db7602f5db6a34d12d064","686e2a819f8d7f413b8f7800","1","5d1290103b20b0000102e8e3","1","2025-07-09T08:41:12.053Z","","","","","","","","","","","PreMotivationQ","","50","","","","","","","","","","","","","","","","","","","","","","","","","","","","",""
"","","","","ctl-task-cpt","9","170949","0.0-5.0-0.0","6","1","2025-07-09 08:38:59","01610cd0009c79a99da7d0a3353eb402","31.52.104.175","Mozilla/5.0 (Windows NT 10.0; Win64; x64) AppleWebKit/537.36 (KHTML, like Gecko) Chrome/138.0.0.0 Safari/537.36","WebKit","Chrome","138.0.0.0","Windows","10.0","https://app.prolific.com/","en-US,en;q=0.9","5d1290103b20b0000102e8e3","683db7602f5db6a34d12d064","686e2a819f8d7f413b8f7800","1","5d1290103b20b0000102e8e3","1","2025-07-09T08:41:54.667Z","","","","","","","","","","","","","","win-only","0","g1:NW,g2:SE","1","1","0","132601.3","5741.4","10744.7","39603","1","4","8","6","2","8","8","8","0","0.06060606060606061","5003.2","3000","485","[""down"",""right""]","{""num_key_presses"":6,""num_perfect"":6,""num_errors"":0,""num_randdir"":0,""num_randdir_good_moves"":0,""num_whilered"":0,""num_whileblue"":0,""num_blue"":3,""num_good_moves"":6}","[419.57142857142856,416.1808016640799,2,419.57142857142856,416.1808016640799,110.8,419.57142857142856,416.1808016640799,211.8,419.57142857142856,416.1808016640799,315.5,419.57142857142856,416.1808016640799,417.6,419.57142857142856,416.1808016640799,517.8,419.57142857142856,416.1808016640799,624.9,419.57142857142856,416.1808016640799,731.1,419.57142857142856,416.1808016640799,837.7,419.57142857142856,416.1808016640799,939.7,419.57142857142856,416.1808016640799,1040.5,419.57142857142856,416.1808016640799,1142.6,419.57142857142856,416.1808016640799,1243.1,419.57142857142856,416.1808016640799,1351,419.57142857142856,416.1808016640799,1456,419.57142857142856,416.1808016640799,1561.3,419.57142857142856,416.1808016640799,1671,419.57142857142856,416.1808016640799,1775.6,419.57142857142856,416.1808016640799,1880.7,419.57142857142856,416.1808016640799,1984,419.57142857142856,416.1808016640799,2091,419.57142857142856,416.1808016640799,2199.8,419.57142857142856,416.1808016640799,2305.2,419.57142857142856,416.1808016640799,2406.4,419.57142857142856,416.1808016640799,2507.4,419.57142857142856,416.1808016640799,2609.9,419.57142857142856,416.1808016640799,2716.5,419.57142857142856,416.1808016640799,2817.8,419.57142857142856,416.1808016640799,2921.3,419.57142857142856,416.1808016640799,3023.2,419.57142857142856,416.1808016640799,3126.2,419.57142857142856,416.1808016640799,3226.9,419.57142857142856,416.1808016640799,3336.3,419.57142857142856,416.1808016640799,3442.7,419.57142857142856,416.1808016640799,3543.8,419.57142857142856,416.1808016640799,3652.2,419.57142857142856,416.1808016640799,3758.8,419.57142857142856,416.1808016640799,3858.8,419.57142857142856,416.1808016640799,3959.4,419.57142857142856,416.1808016640799,4060.6,419.57142857142856,416.1808016640799,4165.9,419.57142857142856,416.1808016640799,4266.2,419.57142857142856,416.1808016640799,4368.2,419.57142857142856,416.1808016640799,4469.2,419.57142857142856,416.1808016640799,4576.6,419.57142857142856,416.1808016640799,4680.5,419.57142857142856,416.1808016640799,4780.8,419.57142857142856,416.1808016640799,4882.5,419.57142857142856,416.1808016640799,4983.6]","[1643.5,1643.5,1000,0,643.5,""smooth"",""down"",""down"",""good_move"",8483,6836.2,2615.6,5248.2,619.2,""smooth"",""right"",""right"",""good_move"",12092,3606.1,2919.3,8485.9,686.9,""smooth"",""down"",""down"",""good_move"",18097.5,6003.9,2303.5,15334.6,459.5,""smooth"",""right"",""right"",""good_move"",25364.3,7265.9,3319.6,21509.1,535.6,""smooth"",""down"",""down"",""good_move"",28731.7,3366.3,2706.5,25365.4,659.8,""smooth"",""right"",""right"",""good_move""]","",""
"5894","","<div style=""width:500px;"">
  <p>What determined the result of this run?</p>
  </div>","73","html-slider-response","10","176846","0.0-5.0-1.0","6","1","2025-07-09 08:38:59","01610cd0009c79a99da7d0a3353eb402","31.52.104.175","Mozilla/5.0 (Windows NT 10.0; Win64; x64) AppleWebKit/537.36 (KHTML, like Gecko) Chrome/138.0.0.0 Safari/537.36","WebKit","Chrome","138.0.0.0","Windows","10.0","https://app.prolific.com/","en-US,en;q=0.9","5d1290103b20b0000102e8e3","683db7602f5db6a34d12d064","686e2a819f8d7f413b8f7800","1","5d1290103b20b0000102e8e3","1","2025-07-09T08:42:00.563Z","","","","","","","","","","","AttribQ","","50","","","","","","","","","","","","","","","","","","","","","","","","","","","","",""
"3568","","<div style=""width:500px;"">
  <p>How much control did you have over the ball?</p>
  </div>","65","html-slider-response","11","180416","0.0-5.0-2.0","6","1","2025-07-09 08:38:59","01610cd0009c79a99da7d0a3353eb402","31.52.104.175","Mozilla/5.0 (Windows NT 10.0; Win64; x64) AppleWebKit/537.36 (KHTML, like Gecko) Chrome/138.0.0.0 Safari/537.36","WebKit","Chrome","138.0.0.0","Windows","10.0","https://app.prolific.com/","en-US,en;q=0.9","5d1290103b20b0000102e8e3","683db7602f5db6a34d12d064","686e2a819f8d7f413b8f7800","1","5d1290103b20b0000102e8e3","1","2025-07-09T08:42:04.133Z","","","","","","","","","","","ControlQ","","50","","","","","","","","","","","","","","","","","","","","","","","","","","","","",""
"4797","","<div style=""width:500px;"">
  <p>How would you describe your current emotional state?</p>
  </div>","33","html-slider-response","12","185215","0.0-5.0-3.0","6","1","2025-07-09 08:38:59","01610cd0009c79a99da7d0a3353eb402","31.52.104.175","Mozilla/5.0 (Windows NT 10.0; Win64; x64) AppleWebKit/537.36 (KHTML, like Gecko) Chrome/138.0.0.0 Safari/537.36","WebKit","Chrome","138.0.0.0","Windows","10.0","https://app.prolific.com/","en-US,en;q=0.9","5d1290103b20b0000102e8e3","683db7602f5db6a34d12d064","686e2a819f8d7f413b8f7800","1","5d1290103b20b0000102e8e3","1","2025-07-09T08:42:08.933Z","","","","","","","","","","","StressQ","","50","","","","","","","","","","","","","","","","","","","","","","","","","","","","",""
"4155","","<div style=""width:500px;"">
  <p>What best describes how you currently feel?</p>
  </div>","79","html-slider-response","13","189373","0.0-5.0-4.0","6","1","2025-07-09 08:38:59","01610cd0009c79a99da7d0a3353eb402","31.52.104.175","Mozilla/5.0 (Windows NT 10.0; Win64; x64) AppleWebKit/537.36 (KHTML, like Gecko) Chrome/138.0.0.0 Safari/537.36","WebKit","Chrome","138.0.0.0","Windows","10.0","https://app.prolific.com/","en-US,en;q=0.9","5d1290103b20b0000102e8e3","683db7602f5db6a34d12d064","686e2a819f8d7f413b8f7800","1","5d1290103b20b0000102e8e3","1","2025-07-09T08:42:13.091Z","","","","","","","","","","","MotivationQ","","50","","","","","","","","","","","","","","","","","","","","","","","","","","","","",""
"","","","","ctl-task-cpt","14","230419","0.0-5.0-0.1","6","1","2025-07-09 08:38:59","01610cd0009c79a99da7d0a3353eb402","31.52.104.175","Mozilla/5.0 (Windows NT 10.0; Win64; x64) AppleWebKit/537.36 (KHTML, like Gecko) Chrome/138.0.0.0 Safari/537.36","WebKit","Chrome","138.0.0.0","Windows","10.0","https://app.prolific.com/","en-US,en;q=0.9","5d1290103b20b0000102e8e3","683db7602f5db6a34d12d064","686e2a819f8d7f413b8f7800","1","5d1290103b20b0000102e8e3","1","2025-07-09T08:42:54.136Z","","","","","","","","","","","","","","win-only","3","g1:SW,g2:NE","0.9","2","0","193634.6","4893.5","9902.7","38041","1","4","4","6","1","1","1","9","8","0.06818181818181818","5009.1","3000","100","[""down"",""left""]","{""num_key_presses"":6,""num_perfect"":5,""num_errors"":0,""num_randdir"":1,""num_randdir_good_moves"":0,""num_whilered"":0,""num_whileblue"":0,""num_blue"":3,""num_good_moves"":5}","[419.57142857142856,413.1808016640799,0.9,419.57142857142856,413.1808016640799,103.5,419.57142857142856,413.1808016640799,212.6,500.57142857142856,390.6808016640799,314.1,1375.0714285714287,257.1808016640799,418,1375.0714285714287,257.1808016640799,526.6,1375.0714285714287,257.1808016640799,626.8,1375.0714285714287,257.1808016640799,729.7,1375.0714285714287,257.1808016640799,832.5,1375.0714285714287,257.1808016640799,932.9,1375.0714285714287,257.1808016640799,1033.1,1375.0714285714287,257.1808016640799,1142.4,1375.0714285714287,257.1808016640799,1242.6,1375.0714285714287,257.1808016640799,1342.9,1375.0714285714287,257.1808016640799,1444,1375.0714285714287,257.1808016640799,1553.6,1375.0714285714287,257.1808016640799,1655.6,1375.0714285714287,257.1808016640799,1760.8,1375.0714285714287,257.1808016640799,1861.1,1375.0714285714287,257.1808016640799,1962.2,1375.0714285714287,257.1808016640799,2063.7,1375.0714285714287,257.1808016640799,2167.5,1375.0714285714287,257.1808016640799,2269.3,1375.0714285714287,257.1808016640799,2369.3,1375.0714285714287,257.1808016640799,2471.6,1375.0714285714287,257.1808016640799,2574.3,1375.0714285714287,257.1808016640799,2682,1375.0714285714287,257.1808016640799,2782.6,1375.0714285714287,257.1808016640799,2883.8,1375.0714285714287,257.1808016640799,2986.5,1375.0714285714287,257.1808016640799,3089.6,1375.0714285714287,257.1808016640799,3190.1,1375.0714285714287,257.1808016640799,3299.7,1375.0714285714287,257.1808016640799,3404.8,1375.0714285714287,257.1808016640799,3507,1375.0714285714287,257.1808016640799,3611.7,1375.0714285714287,257.1808016640799,3716.2,1375.0714285714287,257.1808016640799,3820,1375.0714285714287,257.1808016640799,3922.1,1375.0714285714287,257.1808016640799,4022.4,1375.0714285714287,257.1808016640799,4132.7,1375.0714285714287,257.1808016640799,4233,1375.0714285714287,257.1808016640799,4334.8,1375.0714285714287,257.1808016640799,4435.8,1375.0714285714287,257.1808016640799,4538.5,1375.0714285714287,257.1808016640799,4640.4,1375.0714285714287,257.1808016640799,4741.2,1375.0714285714287,257.1808016640799,4843.2,1375.0714285714287,257.1808016640799,4949.5]","[2042.2,2042.2,1000,0,1042.2,""smooth"",""down"",""down"",""good_move"",5306.9,3263.9,2553.4,2043,710.5,""smooth"",""down"",""down"",""good_move"",8153.5,2845.6,2134.6,5307.9,711,""oops"",""left"",""right"",""bad_move"",15421.1,7265.6,3077.2,11905.7,438.3,""smooth"",""left"",""left"",""good_move"",18115.6,2693.1,2206.1,15422.6,486.9,""smooth"",""left"",""left"",""good_move"",28009.2,9892.6,2867.7,24738.9,402.6,""smooth"",""left"",""left"",""good_move""]","",""
"7190","","<div style=""width:500px;"">
  <p>What determined the result of this run?</p>
  </div>","57","html-slider-response","15","237612","0.0-5.0-1.1","6","1","2025-07-09 08:38:59","01610cd0009c79a99da7d0a3353eb402","31.52.104.175","Mozilla/5.0 (Windows NT 10.0; Win64; x64) AppleWebKit/537.36 (KHTML, like Gecko) Chrome/138.0.0.0 Safari/537.36","WebKit","Chrome","138.0.0.0","Windows","10.0","https://app.prolific.com/","en-US,en;q=0.9","5d1290103b20b0000102e8e3","683db7602f5db6a34d12d064","686e2a819f8d7f413b8f7800","1","5d1290103b20b0000102e8e3","1","2025-07-09T08:43:01.329Z","","","","","","","","","","","AttribQ","","50","","","","","","","","","","","","","","","","","","","","","","","","","","","","",""
"6306","","<div style=""width:500px;"">
  <p>How much control did you have over the ball?</p>
  </div>","63","html-slider-response","16","243920","0.0-5.0-2.1","6","1","2025-07-09 08:38:59","01610cd0009c79a99da7d0a3353eb402","31.52.104.175","Mozilla/5.0 (Windows NT 10.0; Win64; x64) AppleWebKit/537.36 (KHTML, like Gecko) Chrome/138.0.0.0 Safari/537.36","WebKit","Chrome","138.0.0.0","Windows","10.0","https://app.prolific.com/","en-US,en;q=0.9","5d1290103b20b0000102e8e3","683db7602f5db6a34d12d064","686e2a819f8d7f413b8f7800","1","5d1290103b20b0000102e8e3","1","2025-07-09T08:43:07.638Z","","","","","","","","","","","ControlQ","","50","","","","","","","","","","","","","","","","","","","","","","","","","","","","",""
"4043","","<div style=""width:500px;"">
  <p>How would you describe your current emotional state?</p>
  </div>","57","html-slider-response","17","247966","0.0-5.0-3.1","6","1","2025-07-09 08:38:59","01610cd0009c79a99da7d0a3353eb402","31.52.104.175","Mozilla/5.0 (Windows NT 10.0; Win64; x64) AppleWebKit/537.36 (KHTML, like Gecko) Chrome/138.0.0.0 Safari/537.36","WebKit","Chrome","138.0.0.0","Windows","10.0","https://app.prolific.com/","en-US,en;q=0.9","5d1290103b20b0000102e8e3","683db7602f5db6a34d12d064","686e2a819f8d7f413b8f7800","1","5d1290103b20b0000102e8e3","1","2025-07-09T08:43:11.683Z","","","","","","","","","","","StressQ","","50","","","","","","","","","","","","","","","","","","","","","","","","","","","","",""
"3581","","<div style=""width:500px;"">
  <p>What best describes how you currently feel?</p>
  </div>","77","html-slider-response","18","251549","0.0-5.0-4.1","6","1","2025-07-09 08:38:59","01610cd0009c79a99da7d0a3353eb402","31.52.104.175","Mozilla/5.0 (Windows NT 10.0; Win64; x64) AppleWebKit/537.36 (KHTML, like Gecko) Chrome/138.0.0.0 Safari/537.36","WebKit","Chrome","138.0.0.0","Windows","10.0","https://app.prolific.com/","en-US,en;q=0.9","5d1290103b20b0000102e8e3","683db7602f5db6a34d12d064","686e2a819f8d7f413b8f7800","1","5d1290103b20b0000102e8e3","1","2025-07-09T08:43:15.266Z","","","","","","","","","","","MotivationQ","","50","","","","","","","","","","","","","","","","","","","","","","","","","","","","",""
"","","","","ctl-task-cpt","19","289086","0.0-5.0-0.2","6","1","2025-07-09 08:38:59","01610cd0009c79a99da7d0a3353eb402","31.52.104.175","Mozilla/5.0 (Windows NT 10.0; Win64; x64) AppleWebKit/537.36 (KHTML, like Gecko) Chrome/138.0.0.0 Safari/537.36","WebKit","Chrome","138.0.0.0","Windows","10.0","https://app.prolific.com/","en-US,en;q=0.9","5d1290103b20b0000102e8e3","683db7602f5db6a34d12d064","686e2a819f8d7f413b8f7800","1","5d1290103b20b0000102e8e3","1","2025-07-09T08:43:52.803Z","","","","","","","","","","","","","","win-only","3","g1:SW,g2:NE","0.8","3","0","255812.5","1587.7","6592.2","34521.5","1","4","4","6","2","4","4","13","9","0.09848484848484848","5004.5","3000","405","[""up"",""right""]","{""num_key_presses"":8,""num_perfect"":7,""num_errors"":0,""num_randdir"":1,""num_randdir_good_moves"":0,""num_whilered"":0,""num_whileblue"":0,""num_blue"":2,""num_good_moves"":7}","[418.07142857142856,413.1808016640799,0.3,418.07142857142856,413.1808016640799,111.7,418.07142857142856,413.1808016640799,215,418.07142857142856,413.1808016640799,320,1250.5714285714287,314.1808016640799,423.2,1375.0714285714287,306.6808016640799,524.9,1375.0714285714287,306.6808016640799,625.8,1375.0714285714287,306.6808016640799,730.9,1375.0714285714287,306.6808016640799,833.2,1375.0714285714287,306.6808016640799,934.9,1375.0714285714287,306.6808016640799,1038.1,1375.0714285714287,306.6808016640799,1143.3,1375.0714285714287,306.6808016640799,1243.3,1375.0714285714287,306.6808016640799,1346.9,1375.0714285714287,306.6808016640799,1448.5,1375.0714285714287,306.6808016640799,1554.9,1375.0714285714287,306.6808016640799,1662.4,1375.0714285714287,306.6808016640799,1766.9,1375.0714285714287,306.6808016640799,1877.9,1375.0714285714287,306.6808016640799,1978.2,1375.0714285714287,306.6808016640799,2084.2,1375.0714285714287,306.6808016640799,2186.1,1375.0714285714287,306.6808016640799,2287.5,1375.0714285714287,306.6808016640799,2395.4,1375.0714285714287,306.6808016640799,2510.5,1375.0714285714287,306.6808016640799,2620.3,1375.0714285714287,306.6808016640799,2721.1,1375.0714285714287,306.6808016640799,2825.4,1375.0714285714287,306.6808016640799,2931.9,1375.0714285714287,306.6808016640799,3033.3,1375.0714285714287,306.6808016640799,3133.7,1375.0714285714287,306.6808016640799,3242.2,1375.0714285714287,306.6808016640799,3347.5,1375.0714285714287,306.6808016640799,3450.6,1375.0714285714287,306.6808016640799,3551.8,1375.0714285714287,306.6808016640799,3655.1,1375.0714285714287,306.6808016640799,3764.7,1375.0714285714287,306.6808016640799,3867.3,1375.0714285714287,306.6808016640799,3973.6,1375.0714285714287,306.6808016640799,4074.5,1375.0714285714287,306.6808016640799,4174.9,1375.0714285714287,306.6808016640799,4276.9,1375.0714285714287,306.6808016640799,4383.1,1375.0714285714287,306.6808016640799,4486.6,1375.0714285714287,306.6808016640799,4589.5,1375.0714285714287,306.6808016640799,4689.7,1375.0714285714287,306.6808016640799,4790.9,1375.0714285714287,306.6808016640799,4893.4,1375.0714285714287,306.6808016640799,4993.5]","[1490.6,1490.6,1000,0,490.6,""smooth"",""up"",""up"",""good_move"",7442.8,5951.4,2180.4,4785.7,476.7,""oops"",""up"",""left"",""bad_move"",9907.8,2463.9,1896.7,7444,567.1,""smooth"",""up"",""up"",""good_move"",13042.3,3133.8,2685,9908.5,448.9,""smooth"",""up"",""up"",""good_move"",19457.4,6414.3,2268.5,16759.3,429.7,""smooth"",""right"",""right"",""good_move"",22220.9,2761.1,2248.6,19459.8,512.5,""smooth"",""right"",""right"",""good_move"",24990.4,2768.4,2292.9,22222,475.5,""smooth"",""right"",""right"",""good_move"",27801.3,2810,2356,24991.4,453.9,""smooth"",""right"",""right"",""good_move""]","",""
"4995","","<div style=""width:500px;"">
  <p>What determined the result of this run?</p>
  </div>","72","html-slider-response","20","294083","0.0-5.0-1.2","6","1","2025-07-09 08:38:59","01610cd0009c79a99da7d0a3353eb402","31.52.104.175","Mozilla/5.0 (Windows NT 10.0; Win64; x64) AppleWebKit/537.36 (KHTML, like Gecko) Chrome/138.0.0.0 Safari/537.36","WebKit","Chrome","138.0.0.0","Windows","10.0","https://app.prolific.com/","en-US,en;q=0.9","5d1290103b20b0000102e8e3","683db7602f5db6a34d12d064","686e2a819f8d7f413b8f7800","1","5d1290103b20b0000102e8e3","1","2025-07-09T08:43:57.800Z","","","","","","","","","","","AttribQ","","50","","","","","","","","","","","","","","","","","","","","","","","","","","","","",""
"5168","","<div style=""width:500px;"">
  <p>How much control did you have over the ball?</p>
  </div>","75","html-slider-response","21","299253","0.0-5.0-2.2","6","1","2025-07-09 08:38:59","01610cd0009c79a99da7d0a3353eb402","31.52.104.175","Mozilla/5.0 (Windows NT 10.0; Win64; x64) AppleWebKit/537.36 (KHTML, like Gecko) Chrome/138.0.0.0 Safari/537.36","WebKit","Chrome","138.0.0.0","Windows","10.0","https://app.prolific.com/","en-US,en;q=0.9","5d1290103b20b0000102e8e3","683db7602f5db6a34d12d064","686e2a819f8d7f413b8f7800","1","5d1290103b20b0000102e8e3","1","2025-07-09T08:44:02.971Z","","","","","","","","","","","ControlQ","","50","","","","","","","","","","","","","","","","","","","","","","","","","","","","",""
"4632","","<div style=""width:500px;"">
  <p>How would you describe your current emotional state?</p>
  </div>","49","html-slider-response","22","303888","0.0-5.0-3.2","6","1","2025-07-09 08:38:59","01610cd0009c79a99da7d0a3353eb402","31.52.104.175","Mozilla/5.0 (Windows NT 10.0; Win64; x64) AppleWebKit/537.36 (KHTML, like Gecko) Chrome/138.0.0.0 Safari/537.36","WebKit","Chrome","138.0.0.0","Windows","10.0","https://app.prolific.com/","en-US,en;q=0.9","5d1290103b20b0000102e8e3","683db7602f5db6a34d12d064","686e2a819f8d7f413b8f7800","1","5d1290103b20b0000102e8e3","1","2025-07-09T08:44:07.605Z","","","","","","","","","","","StressQ","","50","","","","","","","","","","","","","","","","","","","","","","","","","","","","",""
"3093","","<div style=""width:500px;"">
  <p>What best describes how you currently feel?</p>
  </div>","80","html-slider-response","23","306982","0.0-5.0-4.2","6","1","2025-07-09 08:38:59","01610cd0009c79a99da7d0a3353eb402","31.52.104.175","Mozilla/5.0 (Windows NT 10.0; Win64; x64) AppleWebKit/537.36 (KHTML, like Gecko) Chrome/138.0.0.0 Safari/537.36","WebKit","Chrome","138.0.0.0","Windows","10.0","https://app.prolific.com/","en-US,en;q=0.9","5d1290103b20b0000102e8e3","683db7602f5db6a34d12d064","686e2a819f8d7f413b8f7800","1","5d1290103b20b0000102e8e3","1","2025-07-09T08:44:10.699Z","","","","","","","","","","","MotivationQ","","50","","","","","","","","","","","","","","","","","","","","","","","","","","","","",""
"","","","","ctl-task-cpt","24","333635","0.0-5.0-0.3","6","1","2025-07-09 08:38:59","01610cd0009c79a99da7d0a3353eb402","31.52.104.175","Mozilla/5.0 (Windows NT 10.0; Win64; x64) AppleWebKit/537.36 (KHTML, like Gecko) Chrome/138.0.0.0 Safari/537.36","WebKit","Chrome","138.0.0.0","Windows","10.0","https://app.prolific.com/","en-US,en;q=0.9","5d1290103b20b0000102e8e3","683db7602f5db6a34d12d064","686e2a819f8d7f413b8f7800","1","5d1290103b20b0000102e8e3","1","2025-07-09T08:44:37.352Z","","","","","","","","","","","","","","win-only","2","g1:SE,g2:NW","0.7","4","0","311244.8","2535.5","7537.2","23634.3","1","4","8","6","1","1","0","13","13","0.09848484848484848","5001.7","3000","1220","[""down"",""right""]","{""num_key_presses"":5,""num_perfect"":3,""num_errors"":1,""num_randdir"":1,""num_randdir_good_moves"":1,""num_whilered"":0,""num_whileblue"":0,""num_blue"":1,""num_good_moves"":4}","[410.57142857142856,420.6808016640799,0.2,410.57142857142856,420.6808016640799,108.2,410.57142857142856,420.6808016640799,220.4,410.57142857142856,420.6808016640799,326.1,1133.5714285714287,354.6808016640799,433,1220.5714285714287,368.1808016640799,546.1,1220.5714285714287,368.1808016640799,651.1,1220.5714285714287,368.1808016640799,754.6,1220.5714285714287,368.1808016640799,860.8,1220.5714285714287,368.1808016640799,964.8,1220.5714285714287,368.1808016640799,1067.1,1220.5714285714287,368.1808016640799,1183.2,1220.5714285714287,368.1808016640799,1302.2,1220.5714285714287,368.1808016640799,1414.4,1220.5714285714287,368.1808016640799,1514.8,1220.5714285714287,368.1808016640799,1616,1220.5714285714287,368.1808016640799,1718.2,1220.5714285714287,368.1808016640799,1821.8,1220.5714285714287,368.1808016640799,1930.7,1220.5714285714287,368.1808016640799,2033.1,1220.5714285714287,368.1808016640799,2140.2,1220.5714285714287,368.1808016640799,2241.2,1220.5714285714287,368.1808016640799,2342.1,1220.5714285714287,368.1808016640799,2442.7,1220.5714285714287,368.1808016640799,2546.1,1220.5714285714287,368.1808016640799,2647.3,1220.5714285714287,368.1808016640799,2751.5,1220.5714285714287,368.1808016640799,2861.2,1220.5714285714287,368.1808016640799,2969.4,1220.5714285714287,368.1808016640799,3072.4,1220.5714285714287,368.1808016640799,3179.6,1220.5714285714287,368.1808016640799,3281.7,1220.5714285714287,368.1808016640799,3389.5,1220.5714285714287,368.1808016640799,3496.8,1220.5714285714287,368.1808016640799,3601.2,1220.5714285714287,368.1808016640799,3707.6,1220.5714285714287,368.1808016640799,3814.4,1220.5714285714287,368.1808016640799,3921,1220.5714285714287,368.1808016640799,4031.4,1220.5714285714287,368.1808016640799,4131.9,1220.5714285714287,368.1808016640799,4236.3,1220.5714285714287,368.1808016640799,4336.7,1220.5714285714287,368.1808016640799,4450.4,1220.5714285714287,368.1808016640799,4550.5,1220.5714285714287,368.1808016640799,4651.5,1220.5714285714287,368.1808016640799,4756.5,1220.5714285714287,368.1808016640799,4863.1,1220.5714285714287,368.1808016640799,4973]","[414.6,414.6,1000,0,-585.4,""error"",""-"",""-"",""no_move"",3576.7,3161.4,1517.8,1420.3,638.6,""smooth"",""down"",""down"",""good_move"",10979.7,7402.1,2494.9,7756.3,728.6,""smooth"",""right"",""right"",""good_move"",13417.4,2435.9,1544.5,10981.6,891.3,""oops"",""right"",""right"",""good_move"",15962.5,2544.5,2055.2,13418,489.3,""smooth"",""down"",""down"",""good_move""]","",""
"3684","","<div style=""width:500px;"">
  <p>What determined the result of this run?</p>
  </div>","68","html-slider-response","25","337325","0.0-5.0-1.3","6","1","2025-07-09 08:38:59","01610cd0009c79a99da7d0a3353eb402","31.52.104.175","Mozilla/5.0 (Windows NT 10.0; Win64; x64) AppleWebKit/537.36 (KHTML, like Gecko) Chrome/138.0.0.0 Safari/537.36","WebKit","Chrome","138.0.0.0","Windows","10.0","https://app.prolific.com/","en-US,en;q=0.9","5d1290103b20b0000102e8e3","683db7602f5db6a34d12d064","686e2a819f8d7f413b8f7800","1","5d1290103b20b0000102e8e3","1","2025-07-09T08:44:41.043Z","","","","","","","","","","","AttribQ","","50","","","","","","","","","","","","","","","","","","","","","","","","","","","","",""
"4605","","<div style=""width:500px;"">
  <p>How much control did you have over the ball?</p>
  </div>","70","html-slider-response","26","341952","0.0-5.0-2.3","6","1","2025-07-09 08:38:59","01610cd0009c79a99da7d0a3353eb402","31.52.104.175","Mozilla/5.0 (Windows NT 10.0; Win64; x64) AppleWebKit/537.36 (KHTML, like Gecko) Chrome/138.0.0.0 Safari/537.36","WebKit","Chrome","138.0.0.0","Windows","10.0","https://app.prolific.com/","en-US,en;q=0.9","5d1290103b20b0000102e8e3","683db7602f5db6a34d12d064","686e2a819f8d7f413b8f7800","1","5d1290103b20b0000102e8e3","1","2025-07-09T08:44:45.669Z","","","","","","","","","","","ControlQ","","50","","","","","","","","","","","","","","","","","","","","","","","","","","","","",""
"3966","","<div style=""width:500px;"">
  <p>How would you describe your current emotional state?</p>
  </div>","61","html-slider-response","27","345924","0.0-5.0-3.3","6","1","2025-07-09 08:38:59","01610cd0009c79a99da7d0a3353eb402","31.52.104.175","Mozilla/5.0 (Windows NT 10.0; Win64; x64) AppleWebKit/537.36 (KHTML, like Gecko) Chrome/138.0.0.0 Safari/537.36","WebKit","Chrome","138.0.0.0","Windows","10.0","https://app.prolific.com/","en-US,en;q=0.9","5d1290103b20b0000102e8e3","683db7602f5db6a34d12d064","686e2a819f8d7f413b8f7800","1","5d1290103b20b0000102e8e3","1","2025-07-09T08:44:49.643Z","","","","","","","","","","","StressQ","","50","","","","","","","","","","","","","","","","","","","","","","","","","","","","",""
"3852","","<div style=""width:500px;"">
  <p>What best describes how you currently feel?</p>
  </div>","72","html-slider-response","28","349798","0.0-5.0-4.3","6","1","2025-07-09 08:38:59","01610cd0009c79a99da7d0a3353eb402","31.52.104.175","Mozilla/5.0 (Windows NT 10.0; Win64; x64) AppleWebKit/537.36 (KHTML, like Gecko) Chrome/138.0.0.0 Safari/537.36","WebKit","Chrome","138.0.0.0","Windows","10.0","https://app.prolific.com/","en-US,en;q=0.9","5d1290103b20b0000102e8e3","683db7602f5db6a34d12d064","686e2a819f8d7f413b8f7800","1","5d1290103b20b0000102e8e3","1","2025-07-09T08:44:53.517Z","","","","","","","","","","","MotivationQ","","50","","","","","","","","","","","","","","","","","","","","","","","","","","","","",""
"","","","","ctl-task-cpt","29","394453","0.0-5.0-0.4","6","1","2025-07-09 08:38:59","01610cd0009c79a99da7d0a3353eb402","31.52.104.175","Mozilla/5.0 (Windows NT 10.0; Win64; x64) AppleWebKit/537.36 (KHTML, like Gecko) Chrome/138.0.0.0 Safari/537.36","WebKit","Chrome","138.0.0.0","Windows","10.0","https://app.prolific.com/","en-US,en;q=0.9","5d1290103b20b0000102e8e3","683db7602f5db6a34d12d064","686e2a819f8d7f413b8f7800","1","5d1290103b20b0000102e8e3","1","2025-07-09T08:45:38.170Z","","","","","","","","","","","","","","win-only","1","g1:NE,g2:SW","0.6","5","0","354074.9","2023.4","7028.5","41617.8","1","4","4","6","2","-4","-4","9","13","0.06818181818181818","5005.1","3000","-1940","[""down"",""left""]","{""num_key_presses"":9,""num_perfect"":5,""num_errors"":0,""num_randdir"":4,""num_randdir_good_moves"":2,""num_whilered"":0,""num_whileblue"":0,""num_blue"":2,""num_good_moves"":7}","[416.57142857142856,413.1808016640799,1.1,416.57142857142856,413.1808016640799,102.3,416.57142857142856,413.1808016640799,202.7,416.57142857142856,413.1808016640799,316.5,1094.5714285714287,206.18080166407992,422.2,1352.5714285714287,117.68080166407994,526.7,1352.5714285714287,117.68080166407994,627.4,1352.5714285714287,117.68080166407994,730,1352.5714285714287,117.68080166407994,831.1,1352.5714285714287,117.68080166407994,932.8,1352.5714285714287,117.68080166407994,1033.3,1352.5714285714287,117.68080166407994,1135.5,1352.5714285714287,117.68080166407994,1249.3,1352.5714285714287,117.68080166407994,1349.8,1352.5714285714287,117.68080166407994,1451.7,1352.5714285714287,117.68080166407994,1555.5,1352.5714285714287,117.68080166407994,1665.2,1352.5714285714287,117.68080166407994,1767.6,1352.5714285714287,117.68080166407994,1878.3,1352.5714285714287,117.68080166407994,1983.9,1352.5714285714287,117.68080166407994,2088.1,1352.5714285714287,117.68080166407994,2193,1352.5714285714287,117.68080166407994,2299.1,1352.5714285714287,117.68080166407994,2403.6,1352.5714285714287,117.68080166407994,2514.9,1352.5714285714287,117.68080166407994,2621.8,1352.5714285714287,117.68080166407994,2723.7,1352.5714285714287,117.68080166407994,2827,1352.5714285714287,117.68080166407994,2931.6,1352.5714285714287,117.68080166407994,3032.9,1352.5714285714287,117.68080166407994,3137.9,1352.5714285714287,117.68080166407994,3253.3,1352.5714285714287,117.68080166407994,3354.6,1352.5714285714287,117.68080166407994,3474.7,1352.5714285714287,117.68080166407994,3577.9,1352.5714285714287,117.68080166407994,3681.1,1352.5714285714287,117.68080166407994,3785,1352.5714285714287,117.68080166407994,3894.5,1352.5714285714287,117.68080166407994,3996.4,1352.5714285714287,117.68080166407994,4101.9,1352.5714285714287,117.68080166407994,4203.3,1352.5714285714287,117.68080166407994,4316.2,1352.5714285714287,117.68080166407994,4431.6,1352.5714285714287,117.68080166407994,4532.2,1352.5714285714287,117.68080166407994,4637.8,1352.5714285714287,117.68080166407994,4745.2,1352.5714285714287,117.68080166407994,4846.4,1352.5714285714287,117.68080166407994,4956.6]","[1559.8,1559.8,1000,0,559.8,""smooth"",""left"",""left"",""good_move"",7199,5636.6,2455.8,4116,627.2,""smooth"",""down"",""down"",""good_move"",13533.3,6333,1804.8,11227.5,501,""smooth"",""down"",""down"",""good_move"",17129.7,3596,2946.7,13533.7,649.3,""oops"",""down"",""right"",""bad_move"",19336.4,2205.3,1375.9,17131.1,829.4,""oops"",""down"",""left"",""good_move"",22727.1,3389.8,2904.6,19337.3,485.2,""oops"",""down"",""up"",""bad_move"",25603.9,2875.8,2424.4,22728.1,451.4,""oops"",""down"",""down"",""good_move"",28391.1,2786.3,2376.6,25604.9,409.7,""smooth"",""left"",""left"",""good_move"",32025.4,3631.6,3207.1,28393.8,424.5,""smooth"",""down"",""down"",""good_move""]","",""
"4674","","<div style=""width:500px;"">
  <p>What determined the result of this run?</p>
  </div>","33","html-slider-response","30","399136","0.0-5.0-1.4","6","1","2025-07-09 08:38:59","01610cd0009c79a99da7d0a3353eb402","31.52.104.175","Mozilla/5.0 (Windows NT 10.0; Win64; x64) AppleWebKit/537.36 (KHTML, like Gecko) Chrome/138.0.0.0 Safari/537.36","WebKit","Chrome","138.0.0.0","Windows","10.0","https://app.prolific.com/","en-US,en;q=0.9","5d1290103b20b0000102e8e3","683db7602f5db6a34d12d064","686e2a819f8d7f413b8f7800","1","5d1290103b20b0000102e8e3","1","2025-07-09T08:45:42.854Z","","","","","","","","","","","AttribQ","","50","","","","","","","","","","","","","","","","","","","","","","","","","","","","",""
"4734","","<div style=""width:500px;"">
  <p>How much control did you have over the ball?</p>
  </div>","17","html-slider-response","31","403902","0.0-5.0-2.4","6","1","2025-07-09 08:38:59","01610cd0009c79a99da7d0a3353eb402","31.52.104.175","Mozilla/5.0 (Windows NT 10.0; Win64; x64) AppleWebKit/537.36 (KHTML, like Gecko) Chrome/138.0.0.0 Safari/537.36","WebKit","Chrome","138.0.0.0","Windows","10.0","https://app.prolific.com/","en-US,en;q=0.9","5d1290103b20b0000102e8e3","683db7602f5db6a34d12d064","686e2a819f8d7f413b8f7800","1","5d1290103b20b0000102e8e3","1","2025-07-09T08:45:47.621Z","","","","","","","","","","","ControlQ","","50","","","","","","","","","","","","","","","","","","","","","","","","","","","","",""
"4107","","<div style=""width:500px;"">
  <p>How would you describe your current emotional state?</p>
  </div>","68","html-slider-response","32","408034","0.0-5.0-3.4","6","1","2025-07-09 08:38:59","01610cd0009c79a99da7d0a3353eb402","31.52.104.175","Mozilla/5.0 (Windows NT 10.0; Win64; x64) AppleWebKit/537.36 (KHTML, like Gecko) Chrome/138.0.0.0 Safari/537.36","WebKit","Chrome","138.0.0.0","Windows","10.0","https://app.prolific.com/","en-US,en;q=0.9","5d1290103b20b0000102e8e3","683db7602f5db6a34d12d064","686e2a819f8d7f413b8f7800","1","5d1290103b20b0000102e8e3","1","2025-07-09T08:45:51.752Z","","","","","","","","","","","StressQ","","50","","","","","","","","","","","","","","","","","","","","","","","","","","","","",""
"4862","","<div style=""width:500px;"">
  <p>What best describes how you currently feel?</p>
  </div>","67","html-slider-response","33","412907","0.0-5.0-4.4","6","1","2025-07-09 08:38:59","01610cd0009c79a99da7d0a3353eb402","31.52.104.175","Mozilla/5.0 (Windows NT 10.0; Win64; x64) AppleWebKit/537.36 (KHTML, like Gecko) Chrome/138.0.0.0 Safari/537.36","WebKit","Chrome","138.0.0.0","Windows","10.0","https://app.prolific.com/","en-US,en;q=0.9","5d1290103b20b0000102e8e3","683db7602f5db6a34d12d064","686e2a819f8d7f413b8f7800","1","5d1290103b20b0000102e8e3","1","2025-07-09T08:45:56.624Z","","","","","","","","","","","MotivationQ","","50","","","","","","","","","","","","","","","","","","","","","","","","","","","","",""
"","","","","ctl-task-cpt","34","463871","0.0-5.0-0.5","6","1","2025-07-09 08:38:59","01610cd0009c79a99da7d0a3353eb402","31.52.104.175","Mozilla/5.0 (Windows NT 10.0; Win64; x64) AppleWebKit/537.36 (KHTML, like Gecko) Chrome/138.0.0.0 Safari/537.36","WebKit","Chrome","138.0.0.0","Windows","10.0","https://app.prolific.com/","en-US,en;q=0.9","5d1290103b20b0000102e8e3","683db7602f5db6a34d12d064","686e2a819f8d7f413b8f7800","1","5d1290103b20b0000102e8e3","1","2025-07-09T08:46:47.588Z","","","","","","","","","","","","","","win-only","2","g1:SE,g2:NW","0.5","6","0","417168.7","1191.2","6192.2","47954.4","1","4","8","6","2","-8","-8","1","9","0.007575757575757576","5001","3000","-1895","[""left"",""up""]","{""num_key_presses"":9,""num_perfect"":5,""num_errors"":0,""num_randdir"":4,""num_randdir_good_moves"":2,""num_whilered"":0,""num_whileblue"":0,""num_blue"":4,""num_good_moves"":7}","[415.07142857142856,413.1808016640799,2.6,415.07142857142856,413.1808016640799,101.2,415.07142857142856,413.1808016640799,201.5,415.07142857142856,413.1808016640799,308,740.5714285714286,308.1808016640799,421.6,1265.5714285714287,251.18080166407992,521.9,1295.5714285714287,245.18080166407992,623.9,1295.5714285714287,245.18080166407992,732.3,1295.5714285714287,245.18080166407992,833.9,1295.5714285714287,245.18080166407992,934.9,1295.5714285714287,245.18080166407992,1035.8,1295.5714285714287,245.18080166407992,1139.3,1295.5714285714287,245.18080166407992,1240.2,1295.5714285714287,245.18080166407992,1349.3,1295.5714285714287,245.18080166407992,1453.4,1295.5714285714287,245.18080166407992,1556,1295.5714285714287,245.18080166407992,1670,1295.5714285714287,245.18080166407992,1770.9,1295.5714285714287,245.18080166407992,1874.6,1295.5714285714287,245.18080166407992,1975.2,1295.5714285714287,245.18080166407992,2075.9,1295.5714285714287,245.18080166407992,2177.8,1295.5714285714287,245.18080166407992,2287.2,1295.5714285714287,245.18080166407992,2395.9,1295.5714285714287,245.18080166407992,2501.4,1295.5714285714287,245.18080166407992,2606,1295.5714285714287,245.18080166407992,2706,1295.5714285714287,245.18080166407992,2812.2,1295.5714285714287,245.18080166407992,2916.7,1295.5714285714287,245.18080166407992,3017.2,1295.5714285714287,245.18080166407992,3124.2,1295.5714285714287,245.18080166407992,3225.9,1295.5714285714287,245.18080166407992,3326,1295.5714285714287,245.18080166407992,3440.6,1295.5714285714287,245.18080166407992,3549.9,1295.5714285714287,245.18080166407992,3652.1,1295.5714285714287,245.18080166407992,3755,1295.5714285714287,245.18080166407992,3860.1,1295.5714285714287,245.18080166407992,3960.3,1295.5714285714287,245.18080166407992,4074.3,1295.5714285714287,245.18080166407992,4176,1295.5714285714287,245.18080166407992,4280.7,1295.5714285714287,245.18080166407992,4388.9,1295.5714285714287,245.18080166407992,4489.6,1295.5714285714287,245.18080166407992,4605.6,1295.5714285714287,245.18080166407992,4707.6,1295.5714285714287,245.18080166407992,4809.9,1295.5714285714287,245.18080166407992,4926.4]","[1450.9,1451,1000,0,451,""smooth"",""up"",""up"",""good_move"",4404.9,2952.9,2409.1,1452,543.8,""smooth"",""up"",""up"",""good_move"",14585.5,10180,2315.4,11780.7,489.5,""oops"",""up"",""down"",""bad_move"",17305.4,2719.2,2227.1,14586.2,492.1,""oops"",""left"",""right"",""bad_move"",20415.1,3109.2,2520.2,17305.9,589,""smooth"",""left"",""left"",""good_move"",26576.5,6159.7,2045.8,24056.6,474.1,""oops"",""left"",""up"",""good_move"",30209.9,3632.9,3195.9,26577.1,437,""smooth"",""left"",""left"",""good_move"",33165.9,2955.6,2413,30210.3,542.6,""oops"",""left"",""up"",""good_move"",39262.3,6095.8,2606.9,36209.3,446.1,""smooth"",""left"",""left"",""good_move""]","",""
"9968","","<div style=""width:500px;"">
  <p>What determined the result of this run?</p>
  </div>","31","html-slider-response","35","473841","0.0-5.0-1.5","6","1","2025-07-09 08:38:59","01610cd0009c79a99da7d0a3353eb402","31.52.104.175","Mozilla/5.0 (Windows NT 10.0; Win64; x64) AppleWebKit/537.36 (KHTML, like Gecko) Chrome/138.0.0.0 Safari/537.36","WebKit","Chrome","138.0.0.0","Windows","10.0","https://app.prolific.com/","en-US,en;q=0.9","5d1290103b20b0000102e8e3","683db7602f5db6a34d12d064","686e2a819f8d7f413b8f7800","1","5d1290103b20b0000102e8e3","1","2025-07-09T08:46:57.558Z","","","","","","","","","","","AttribQ","","50","","","","","","","","","","","","","","","","","","","","","","","","","","","","",""
"5106","","<div style=""width:500px;"">
  <p>How much control did you have over the ball?</p>
  </div>","10","html-slider-response","36","478953","0.0-5.0-2.5","6","1","2025-07-09 08:38:59","01610cd0009c79a99da7d0a3353eb402","31.52.104.175","Mozilla/5.0 (Windows NT 10.0; Win64; x64) AppleWebKit/537.36 (KHTML, like Gecko) Chrome/138.0.0.0 Safari/537.36","WebKit","Chrome","138.0.0.0","Windows","10.0","https://app.prolific.com/","en-US,en;q=0.9","5d1290103b20b0000102e8e3","683db7602f5db6a34d12d064","686e2a819f8d7f413b8f7800","1","5d1290103b20b0000102e8e3","1","2025-07-09T08:47:02.671Z","","","","","","","","","","","ControlQ","","50","","","","","","","","","","","","","","","","","","","","","","","","","","","","",""
"4419","","<div style=""width:500px;"">
  <p>How would you describe your current emotional state?</p>
  </div>","74","html-slider-response","37","483384","0.0-5.0-3.5","6","1","2025-07-09 08:38:59","01610cd0009c79a99da7d0a3353eb402","31.52.104.175","Mozilla/5.0 (Windows NT 10.0; Win64; x64) AppleWebKit/537.36 (KHTML, like Gecko) Chrome/138.0.0.0 Safari/537.36","WebKit","Chrome","138.0.0.0","Windows","10.0","https://app.prolific.com/","en-US,en;q=0.9","5d1290103b20b0000102e8e3","683db7602f5db6a34d12d064","686e2a819f8d7f413b8f7800","1","5d1290103b20b0000102e8e3","1","2025-07-09T08:47:07.103Z","","","","","","","","","","","StressQ","","50","","","","","","","","","","","","","","","","","","","","","","","","","","","","",""
"4504","","<div style=""width:500px;"">
  <p>What best describes how you currently feel?</p>
  </div>","70","html-slider-response","38","487905","0.0-5.0-4.5","6","1","2025-07-09 08:38:59","01610cd0009c79a99da7d0a3353eb402","31.52.104.175","Mozilla/5.0 (Windows NT 10.0; Win64; x64) AppleWebKit/537.36 (KHTML, like Gecko) Chrome/138.0.0.0 Safari/537.36","WebKit","Chrome","138.0.0.0","Windows","10.0","https://app.prolific.com/","en-US,en;q=0.9","5d1290103b20b0000102e8e3","683db7602f5db6a34d12d064","686e2a819f8d7f413b8f7800","1","5d1290103b20b0000102e8e3","1","2025-07-09T08:47:11.623Z","","","","","","","","","","","MotivationQ","","50","","","","","","","","","","","","","","","","","","","","","","","","","","","","",""
"","","","","ctl-task-cpt","39","517398","0.0-5.0-0.6","6","1","2025-07-09 08:38:59","01610cd0009c79a99da7d0a3353eb402","31.52.104.175","Mozilla/5.0 (Windows NT 10.0; Win64; x64) AppleWebKit/537.36 (KHTML, like Gecko) Chrome/138.0.0.0 Safari/537.36","WebKit","Chrome","138.0.0.0","Windows","10.0","https://app.prolific.com/","en-US,en;q=0.9","5d1290103b20b0000102e8e3","683db7602f5db6a34d12d064","686e2a819f8d7f413b8f7800","1","5d1290103b20b0000102e8e3","1","2025-07-09T08:47:41.115Z","","","","","","","","","","","","","","win-only","0","g1:NW,g2:SE","0.4","7","0","492172.1","1234","6240.2","26469.7","1","4","4","6","2","4","4","5","1","0.03787878787878788","5006.2","3000","1040","[""down"",""right""]","{""num_key_presses"":6,""num_perfect"":2,""num_errors"":0,""num_randdir"":4,""num_randdir_good_moves"":4,""num_whilered"":0,""num_whileblue"":0,""num_blue"":1,""num_good_moves"":6}","[421.07142857142856,413.1808016640799,1.1,421.07142857142856,413.1808016640799,108.1,421.07142857142856,413.1808016640799,209.1,421.07142857142856,413.1808016640799,313.1,421.07142857142856,413.1808016640799,413.3,854.5714285714286,320.1808016640799,513.3,1043.5714285714287,305.1808016640799,619,1043.5714285714287,305.1808016640799,719.1,1043.5714285714287,305.1808016640799,824.2,1043.5714285714287,305.1808016640799,930.8,1043.5714285714287,305.1808016640799,1033.3,1043.5714285714287,305.1808016640799,1140.4,1043.5714285714287,305.1808016640799,1247.5,1043.5714285714287,305.1808016640799,1352.4,1043.5714285714287,305.1808016640799,1460.9,1043.5714285714287,305.1808016640799,1564.7,1043.5714285714287,305.1808016640799,1671.3,1043.5714285714287,305.1808016640799,1779.3,1043.5714285714287,305.1808016640799,1880.9,1043.5714285714287,305.1808016640799,1986.4,1043.5714285714287,305.1808016640799,2088.6,1043.5714285714287,305.1808016640799,2197.7,1043.5714285714287,305.1808016640799,2299.9,1043.5714285714287,305.1808016640799,2409.3,1043.5714285714287,305.1808016640799,2509.6,1043.5714285714287,305.1808016640799,2634.6,1043.5714285714287,305.1808016640799,2740.8,1043.5714285714287,305.1808016640799,2844.6,1043.5714285714287,305.1808016640799,2950.8,1043.5714285714287,305.1808016640799,3052.8,1043.5714285714287,305.1808016640799,3160,1043.5714285714287,305.1808016640799,3261.1,1043.5714285714287,305.1808016640799,3361.4,1043.5714285714287,305.1808016640799,3467.3,1043.5714285714287,305.1808016640799,3567.8,1043.5714285714287,305.1808016640799,3669.1,1043.5714285714287,305.1808016640799,3777.8,1043.5714285714287,305.1808016640799,3885.2,1043.5714285714287,305.1808016640799,3988.2,1043.5714285714287,305.1808016640799,4089.4,1043.5714285714287,305.1808016640799,4194.8,1043.5714285714287,305.1808016640799,4317,1043.5714285714287,305.1808016640799,4427.1,1043.5714285714287,305.1808016640799,4537.5,1043.5714285714287,305.1808016640799,4639.2,1043.5714285714287,305.1808016640799,4744.8,1043.5714285714287,305.1808016640799,4859.6,1043.5714285714287,305.1808016640799,4964.3]","[1635.1,1635.1,1000,0,635.1,""smooth"",""down"",""down"",""good_move"",4968.2,3332.1,2603.4,1636.2,728.6,""oops"",""down"",""down"",""good_move"",7332.2,2361.8,1824.4,4970.4,537.4,""smooth"",""down"",""down"",""good_move"",10077.4,2744.6,2282.6,7332.8,462,""oops"",""right"",""right"",""good_move"",17249.9,7172,2823.1,13918.5,508.3,""oops"",""right"",""right"",""good_move"",20088.7,2837.7,2272.7,17251,565,""oops"",""right"",""right"",""good_move""]","",""
"5324","","<div style=""width:500px;"">
  <p>What determined the result of this run?</p>
  </div>","63","html-slider-response","40","522729","0.0-5.0-1.6","6","1","2025-07-09 08:38:59","01610cd0009c79a99da7d0a3353eb402","31.52.104.175","Mozilla/5.0 (Windows NT 10.0; Win64; x64) AppleWebKit/537.36 (KHTML, like Gecko) Chrome/138.0.0.0 Safari/537.36","WebKit","Chrome","138.0.0.0","Windows","10.0","https://app.prolific.com/","en-US,en;q=0.9","5d1290103b20b0000102e8e3","683db7602f5db6a34d12d064","686e2a819f8d7f413b8f7800","1","5d1290103b20b0000102e8e3","1","2025-07-09T08:47:46.447Z","","","","","","","","","","","AttribQ","","50","","","","","","","","","","","","","","","","","","","","","","","","","","","","",""
"4908","","<div style=""width:500px;"">
  <p>How much control did you have over the ball?</p>
  </div>","64","html-slider-response","41","527658","0.0-5.0-2.6","6","1","2025-07-09 08:38:59","01610cd0009c79a99da7d0a3353eb402","31.52.104.175","Mozilla/5.0 (Windows NT 10.0; Win64; x64) AppleWebKit/537.36 (KHTML, like Gecko) Chrome/138.0.0.0 Safari/537.36","WebKit","Chrome","138.0.0.0","Windows","10.0","https://app.prolific.com/","en-US,en;q=0.9","5d1290103b20b0000102e8e3","683db7602f5db6a34d12d064","686e2a819f8d7f413b8f7800","1","5d1290103b20b0000102e8e3","1","2025-07-09T08:47:51.377Z","","","","","","","","","","","ControlQ","","50","","","","","","","","","","","","","","","","","","","","","","","","","","","","",""
"4684","","<div style=""width:500px;"">
  <p>How would you describe your current emotional state?</p>
  </div>","59","html-slider-response","42","532376","0.0-5.0-3.6","6","1","2025-07-09 08:38:59","01610cd0009c79a99da7d0a3353eb402","31.52.104.175","Mozilla/5.0 (Windows NT 10.0; Win64; x64) AppleWebKit/537.36 (KHTML, like Gecko) Chrome/138.0.0.0 Safari/537.36","WebKit","Chrome","138.0.0.0","Windows","10.0","https://app.prolific.com/","en-US,en;q=0.9","5d1290103b20b0000102e8e3","683db7602f5db6a34d12d064","686e2a819f8d7f413b8f7800","1","5d1290103b20b0000102e8e3","1","2025-07-09T08:47:56.097Z","","","","","","","","","","","StressQ","","50","","","","","","","","","","","","","","","","","","","","","","","","","","","","",""
"5951","","<div style=""width:500px;"">
  <p>What best describes how you currently feel?</p>
  </div>","77","html-slider-response","43","538344","0.0-5.0-4.6","6","1","2025-07-09 08:38:59","01610cd0009c79a99da7d0a3353eb402","31.52.104.175","Mozilla/5.0 (Windows NT 10.0; Win64; x64) AppleWebKit/537.36 (KHTML, like Gecko) Chrome/138.0.0.0 Safari/537.36","WebKit","Chrome","138.0.0.0","Windows","10.0","https://app.prolific.com/","en-US,en;q=0.9","5d1290103b20b0000102e8e3","683db7602f5db6a34d12d064","686e2a819f8d7f413b8f7800","1","5d1290103b20b0000102e8e3","1","2025-07-09T08:48:02.064Z","","","","","","","","","","","MotivationQ","","50","","","","","","","","","","","","","","","","","","","","","","","","","","","","",""
"","","","","ctl-task-cpt","44","578394","0.0-5.0-0.7","6","1","2025-07-09 08:38:59","01610cd0009c79a99da7d0a3353eb402","31.52.104.175","Mozilla/5.0 (Windows NT 10.0; Win64; x64) AppleWebKit/537.36 (KHTML, like Gecko) Chrome/138.0.0.0 Safari/537.36","WebKit","Chrome","138.0.0.0","Windows","10.0","https://app.prolific.com/","en-US,en;q=0.9","5d1290103b20b0000102e8e3","683db7602f5db6a34d12d064","686e2a819f8d7f413b8f7800","1","5d1290103b20b0000102e8e3","1","2025-07-09T08:48:42.111Z","","","","","","","","","","","","","","win-only","3","g1:SW,g2:NE","0.3","8","0","542630.8","1727.4","6736","37005.7","1","4","8","6","1","1","0","5","5","0.03787878787878788","5008.6","3000","700","[""down"",""left""]","{""num_key_presses"":8,""num_perfect"":2,""num_errors"":1,""num_randdir"":5,""num_randdir_good_moves"":4,""num_whilered"":0,""num_whileblue"":1,""num_blue"":3,""num_good_moves"":6}","[410.57142857142856,416.1808016640799,0.4,410.57142857142856,416.1808016640799,105.2,410.57142857142856,416.1808016640799,209.3,410.57142857142856,416.1808016640799,312.4,476.57142857142856,392.1808016640799,413.5,1343.5714285714287,201.68080166407992,528.4,1375.0714285714287,143.18080166407992,633.9,1375.0714285714287,143.18080166407992,740.6,1375.0714285714287,143.18080166407992,852.1,1375.0714285714287,143.18080166407992,952.9,1375.0714285714287,143.18080166407992,1056.1,1375.0714285714287,143.18080166407992,1158,1375.0714285714287,143.18080166407992,1258.9,1375.0714285714287,143.18080166407992,1368.4,1375.0714285714287,143.18080166407992,1474.5,1375.0714285714287,143.18080166407992,1584.1,1375.0714285714287,143.18080166407992,1687.9,1375.0714285714287,143.18080166407992,1805.7,1375.0714285714287,143.18080166407992,1919.6,1375.0714285714287,143.18080166407992,2023.2,1375.0714285714287,143.18080166407992,2132,1375.0714285714287,143.18080166407992,2241.9,1375.0714285714287,143.18080166407992,2349.4,1375.0714285714287,143.18080166407992,2452.3,1375.0714285714287,143.18080166407992,2553.8,1375.0714285714287,143.18080166407992,2656.6,1375.0714285714287,143.18080166407992,2757.9,1375.0714285714287,143.18080166407992,2869.2,1375.0714285714287,143.18080166407992,2974.9,1375.0714285714287,143.18080166407992,3092.5,1375.0714285714287,143.18080166407992,3195.7,1375.0714285714287,143.18080166407992,3323.4,1375.0714285714287,143.18080166407992,3426,1375.0714285714287,143.18080166407992,3532.8,1375.0714285714287,143.18080166407992,3654.1,1375.0714285714287,143.18080166407992,3757,1375.0714285714287,143.18080166407992,3861.4,1375.0714285714287,143.18080166407992,3968.5,1375.0714285714287,143.18080166407992,4071.2,1375.0714285714287,143.18080166407992,4185.8,1375.0714285714287,143.18080166407992,4290.3,1375.0714285714287,143.18080166407992,4399.8,1375.0714285714287,143.18080166407992,4500.4,1375.0714285714287,143.18080166407992,4603.2,1375.0714285714287,143.18080166407992,4707.9,1375.0714285714287,143.18080166407992,4826.5,1375.0714285714287,143.18080166407992,4927.6]","[1406,1406.1,1000,0,406.1,""oops"",""right"",""left"",""good_move"",4437.3,3030.7,2050.1,1406.6,980.6,""oops"",""left"",""down"",""good_move"",7781.5,3343.8,2714.4,4437.7,629.4,""oops"",""left"",""right"",""bad_move"",10830.3,3048.3,2596.1,7782,452.2,""smooth"",""down"",""down"",""good_move"",13710.7,2880.1,2456.7,10830.6,423.4,""while_blue"",""left"",""up"",""bad_move"",20373.6,6656.3,2315.2,17541.6,516.8,""smooth"",""down"",""down"",""good_move"",23689.3,3315.4,2363.3,20373.9,952.1,""oops"",""left"",""left"",""good_move"",30100.4,6410.4,2762.3,26881.1,457,""oops"",""left"",""left"",""good_move""]","",""
"14151","","<div style=""width:500px;"">
  <p>What determined the result of this run?</p>
  </div>","64","html-slider-response","45","592555","0.0-5.0-1.7","6","1","2025-07-09 08:38:59","01610cd0009c79a99da7d0a3353eb402","31.52.104.175","Mozilla/5.0 (Windows NT 10.0; Win64; x64) AppleWebKit/537.36 (KHTML, like Gecko) Chrome/138.0.0.0 Safari/537.36","WebKit","Chrome","138.0.0.0","Windows","10.0","https://app.prolific.com/","en-US,en;q=0.9","5d1290103b20b0000102e8e3","683db7602f5db6a34d12d064","686e2a819f8d7f413b8f7800","1","5d1290103b20b0000102e8e3","1","2025-07-09T08:48:56.273Z","","","","","","","","","","","AttribQ","","50","","","","","","","","","","","","","","","","","","","","","","","","","","","","",""
"7785","","<div style=""width:500px;"">
  <p>How much control did you have over the ball?</p>
  </div>","66","html-slider-response","46","600361","0.0-5.0-2.7","6","1","2025-07-09 08:38:59","01610cd0009c79a99da7d0a3353eb402","31.52.104.175","Mozilla/5.0 (Windows NT 10.0; Win64; x64) AppleWebKit/537.36 (KHTML, like Gecko) Chrome/138.0.0.0 Safari/537.36","WebKit","Chrome","138.0.0.0","Windows","10.0","https://app.prolific.com/","en-US,en;q=0.9","5d1290103b20b0000102e8e3","683db7602f5db6a34d12d064","686e2a819f8d7f413b8f7800","1","5d1290103b20b0000102e8e3","1","2025-07-09T08:49:04.079Z","","","","","","","","","","","ControlQ","","50","","","","","","","","","","","","","","","","","","","","","","","","","","","","",""
"12398","","<div style=""width:500px;"">
  <p>How would you describe your current emotional state?</p>
  </div>","61","html-slider-response","47","612769","0.0-5.0-3.7","6","1","2025-07-09 08:38:59","01610cd0009c79a99da7d0a3353eb402","31.52.104.175","Mozilla/5.0 (Windows NT 10.0; Win64; x64) AppleWebKit/537.36 (KHTML, like Gecko) Chrome/138.0.0.0 Safari/537.36","WebKit","Chrome","138.0.0.0","Windows","10.0","https://app.prolific.com/","en-US,en;q=0.9","5d1290103b20b0000102e8e3","683db7602f5db6a34d12d064","686e2a819f8d7f413b8f7800","1","5d1290103b20b0000102e8e3","1","2025-07-09T08:49:16.486Z","","","","","","","","","","","StressQ","","50","","","","","","","","","","","","","","","","","","","","","","","","","","","","",""
"14521","","<div style=""width:500px;"">
  <p>What best describes how you currently feel?</p>
  </div>","72","html-slider-response","48","627292","0.0-5.0-4.7","6","1","2025-07-09 08:38:59","01610cd0009c79a99da7d0a3353eb402","31.52.104.175","Mozilla/5.0 (Windows NT 10.0; Win64; x64) AppleWebKit/537.36 (KHTML, like Gecko) Chrome/138.0.0.0 Safari/537.36","WebKit","Chrome","138.0.0.0","Windows","10.0","https://app.prolific.com/","en-US,en;q=0.9","5d1290103b20b0000102e8e3","683db7602f5db6a34d12d064","686e2a819f8d7f413b8f7800","1","5d1290103b20b0000102e8e3","1","2025-07-09T08:49:31.009Z","","","","","","","","","","","MotivationQ","","50","","","","","","","","","","","","","","","","","","","","","","","","","","","","",""
"","","","","ctl-task-cpt","49","680802","0.0-5.0-0.8","6","1","2025-07-09 08:38:59","01610cd0009c79a99da7d0a3353eb402","31.52.104.175","Mozilla/5.0 (Windows NT 10.0; Win64; x64) AppleWebKit/537.36 (KHTML, like Gecko) Chrome/138.0.0.0 Safari/537.36","WebKit","Chrome","138.0.0.0","Windows","10.0","https://app.prolific.com/","en-US,en;q=0.9","5d1290103b20b0000102e8e3","683db7602f5db6a34d12d064","686e2a819f8d7f413b8f7800","1","5d1290103b20b0000102e8e3","1","2025-07-09T08:50:24.519Z","","","","","","","","","","","","","","win-only","3","g1:SW,g2:NE","0.2","9","0","631567.8","6079.9","11087.6","50464.1","1","4","4","6","2","4","4","9","5","0.06818181818181818","5007.7","3000","1630","[""up"",""right""]","{""num_key_presses"":8,""num_perfect"":2,""num_errors"":0,""num_randdir"":6,""num_randdir_good_moves"":5,""num_whilered"":0,""num_whileblue"":0,""num_blue"":4,""num_good_moves"":7}","[418.07142857142856,405.6808016640799,1.8,418.07142857142856,405.6808016640799,102.3,418.07142857142856,405.6808016640799,209.1,418.07142857142856,405.6808016640799,313.1,418.07142857142856,405.6808016640799,415,418.07142857142856,405.6808016640799,516.4,418.07142857142856,405.6808016640799,619.1,418.07142857142856,405.6808016640799,731.4,418.07142857142856,405.6808016640799,842.2,418.07142857142856,405.6808016640799,942.5,418.07142857142856,405.6808016640799,1048.9,418.07142857142856,405.6808016640799,1155.1,418.07142857142856,405.6808016640799,1266.7,418.07142857142856,405.6808016640799,1372.7,860.5714285714286,363.6808016640799,1486.1,868.0714285714286,362.1808016640799,1596.5,868.0714285714286,362.1808016640799,1699.3,868.0714285714286,362.1808016640799,1801.2,868.0714285714286,362.1808016640799,1907.5,868.0714285714286,362.1808016640799,2016.6,868.0714285714286,362.1808016640799,2124.3,868.0714285714286,362.1808016640799,2224.4,868.0714285714286,362.1808016640799,2325.4,868.0714285714286,362.1808016640799,2425.9,868.0714285714286,362.1808016640799,2529.8,868.0714285714286,362.1808016640799,2643.6,868.0714285714286,362.1808016640799,2748.9,868.0714285714286,362.1808016640799,2849.6,868.0714285714286,362.1808016640799,2961.8,868.0714285714286,362.1808016640799,3066.4,868.0714285714286,362.1808016640799,3170.3,868.0714285714286,362.1808016640799,3279.8,868.0714285714286,362.1808016640799,3380.8,868.0714285714286,362.1808016640799,3483.3,868.0714285714286,362.1808016640799,3590,868.0714285714286,362.1808016640799,3693.1,868.0714285714286,362.1808016640799,3799.4,868.0714285714286,362.1808016640799,3904.4,868.0714285714286,362.1808016640799,4013.3,868.0714285714286,362.1808016640799,4118.4,868.0714285714286,362.1808016640799,4224.4,868.0714285714286,362.1808016640799,4328,868.0714285714286,362.1808016640799,4432.1,868.0714285714286,362.1808016640799,4533.1,868.0714285714286,362.1808016640799,4633.1,868.0714285714286,362.1808016640799,4739.5,868.0714285714286,362.1808016640799,4847.6,868.0714285714286,362.1808016640799,4950.2]","[1462.4,1462.4,1000,0,462.4,""smooth"",""up"",""up"",""good_move"",4845.5,3381.7,2748.5,1464.7,632.3,""smooth"",""up"",""up"",""good_move"",7648.1,2801.7,2246.5,4846.4,555.2,""oops"",""up"",""left"",""bad_move"",10328.1,2679,1770.9,7649.1,908.1,""oops"",""up"",""right"",""good_move"",18087.6,7758.3,3061.8,14534.5,491.3,""oops"",""up"",""right"",""good_move"",21054.1,2965.9,2530.2,18088.2,435.7,""oops"",""up"",""up"",""good_move"",28313.4,7259,2570.3,25258.8,484.4,""oops"",""right"",""right"",""good_move"",39008.8,10694.6,2808.8,35729.5,470.5,""oops"",""right"",""right"",""good_move""]","",""
"4704","","<div style=""width:500px;"">
  <p>What determined the result of this run?</p>
  </div>","72","html-slider-response","50","685509","0.0-5.0-1.8","6","1","2025-07-09 08:38:59","01610cd0009c79a99da7d0a3353eb402","31.52.104.175","Mozilla/5.0 (Windows NT 10.0; Win64; x64) AppleWebKit/537.36 (KHTML, like Gecko) Chrome/138.0.0.0 Safari/537.36","WebKit","Chrome","138.0.0.0","Windows","10.0","https://app.prolific.com/","en-US,en;q=0.9","5d1290103b20b0000102e8e3","683db7602f5db6a34d12d064","686e2a819f8d7f413b8f7800","1","5d1290103b20b0000102e8e3","1","2025-07-09T08:50:29.226Z","","","","","","","","","","","AttribQ","","50","","","","","","","","","","","","","","","","","","","","","","","","","","","","",""
"3178","","<div style=""width:500px;"">
  <p>How much control did you have over the ball?</p>
  </div>","60","html-slider-response","51","688690","0.0-5.0-2.8","6","1","2025-07-09 08:38:59","01610cd0009c79a99da7d0a3353eb402","31.52.104.175","Mozilla/5.0 (Windows NT 10.0; Win64; x64) AppleWebKit/537.36 (KHTML, like Gecko) Chrome/138.0.0.0 Safari/537.36","WebKit","Chrome","138.0.0.0","Windows","10.0","https://app.prolific.com/","en-US,en;q=0.9","5d1290103b20b0000102e8e3","683db7602f5db6a34d12d064","686e2a819f8d7f413b8f7800","1","5d1290103b20b0000102e8e3","1","2025-07-09T08:50:32.407Z","","","","","","","","","","","ControlQ","","50","","","","","","","","","","","","","","","","","","","","","","","","","","","","",""
"3095","","<div style=""width:500px;"">
  <p>How would you describe your current emotional state?</p>
  </div>","62","html-slider-response","52","691788","0.0-5.0-3.8","6","1","2025-07-09 08:38:59","01610cd0009c79a99da7d0a3353eb402","31.52.104.175","Mozilla/5.0 (Windows NT 10.0; Win64; x64) AppleWebKit/537.36 (KHTML, like Gecko) Chrome/138.0.0.0 Safari/537.36","WebKit","Chrome","138.0.0.0","Windows","10.0","https://app.prolific.com/","en-US,en;q=0.9","5d1290103b20b0000102e8e3","683db7602f5db6a34d12d064","686e2a819f8d7f413b8f7800","1","5d1290103b20b0000102e8e3","1","2025-07-09T08:50:35.505Z","","","","","","","","","","","StressQ","","50","","","","","","","","","","","","","","","","","","","","","","","","","","","","",""
"3405","","<div style=""width:500px;"">
  <p>What best describes how you currently feel?</p>
  </div>","75","html-slider-response","53","695195","0.0-5.0-4.8","6","1","2025-07-09 08:38:59","01610cd0009c79a99da7d0a3353eb402","31.52.104.175","Mozilla/5.0 (Windows NT 10.0; Win64; x64) AppleWebKit/537.36 (KHTML, like Gecko) Chrome/138.0.0.0 Safari/537.36","WebKit","Chrome","138.0.0.0","Windows","10.0","https://app.prolific.com/","en-US,en;q=0.9","5d1290103b20b0000102e8e3","683db7602f5db6a34d12d064","686e2a819f8d7f413b8f7800","1","5d1290103b20b0000102e8e3","1","2025-07-09T08:50:38.912Z","","","","","","","","","","","MotivationQ","","50","","","","","","","","","","","","","","","","","","","","","","","","","","","","",""
"","","","","ctl-task-cpt","54","736944","0.0-5.0-0.9","6","1","2025-07-09 08:38:59","01610cd0009c79a99da7d0a3353eb402","31.52.104.175","Mozilla/5.0 (Windows NT 10.0; Win64; x64) AppleWebKit/537.36 (KHTML, like Gecko) Chrome/138.0.0.0 Safari/537.36","WebKit","Chrome","138.0.0.0","Windows","10.0","https://app.prolific.com/","en-US,en;q=0.9","5d1290103b20b0000102e8e3","683db7602f5db6a34d12d064","686e2a819f8d7f413b8f7800","1","5d1290103b20b0000102e8e3","1","2025-07-09T08:51:20.662Z","","","","","","","","","","","","","","win-only","1","g1:NE,g2:SW","0.4","10","0","699459.4","1909.2","6919.7","38712.1","1","4","8","6","2","8","8","17","9","0.12878787878787878","5010.4","3000","2110","[""down"",""left""]","{""num_key_presses"":8,""num_perfect"":4,""num_errors"":0,""num_randdir"":4,""num_randdir_good_moves"":3,""num_whilered"":0,""num_whileblue"":0,""num_blue"":1,""num_good_moves"":7}","[412.07142857142856,420.6808016640799,0.6,412.07142857142856,420.6808016640799,103.4,412.07142857142856,420.6808016640799,256.6,412.07142857142856,420.6808016640799,380.1,451.07142857142856,417.6808016640799,480.2,908.5714285714286,398.1808016640799,592.6,986.5714285714286,381.6808016640799,706.3,986.5714285714286,381.6808016640799,812.7,986.5714285714286,381.6808016640799,923.9,986.5714285714286,381.6808016640799,1038.8,986.5714285714286,381.6808016640799,1139.9,986.5714285714286,381.6808016640799,1270.5,986.5714285714286,381.6808016640799,1382.4,986.5714285714286,381.6808016640799,1494.4,986.5714285714286,381.6808016640799,1606,986.5714285714286,381.6808016640799,1714.9,986.5714285714286,381.6808016640799,1828.7,986.5714285714286,381.6808016640799,1935.5,986.5714285714286,381.6808016640799,2067.7,986.5714285714286,381.6808016640799,2186.8,986.5714285714286,381.6808016640799,2289.1,986.5714285714286,381.6808016640799,2424.1,986.5714285714286,381.6808016640799,2525.4,986.5714285714286,381.6808016640799,2631.7,986.5714285714286,381.6808016640799,2760,986.5714285714286,381.6808016640799,2868.8,986.5714285714286,381.6808016640799,2979.4,986.5714285714286,381.6808016640799,3094.2,986.5714285714286,381.6808016640799,3208.6,986.5714285714286,381.6808016640799,3328.4,986.5714285714286,381.6808016640799,3436.8,986.5714285714286,381.6808016640799,3540.5,986.5714285714286,381.6808016640799,3641.3,986.5714285714286,381.6808016640799,3753.9,986.5714285714286,381.6808016640799,3868.8,986.5714285714286,381.6808016640799,3985,986.5714285714286,381.6808016640799,4117,986.5714285714286,381.6808016640799,4236.7,986.5714285714286,381.6808016640799,4348.9,986.5714285714286,381.6808016640799,4466.6,986.5714285714286,381.6808016640799,4589.9,986.5714285714286,381.6808016640799,4690.3,986.5714285714286,381.6808016640799,4800.5,986.5714285714286,381.6808016640799,4915.3]","[1637.9,1637.9,1000,0,637.9,""smooth"",""down"",""down"",""good_move"",4655.3,3016.3,2413.7,1639.1,602.5,""oops"",""down"",""left"",""good_move"",10960.2,6303.5,2721.7,4656.7,3581.8,""oops"",""down"",""down"",""good_move"",16305.8,5345.1,2106.5,13648.3,551,""oops"",""down"",""up"",""bad_move"",20082.9,3776.1,3163.5,16306.8,612.7,""smooth"",""left"",""left"",""good_move"",23836.8,3753,2415.9,20083.8,1337.1,""smooth"",""left"",""left"",""good_move"",28267,4429.9,2769.5,23837.1,1660.4,""smooth"",""down"",""down"",""good_move"",31377.7,3109.8,2571.6,28267.9,538.2,""oops"",""down"",""down"",""good_move""]","",""
"4942","","<div style=""width:500px;"">
  <p>What determined the result of this run?</p>
  </div>","74","html-slider-response","55","741890","0.0-5.0-1.9","6","1","2025-07-09 08:38:59","01610cd0009c79a99da7d0a3353eb402","31.52.104.175","Mozilla/5.0 (Windows NT 10.0; Win64; x64) AppleWebKit/537.36 (KHTML, like Gecko) Chrome/138.0.0.0 Safari/537.36","WebKit","Chrome","138.0.0.0","Windows","10.0","https://app.prolific.com/","en-US,en;q=0.9","5d1290103b20b0000102e8e3","683db7602f5db6a34d12d064","686e2a819f8d7f413b8f7800","1","5d1290103b20b0000102e8e3","1","2025-07-09T08:51:25.607Z","","","","","","","","","","","AttribQ","","50","","","","","","","","","","","","","","","","","","","","","","","","","","","","",""
"3898","","<div style=""width:500px;"">
  <p>How much control did you have over the ball?</p>
  </div>","65","html-slider-response","56","745794","0.0-5.0-2.9","6","1","2025-07-09 08:38:59","01610cd0009c79a99da7d0a3353eb402","31.52.104.175","Mozilla/5.0 (Windows NT 10.0; Win64; x64) AppleWebKit/537.36 (KHTML, like Gecko) Chrome/138.0.0.0 Safari/537.36","WebKit","Chrome","138.0.0.0","Windows","10.0","https://app.prolific.com/","en-US,en;q=0.9","5d1290103b20b0000102e8e3","683db7602f5db6a34d12d064","686e2a819f8d7f413b8f7800","1","5d1290103b20b0000102e8e3","1","2025-07-09T08:51:29.511Z","","","","","","","","","","","ControlQ","","50","","","","","","","","","","","","","","","","","","","","","","","","","","","","",""
"4610","","<div style=""width:500px;"">
  <p>How would you describe your current emotional state?</p>
  </div>","57","html-slider-response","57","750407","0.0-5.0-3.9","6","1","2025-07-09 08:38:59","01610cd0009c79a99da7d0a3353eb402","31.52.104.175","Mozilla/5.0 (Windows NT 10.0; Win64; x64) AppleWebKit/537.36 (KHTML, like Gecko) Chrome/138.0.0.0 Safari/537.36","WebKit","Chrome","138.0.0.0","Windows","10.0","https://app.prolific.com/","en-US,en;q=0.9","5d1290103b20b0000102e8e3","683db7602f5db6a34d12d064","686e2a819f8d7f413b8f7800","1","5d1290103b20b0000102e8e3","1","2025-07-09T08:51:34.125Z","","","","","","","","","","","StressQ","","50","","","","","","","","","","","","","","","","","","","","","","","","","","","","",""
"3397","","<div style=""width:500px;"">
  <p>What best describes how you currently feel?</p>
  </div>","76","html-slider-response","58","753807","0.0-5.0-4.9","6","1","2025-07-09 08:38:59","01610cd0009c79a99da7d0a3353eb402","31.52.104.175","Mozilla/5.0 (Windows NT 10.0; Win64; x64) AppleWebKit/537.36 (KHTML, like Gecko) Chrome/138.0.0.0 Safari/537.36","WebKit","Chrome","138.0.0.0","Windows","10.0","https://app.prolific.com/","en-US,en;q=0.9","5d1290103b20b0000102e8e3","683db7602f5db6a34d12d064","686e2a819f8d7f413b8f7800","1","5d1290103b20b0000102e8e3","1","2025-07-09T08:51:37.524Z","","","","","","","","","","","MotivationQ","","50","","","","","","","","","","","","","","","","","","","","","","","","","","","","",""
"","","","","ctl-task-cpt","59","801902","0.0-5.0-0.10","6","1","2025-07-09 08:38:59","01610cd0009c79a99da7d0a3353eb402","31.52.104.175","Mozilla/5.0 (Windows NT 10.0; Win64; x64) AppleWebKit/537.36 (KHTML, like Gecko) Chrome/138.0.0.0 Safari/537.36","WebKit","Chrome","138.0.0.0","Windows","10.0","https://app.prolific.com/","en-US,en;q=0.9","5d1290103b20b0000102e8e3","683db7602f5db6a34d12d064","686e2a819f8d7f413b8f7800","1","5d1290103b20b0000102e8e3","1","2025-07-09T08:52:25.619Z","","","","","","","","","","","","","","win-only","3","g1:SW,g2:NE","0.5","11","0","758070.9","1644.1","6661.9","45069.3","1","4","8","6","2","8","8","25","17","0.1893939393939394","5017.7","3000","1955","[""up"",""right""]","{""num_key_presses"":8,""num_perfect"":5,""num_errors"":0,""num_randdir"":3,""num_randdir_good_moves"":2,""num_whilered"":0,""num_whileblue"":0,""num_blue"":3,""num_good_moves"":7}","[418.07142857142856,416.1808016640799,0.4,418.07142857142856,416.1808016640799,109.4,418.07142857142856,416.1808016640799,219.7,418.07142857142856,416.1808016640799,330.8,418.07142857142856,416.1808016640799,448.3,418.07142857142856,416.1808016640799,549.4,418.07142857142856,416.1808016640799,658.8,418.07142857142856,416.1808016640799,764.3,418.07142857142856,416.1808016640799,866.7,418.07142857142856,416.1808016640799,968.7,418.07142857142856,416.1808016640799,1078.1,418.07142857142856,416.1808016640799,1180,418.07142857142856,416.1808016640799,1291.5,418.07142857142856,416.1808016640799,1401.1,418.07142857142856,416.1808016640799,1501.3,418.07142857142856,416.1808016640799,1611.3,418.07142857142856,416.1808016640799,1722.5,418.07142857142856,416.1808016640799,1822.6,418.07142857142856,416.1808016640799,1938.9,418.07142857142856,416.1808016640799,2052.8,418.07142857142856,416.1808016640799,2168.1,418.07142857142856,416.1808016640799,2272.6,418.07142857142856,416.1808016640799,2379.9,418.07142857142856,416.1808016640799,2491.2,418.07142857142856,416.1808016640799,2599.2,418.07142857142856,416.1808016640799,2700.2,418.07142857142856,416.1808016640799,2800.9,418.07142857142856,416.1808016640799,2901.7,418.07142857142856,416.1808016640799,3003.2,418.07142857142856,416.1808016640799,3109,418.07142857142856,416.1808016640799,3210.7,418.07142857142856,416.1808016640799,3313.5,418.07142857142856,416.1808016640799,3413.6,418.07142857142856,416.1808016640799,3530.6,418.07142857142856,416.1808016640799,3641.8,418.07142857142856,416.1808016640799,3744.5,418.07142857142856,416.1808016640799,3848.4,418.07142857142856,416.1808016640799,3956.7,418.07142857142856,416.1808016640799,4058.6,418.07142857142856,416.1808016640799,4170.5,418.07142857142856,416.1808016640799,4276.3,418.07142857142856,416.1808016640799,4388.7,418.07142857142856,416.1808016640799,4495.8,418.07142857142856,416.1808016640799,4600.9,418.07142857142856,416.1808016640799,4704.3,418.07142857142856,416.1808016640799,4804.4,418.07142857142856,416.1808016640799,4909.6]","[1481.8,1481.8,1000,0,481.8,""oops"",""up"",""right"",""good_move"",8569.2,7086.6,2669,5246.3,653.9,""smooth"",""up"",""up"",""good_move"",13268.2,4697.8,2534.3,8570.4,2163.5,""smooth"",""up"",""up"",""good_move"",17440.2,4170.7,2528.3,13269.5,1642.4,""smooth"",""up"",""up"",""good_move"",20882.3,3441.5,2746.6,17440.8,694.9,""oops"",""right"",""left"",""bad_move"",27954.4,7070.9,2330.8,25181.8,441.8,""smooth"",""right"",""right"",""good_move"",31667.1,3711.7,3183.9,27955.4,527.8,""oops"",""right"",""right"",""good_move"",38032.5,6364.9,2786.3,34771,475.2,""smooth"",""right"",""right"",""good_move""]","",""
"3952","","<div style=""width:500px;"">
  <p>What determined the result of this run?</p>
  </div>","67","html-slider-response","60","805855","0.0-5.0-1.10","6","1","2025-07-09 08:38:59","01610cd0009c79a99da7d0a3353eb402","31.52.104.175","Mozilla/5.0 (Windows NT 10.0; Win64; x64) AppleWebKit/537.36 (KHTML, like Gecko) Chrome/138.0.0.0 Safari/537.36","WebKit","Chrome","138.0.0.0","Windows","10.0","https://app.prolific.com/","en-US,en;q=0.9","5d1290103b20b0000102e8e3","683db7602f5db6a34d12d064","686e2a819f8d7f413b8f7800","1","5d1290103b20b0000102e8e3","1","2025-07-09T08:52:29.572Z","","","","","","","","","","","AttribQ","","50","","","","","","","","","","","","","","","","","","","","","","","","","","","","",""
"2593","","<div style=""width:500px;"">
  <p>How much control did you have over the ball?</p>
  </div>","68","html-slider-response","61","808450","0.0-5.0-2.10","6","1","2025-07-09 08:38:59","01610cd0009c79a99da7d0a3353eb402","31.52.104.175","Mozilla/5.0 (Windows NT 10.0; Win64; x64) AppleWebKit/537.36 (KHTML, like Gecko) Chrome/138.0.0.0 Safari/537.36","WebKit","Chrome","138.0.0.0","Windows","10.0","https://app.prolific.com/","en-US,en;q=0.9","5d1290103b20b0000102e8e3","683db7602f5db6a34d12d064","686e2a819f8d7f413b8f7800","1","5d1290103b20b0000102e8e3","1","2025-07-09T08:52:32.167Z","","","","","","","","","","","ControlQ","","50","","","","","","","","","","","","","","","","","","","","","","","","","","","","",""
"3372","","<div style=""width:500px;"">
  <p>How would you describe your current emotional state?</p>
  </div>","43","html-slider-response","62","811823","0.0-5.0-3.10","6","1","2025-07-09 08:38:59","01610cd0009c79a99da7d0a3353eb402","31.52.104.175","Mozilla/5.0 (Windows NT 10.0; Win64; x64) AppleWebKit/537.36 (KHTML, like Gecko) Chrome/138.0.0.0 Safari/537.36","WebKit","Chrome","138.0.0.0","Windows","10.0","https://app.prolific.com/","en-US,en;q=0.9","5d1290103b20b0000102e8e3","683db7602f5db6a34d12d064","686e2a819f8d7f413b8f7800","1","5d1290103b20b0000102e8e3","1","2025-07-09T08:52:35.541Z","","","","","","","","","","","StressQ","","50","","","","","","","","","","","","","","","","","","","","","","","","","","","","",""
"3255","","<div style=""width:500px;"">
  <p>What best describes how you currently feel?</p>
  </div>","73","html-slider-response","63","815080","0.0-5.0-4.10","6","1","2025-07-09 08:38:59","01610cd0009c79a99da7d0a3353eb402","31.52.104.175","Mozilla/5.0 (Windows NT 10.0; Win64; x64) AppleWebKit/537.36 (KHTML, like Gecko) Chrome/138.0.0.0 Safari/537.36","WebKit","Chrome","138.0.0.0","Windows","10.0","https://app.prolific.com/","en-US,en;q=0.9","5d1290103b20b0000102e8e3","683db7602f5db6a34d12d064","686e2a819f8d7f413b8f7800","1","5d1290103b20b0000102e8e3","1","2025-07-09T08:52:38.797Z","","","","","","","","","","","MotivationQ","","50","","","","","","","","","","","","","","","","","","","","","","","","","","","","",""
"","","","","ctl-task-cpt","64","861111","0.0-5.0-0.11","6","1","2025-07-09 08:38:59","01610cd0009c79a99da7d0a3353eb402","31.52.104.175","Mozilla/5.0 (Windows NT 10.0; Win64; x64) AppleWebKit/537.36 (KHTML, like Gecko) Chrome/138.0.0.0 Safari/537.36","WebKit","Chrome","138.0.0.0","Windows","10.0","https://app.prolific.com/","en-US,en;q=0.9","5d1290103b20b0000102e8e3","683db7602f5db6a34d12d064","686e2a819f8d7f413b8f7800","1","5d1290103b20b0000102e8e3","1","2025-07-09T08:53:24.829Z","","","","","","","","","","","","","","win-only","1","g1:NE,g2:SW","0.6","12","0","819344.1","1418.4","6441.1","42981.8","1","4","4","6","1","1","1","26","25","0.19696969696969696","5022.7","3000","2105","[""up"",""right""]","{""num_key_presses"":8,""num_perfect"":4,""num_errors"":0,""num_randdir"":4,""num_randdir_good_moves"":2,""num_whilered"":0,""num_whileblue"":0,""num_blue"":2,""num_good_moves"":6}","[419.57142857142856,419.1808016640799,0.4,419.57142857142856,419.1808016640799,117.8,419.57142857142856,419.1808016640799,219.9,419.57142857142856,419.1808016640799,331.6,488.57142857142856,392.1808016640799,449.1,968.5714285714286,299.1808016640799,552,1018.0714285714286,285.6808016640799,654.7,1018.0714285714286,285.6808016640799,761.1,1018.0714285714286,285.6808016640799,869.6,1018.0714285714286,285.6808016640799,989.1,1018.0714285714286,285.6808016640799,1089.7,1018.0714285714286,285.6808016640799,1194.7,1018.0714285714286,285.6808016640799,1311.4,1018.0714285714286,285.6808016640799,1429,1018.0714285714286,285.6808016640799,1529.4,1018.0714285714286,285.6808016640799,1629.4,1018.0714285714286,285.6808016640799,1734.6,1018.0714285714286,285.6808016640799,1837,1018.0714285714286,285.6808016640799,1943.1,1018.0714285714286,285.6808016640799,2044,1018.0714285714286,285.6808016640799,2144.3,1018.0714285714286,285.6808016640799,2259.6,1018.0714285714286,285.6808016640799,2361.4,1018.0714285714286,285.6808016640799,2475.7,1018.0714285714286,285.6808016640799,2577.7,1018.0714285714286,285.6808016640799,2679.6,1018.0714285714286,285.6808016640799,2792.7,1018.0714285714286,285.6808016640799,2893.9,1018.0714285714286,285.6808016640799,3008.2,1018.0714285714286,285.6808016640799,3123.4,1018.0714285714286,285.6808016640799,3240.4,1018.0714285714286,285.6808016640799,3353.6,1018.0714285714286,285.6808016640799,3469.5,1018.0714285714286,285.6808016640799,3588.7,1018.0714285714286,285.6808016640799,3700.6,1018.0714285714286,285.6808016640799,3813.2,1018.0714285714286,285.6808016640799,3929.1,1018.0714285714286,285.6808016640799,4045.2,1018.0714285714286,285.6808016640799,4167.6,1018.0714285714286,285.6808016640799,4285.2,1018.0714285714286,285.6808016640799,4388.2,1018.0714285714286,285.6808016640799,4511.1,1018.0714285714286,285.6808016640799,4615.2,1018.0714285714286,285.6808016640799,4718.6,1018.0714285714286,285.6808016640799,4829.5,1018.0714285714286,285.6808016640799,4939.4]","[1753.7,1753.7,1000,0,753.7,""oops"",""up"",""down"",""bad_move"",4204.8,2450.2,1925.6,1754.6,524.6,""oops"",""up"",""up"",""good_move"",7780.5,3574.9,3049.8,4205.6,525.1,""oops"",""up"",""left"",""bad_move"",19308.7,11527.2,2334.9,16368,605.9,""smooth"",""up"",""up"",""good_move"",24683.1,5373.6,2123.9,19309.5,3249.7,""smooth"",""right"",""right"",""good_move"",27906.9,3222.9,2656.4,24684,566.5,""smooth"",""up"",""up"",""good_move"",32867.3,4959.6,2131.6,27907.7,2828,""smooth"",""right"",""right"",""good_move"",36129.5,3260.9,2815.1,32868.7,445.7,""oops"",""right"",""right"",""good_move""]","",""
"3338","","<div style=""width:500px;"">
  <p>What determined the result of this run?</p>
  </div>","71","html-slider-response","65","864453","0.0-5.0-1.11","6","1","2025-07-09 08:38:59","01610cd0009c79a99da7d0a3353eb402","31.52.104.175","Mozilla/5.0 (Windows NT 10.0; Win64; x64) AppleWebKit/537.36 (KHTML, like Gecko) Chrome/138.0.0.0 Safari/537.36","WebKit","Chrome","138.0.0.0","Windows","10.0","https://app.prolific.com/","en-US,en;q=0.9","5d1290103b20b0000102e8e3","683db7602f5db6a34d12d064","686e2a819f8d7f413b8f7800","1","5d1290103b20b0000102e8e3","1","2025-07-09T08:53:28.170Z","","","","","","","","","","","AttribQ","","50","","","","","","","","","","","","","","","","","","","","","","","","","","","","",""
"3077","","<div style=""width:500px;"">
  <p>How much control did you have over the ball?</p>
  </div>","69","html-slider-response","66","867532","0.0-5.0-2.11","6","1","2025-07-09 08:38:59","01610cd0009c79a99da7d0a3353eb402","31.52.104.175","Mozilla/5.0 (Windows NT 10.0; Win64; x64) AppleWebKit/537.36 (KHTML, like Gecko) Chrome/138.0.0.0 Safari/537.36","WebKit","Chrome","138.0.0.0","Windows","10.0","https://app.prolific.com/","en-US,en;q=0.9","5d1290103b20b0000102e8e3","683db7602f5db6a34d12d064","686e2a819f8d7f413b8f7800","1","5d1290103b20b0000102e8e3","1","2025-07-09T08:53:31.249Z","","","","","","","","","","","ControlQ","","50","","","","","","","","","","","","","","","","","","","","","","","","","","","","",""
"3062","","<div style=""width:500px;"">
  <p>How would you describe your current emotional state?</p>
  </div>","59","html-slider-response","67","870597","0.0-5.0-3.11","6","1","2025-07-09 08:38:59","01610cd0009c79a99da7d0a3353eb402","31.52.104.175","Mozilla/5.0 (Windows NT 10.0; Win64; x64) AppleWebKit/537.36 (KHTML, like Gecko) Chrome/138.0.0.0 Safari/537.36","WebKit","Chrome","138.0.0.0","Windows","10.0","https://app.prolific.com/","en-US,en;q=0.9","5d1290103b20b0000102e8e3","683db7602f5db6a34d12d064","686e2a819f8d7f413b8f7800","1","5d1290103b20b0000102e8e3","1","2025-07-09T08:53:34.314Z","","","","","","","","","","","StressQ","","50","","","","","","","","","","","","","","","","","","","","","","","","","","","","",""
"2979","","<div style=""width:500px;"">
  <p>What best describes how you currently feel?</p>
  </div>","78","html-slider-response","68","873578","0.0-5.0-4.11","6","1","2025-07-09 08:38:59","01610cd0009c79a99da7d0a3353eb402","31.52.104.175","Mozilla/5.0 (Windows NT 10.0; Win64; x64) AppleWebKit/537.36 (KHTML, like Gecko) Chrome/138.0.0.0 Safari/537.36","WebKit","Chrome","138.0.0.0","Windows","10.0","https://app.prolific.com/","en-US,en;q=0.9","5d1290103b20b0000102e8e3","683db7602f5db6a34d12d064","686e2a819f8d7f413b8f7800","1","5d1290103b20b0000102e8e3","1","2025-07-09T08:53:37.295Z","","","","","","","","","","","MotivationQ","","50","","","","","","","","","","","","","","","","","","","","","","","","","","","","",""
"","","","","ctl-task-cpt","69","912743","0.0-5.0-0.12","6","1","2025-07-09 08:38:59","01610cd0009c79a99da7d0a3353eb402","31.52.104.175","Mozilla/5.0 (Windows NT 10.0; Win64; x64) AppleWebKit/537.36 (KHTML, like Gecko) Chrome/138.0.0.0 Safari/537.36","WebKit","Chrome","138.0.0.0","Windows","10.0","https://app.prolific.com/","en-US,en;q=0.9","5d1290103b20b0000102e8e3","683db7602f5db6a34d12d064","686e2a819f8d7f413b8f7800","1","5d1290103b20b0000102e8e3","1","2025-07-09T08:54:16.461Z","","","","","","","","","","","","","","win-only","1","g1:NE,g2:SW","0.7","13","0","877842.3","1523.2","6527.8","36127.8","1","4","8","6","2","8","8","34","26","0.25757575757575757","5004.6","3000","1825","[""down"",""left""]","{""num_key_presses"":8,""num_perfect"":5,""num_errors"":0,""num_randdir"":3,""num_randdir_good_moves"":2,""num_whilered"":0,""num_whileblue"":0,""num_blue"":1,""num_good_moves"":7}","[413.57142857142856,413.1808016640799,0.6,413.57142857142856,413.1808016640799,112,413.57142857142856,413.1808016640799,230.3,413.57142857142856,413.1808016640799,337.5,413.57142857142856,413.1808016640799,446.7,413.57142857142856,413.1808016640799,547.5,413.57142857142856,413.1808016640799,648,413.57142857142856,413.1808016640799,754.3,413.57142857142856,413.1808016640799,858.4,413.57142857142856,413.1808016640799,967.5,413.57142857142856,413.1808016640799,1074.5,413.57142857142856,413.1808016640799,1178.9,413.57142857142856,413.1808016640799,1282.1,413.57142857142856,413.1808016640799,1389.5,413.57142857142856,413.1808016640799,1501.5,413.57142857142856,413.1808016640799,1601.5,413.57142857142856,413.1808016640799,1701.5,413.57142857142856,413.1808016640799,1804.7,413.57142857142856,413.1808016640799,1908.4,413.57142857142856,413.1808016640799,2022.9,413.57142857142856,413.1808016640799,2124.9,413.57142857142856,413.1808016640799,2227.7,413.57142857142856,413.1808016640799,2335.5,413.57142857142856,413.1808016640799,2445.5,413.57142857142856,413.1808016640799,2558.3,413.57142857142856,413.1808016640799,2669.3,413.57142857142856,413.1808016640799,2786.9,413.57142857142856,413.1808016640799,2899.8,413.57142857142856,413.1808016640799,3011.1,413.57142857142856,413.1808016640799,3124.4,413.57142857142856,413.1808016640799,3237,413.57142857142856,413.1808016640799,3347.3,413.57142857142856,413.1808016640799,3455.2,413.57142857142856,413.1808016640799,3570.5,413.57142857142856,413.1808016640799,3690,413.57142857142856,413.1808016640799,3798.7,413.57142857142856,413.1808016640799,3900.5,413.57142857142856,413.1808016640799,4005.6,413.57142857142856,413.1808016640799,4120.6,413.57142857142856,413.1808016640799,4222.1,413.57142857142856,413.1808016640799,4327.1,413.57142857142856,413.1808016640799,4441.3,413.57142857142856,413.1808016640799,4546.3,413.57142857142856,413.1808016640799,4665,413.57142857142856,413.1808016640799,4774.5,413.57142857142856,413.1808016640799,4877.2,413.57142857142856,413.1808016640799,4986.6]","[1543.2,1543.2,1000,0,543.2,""oops"",""down"",""left"",""good_move"",9377.1,7833.2,2262,6611.6,503.5,""oops"",""down"",""down"",""good_move"",13006.7,3629.2,2740.5,9377.5,888.7,""smooth"",""down"",""down"",""good_move"",16535.5,3528,3051.9,13007.5,476.1,""oops"",""down"",""right"",""bad_move"",18721.5,2184,1604.7,16537.5,579.3,""smooth"",""down"",""down"",""good_move"",22203,3480.7,3028.1,18722.3,452.6,""smooth"",""left"",""left"",""good_move"",25364.8,3161.3,2186.6,22203.6,974.6,""smooth"",""left"",""left"",""good_move"",29203.7,3837.7,2195.6,25366.1,1642,""smooth"",""left"",""left"",""good_move""]","",""
"4117","","<div style=""width:500px;"">
  <p>What determined the result of this run?</p>
  </div>","63","html-slider-response","70","916864","0.0-5.0-1.12","6","1","2025-07-09 08:38:59","01610cd0009c79a99da7d0a3353eb402","31.52.104.175","Mozilla/5.0 (Windows NT 10.0; Win64; x64) AppleWebKit/537.36 (KHTML, like Gecko) Chrome/138.0.0.0 Safari/537.36","WebKit","Chrome","138.0.0.0","Windows","10.0","https://app.prolific.com/","en-US,en;q=0.9","5d1290103b20b0000102e8e3","683db7602f5db6a34d12d064","686e2a819f8d7f413b8f7800","1","5d1290103b20b0000102e8e3","1","2025-07-09T08:54:20.581Z","","","","","","","","","","","AttribQ","","50","","","","","","","","","","","","","","","","","","","","","","","","","","","","",""
"3044","","<div style=""width:500px;"">
  <p>How much control did you have over the ball?</p>
  </div>","67","html-slider-response","71","919910","0.0-5.0-2.12","6","1","2025-07-09 08:38:59","01610cd0009c79a99da7d0a3353eb402","31.52.104.175","Mozilla/5.0 (Windows NT 10.0; Win64; x64) AppleWebKit/537.36 (KHTML, like Gecko) Chrome/138.0.0.0 Safari/537.36","WebKit","Chrome","138.0.0.0","Windows","10.0","https://app.prolific.com/","en-US,en;q=0.9","5d1290103b20b0000102e8e3","683db7602f5db6a34d12d064","686e2a819f8d7f413b8f7800","1","5d1290103b20b0000102e8e3","1","2025-07-09T08:54:23.627Z","","","","","","","","","","","ControlQ","","50","","","","","","","","","","","","","","","","","","","","","","","","","","","","",""
"3083","","<div style=""width:500px;"">
  <p>How would you describe your current emotional state?</p>
  </div>","53","html-slider-response","72","922994","0.0-5.0-3.12","6","1","2025-07-09 08:38:59","01610cd0009c79a99da7d0a3353eb402","31.52.104.175","Mozilla/5.0 (Windows NT 10.0; Win64; x64) AppleWebKit/537.36 (KHTML, like Gecko) Chrome/138.0.0.0 Safari/537.36","WebKit","Chrome","138.0.0.0","Windows","10.0","https://app.prolific.com/","en-US,en;q=0.9","5d1290103b20b0000102e8e3","683db7602f5db6a34d12d064","686e2a819f8d7f413b8f7800","1","5d1290103b20b0000102e8e3","1","2025-07-09T08:54:26.712Z","","","","","","","","","","","StressQ","","50","","","","","","","","","","","","","","","","","","","","","","","","","","","","",""
"2734","","<div style=""width:500px;"">
  <p>What best describes how you currently feel?</p>
  </div>","69","html-slider-response","73","925731","0.0-5.0-4.12","6","1","2025-07-09 08:38:59","01610cd0009c79a99da7d0a3353eb402","31.52.104.175","Mozilla/5.0 (Windows NT 10.0; Win64; x64) AppleWebKit/537.36 (KHTML, like Gecko) Chrome/138.0.0.0 Safari/537.36","WebKit","Chrome","138.0.0.0","Windows","10.0","https://app.prolific.com/","en-US,en;q=0.9","5d1290103b20b0000102e8e3","683db7602f5db6a34d12d064","686e2a819f8d7f413b8f7800","1","5d1290103b20b0000102e8e3","1","2025-07-09T08:54:29.448Z","","","","","","","","","","","MotivationQ","","50","","","","","","","","","","","","","","","","","","","","","","","","","","","","",""
"","","","","ctl-task-cpt","74","967651","0.0-5.0-0.13","6","1","2025-07-09 08:38:59","01610cd0009c79a99da7d0a3353eb402","31.52.104.175","Mozilla/5.0 (Windows NT 10.0; Win64; x64) AppleWebKit/537.36 (KHTML, like Gecko) Chrome/138.0.0.0 Safari/537.36","WebKit","Chrome","138.0.0.0","Windows","10.0","https://app.prolific.com/","en-US,en;q=0.9","5d1290103b20b0000102e8e3","683db7602f5db6a34d12d064","686e2a819f8d7f413b8f7800","1","5d1290103b20b0000102e8e3","1","2025-07-09T08:55:11.369Z","","","","","","","","","","","","","","win-only","2","g1:SE,g2:NW","0.8","14","0","929995","2212.8","7225.6","38882.3","1","4","4","6","1","1","1","35","34","0.26515151515151514","5012.8","3000","2375","[""down"",""right""]","{""num_key_presses"":6,""num_perfect"":4,""num_errors"":0,""num_randdir"":2,""num_randdir_good_moves"":1,""num_whilered"":0,""num_whileblue"":0,""num_blue"":3,""num_good_moves"":5}","[419.57142857142856,413.1808016640799,0.5,419.57142857142856,413.1808016640799,121.4,419.57142857142856,413.1808016640799,236.5,419.57142857142856,413.1808016640799,355.9,1049.5714285714287,272.1808016640799,471.3,1267.0714285714287,209.18080166407992,585,1267.0714285714287,209.18080166407992,702.6,1267.0714285714287,209.18080166407992,805.2,1267.0714285714287,209.18080166407992,909.1,1267.0714285714287,209.18080166407992,1020.1,1267.0714285714287,209.18080166407992,1133.9,1267.0714285714287,209.18080166407992,1240,1267.0714285714287,209.18080166407992,1348.1,1267.0714285714287,209.18080166407992,1449.1,1267.0714285714287,209.18080166407992,1562.4,1267.0714285714287,209.18080166407992,1673.3,1267.0714285714287,209.18080166407992,1774.7,1267.0714285714287,209.18080166407992,1887.9,1267.0714285714287,209.18080166407992,2004.8,1267.0714285714287,209.18080166407992,2105.9,1267.0714285714287,209.18080166407992,2209.5,1267.0714285714287,209.18080166407992,2316.5,1267.0714285714287,209.18080166407992,2438.9,1267.0714285714287,209.18080166407992,2564.1,1267.0714285714287,209.18080166407992,2666.2,1267.0714285714287,209.18080166407992,2767.4,1267.0714285714287,209.18080166407992,2869.4,1267.0714285714287,209.18080166407992,2990,1267.0714285714287,209.18080166407992,3092.4,1267.0714285714287,209.18080166407992,3192.6,1267.0714285714287,209.18080166407992,3293.6,1267.0714285714287,209.18080166407992,3397.4,1267.0714285714287,209.18080166407992,3524.1,1267.0714285714287,209.18080166407992,3648.2,1267.0714285714287,209.18080166407992,3749.1,1267.0714285714287,209.18080166407992,3854,1267.0714285714287,209.18080166407992,3958.7,1267.0714285714287,209.18080166407992,4063.3,1267.0714285714287,209.18080166407992,4179.9,1267.0714285714287,209.18080166407992,4285.6,1267.0714285714287,209.18080166407992,4408.7,1267.0714285714287,209.18080166407992,4510.5,1267.0714285714287,209.18080166407992,4626.1,1267.0714285714287,209.18080166407992,4736.2,1267.0714285714287,209.18080166407992,4848.6,1267.0714285714287,209.18080166407992,4952.9]","[4837.7,4837.7,2239.9,2031.3,566.5,""smooth"",""down"",""down"",""good_move"",7996.9,3158.2,2546.2,4838.7,612,""oops"",""down"",""up"",""bad_move"",14544.8,6546.9,1766.5,7997.9,4780.4,""smooth"",""down"",""down"",""good_move"",17374.2,2829,2294.3,14545.2,534.7,""smooth"",""down"",""down"",""good_move"",20299.6,2924.7,2398.3,17374.9,526.4,""smooth"",""right"",""right"",""good_move"",31338.9,11037.6,3040,27829.5,469.4,""oops"",""right"",""right"",""good_move""]","",""
"3750","","<div style=""width:500px;"">
  <p>What determined the result of this run?</p>
  </div>","57","html-slider-response","75","971404","0.0-5.0-1.13","6","1","2025-07-09 08:38:59","01610cd0009c79a99da7d0a3353eb402","31.52.104.175","Mozilla/5.0 (Windows NT 10.0; Win64; x64) AppleWebKit/537.36 (KHTML, like Gecko) Chrome/138.0.0.0 Safari/537.36","WebKit","Chrome","138.0.0.0","Windows","10.0","https://app.prolific.com/","en-US,en;q=0.9","5d1290103b20b0000102e8e3","683db7602f5db6a34d12d064","686e2a819f8d7f413b8f7800","1","5d1290103b20b0000102e8e3","1","2025-07-09T08:55:15.121Z","","","","","","","","","","","AttribQ","","50","","","","","","","","","","","","","","","","","","","","","","","","","","","","",""
"4608","","<div style=""width:500px;"">
  <p>How much control did you have over the ball?</p>
  </div>","70","html-slider-response","76","976013","0.0-5.0-2.13","6","1","2025-07-09 08:38:59","01610cd0009c79a99da7d0a3353eb402","31.52.104.175","Mozilla/5.0 (Windows NT 10.0; Win64; x64) AppleWebKit/537.36 (KHTML, like Gecko) Chrome/138.0.0.0 Safari/537.36","WebKit","Chrome","138.0.0.0","Windows","10.0","https://app.prolific.com/","en-US,en;q=0.9","5d1290103b20b0000102e8e3","683db7602f5db6a34d12d064","686e2a819f8d7f413b8f7800","1","5d1290103b20b0000102e8e3","1","2025-07-09T08:55:19.730Z","","","","","","","","","","","ControlQ","","50","","","","","","","","","","","","","","","","","","","","","","","","","","","","",""
"2438","","<div style=""width:500px;"">
  <p>How would you describe your current emotional state?</p>
  </div>","58","html-slider-response","77","978454","0.0-5.0-3.13","6","1","2025-07-09 08:38:59","01610cd0009c79a99da7d0a3353eb402","31.52.104.175","Mozilla/5.0 (Windows NT 10.0; Win64; x64) AppleWebKit/537.36 (KHTML, like Gecko) Chrome/138.0.0.0 Safari/537.36","WebKit","Chrome","138.0.0.0","Windows","10.0","https://app.prolific.com/","en-US,en;q=0.9","5d1290103b20b0000102e8e3","683db7602f5db6a34d12d064","686e2a819f8d7f413b8f7800","1","5d1290103b20b0000102e8e3","1","2025-07-09T08:55:22.171Z","","","","","","","","","","","StressQ","","50","","","","","","","","","","","","","","","","","","","","","","","","","","","","",""
"2929","","<div style=""width:500px;"">
  <p>What best describes how you currently feel?</p>
  </div>","69","html-slider-response","78","981386","0.0-5.0-4.13","6","1","2025-07-09 08:38:59","01610cd0009c79a99da7d0a3353eb402","31.52.104.175","Mozilla/5.0 (Windows NT 10.0; Win64; x64) AppleWebKit/537.36 (KHTML, like Gecko) Chrome/138.0.0.0 Safari/537.36","WebKit","Chrome","138.0.0.0","Windows","10.0","https://app.prolific.com/","en-US,en;q=0.9","5d1290103b20b0000102e8e3","683db7602f5db6a34d12d064","686e2a819f8d7f413b8f7800","1","5d1290103b20b0000102e8e3","1","2025-07-09T08:55:25.103Z","","","","","","","","","","","MotivationQ","","50","","","","","","","","","","","","","","","","","","","","","","","","","","","","",""
