"rt","response_timestamp","stimulus","response","trial_type","trial_index","time_elapsed","internal_node_id","run_id","condition","recorded_at","source_code_version","ip","user_agent","device","browser","browser_version","platform","platform_version","referer","accept_language","PROLIFIC_PID","STUDY_ID","SESSION_ID","WEEK","BATCH","prolific_id","week","batch","realtime","success","responses","item_order","radio_event_ids","radio_event_times","key_event_times","mouse_event_times","straightlining","zigzagging","honeypot","eventType","view_history","slider_start","which_type","canvas_config","goals_layout","control_level","trial_number","tutorial_trial_number","trial_start_time","phase1_start_time","phase2_start_time","phase3_start_time","goal_1_value","goal_1_distance","goal_2_value","goal_2_distance","goal_selected","outcome","outcome_total","participant_final_score","participant_initial_score","participant_final_score_prop","goal_choice_rt","allocated_time","allocated_time_remaining","goal_direction","counts","mouse_movements","key_presses","question_order","question_id"
"21719","1753257793862","<p style='font-size:40px;line-height:1.25'><strong>Welcome to the experiment!</strong></p><p style='font-size:1.1em;line-height:1.25'>Thank you for participanting in our experiment again! You will be asked to play the Dysfunctional Ball Game again. We will briefly recap the rules before we start.</p><p style='font-size:1.1em;line-height:1.25'>Press <strong>Next</strong> to continue.</p>","0","custom-html-button-response","0","21725","0.0-0.0","188","1","2025-07-23 08:04:27","1f75c3e559b7213887762d5229550c2b","41.123.105.39","Mozilla/5.0 (Windows NT 10.0; Win64; x64) AppleWebKit/537.36 (KHTML, like Gecko) Chrome/138.0.0.0 Safari/537.36","WebKit","Chrome","138.0.0.0","Windows","10.0","https://app.prolific.com/","en-GB,en-US;q=0.9,en;q=0.8","67e074f58a5ea7d9897f3223","683db9eb0562dbf637994deb","688096df7aad73dcd5e538de","2","1","67e074f58a5ea7d9897f3223","2","1","2025-07-23T08:03:13.864Z","","","","","","","","","","","","","","","","","","","","","","","","","","","","","","","","","","","","","","","","","",""
"30600","","","","fullscreen","1","53340","0.0-1.0","188","1","2025-07-23 08:04:27","1f75c3e559b7213887762d5229550c2b","41.123.105.39","Mozilla/5.0 (Windows NT 10.0; Win64; x64) AppleWebKit/537.36 (KHTML, like Gecko) Chrome/138.0.0.0 Safari/537.36","WebKit","Chrome","138.0.0.0","Windows","10.0","https://app.prolific.com/","en-GB,en-US;q=0.9,en;q=0.8","67e074f58a5ea7d9897f3223","683db9eb0562dbf637994deb","688096df7aad73dcd5e538de","2","1","67e074f58a5ea7d9897f3223","2","1","","true","","","","","","","","","","","","","","","","","","","","","","","","","","","","","","","","","","","","","","","","",""
"25522","1753257851002","<p style='font-size:1.1em;line-height:1.25'>In the following, we will ask you a few questions relating to your feelings in the last 24 hours.<br></p><p style='font-size:1.1em;line-height:1.25'>Press the <strong>Next</strong> button to continue.</p>","0","custom-html-button-response","2","78874","0.0-2.0-0.0","188","1","2025-07-23 08:04:27","1f75c3e559b7213887762d5229550c2b","41.123.105.39","Mozilla/5.0 (Windows NT 10.0; Win64; x64) AppleWebKit/537.36 (KHTML, like Gecko) Chrome/138.0.0.0 Safari/537.36","WebKit","Chrome","138.0.0.0","Windows","10.0","https://app.prolific.com/","en-GB,en-US;q=0.9,en;q=0.8","67e074f58a5ea7d9897f3223","683db9eb0562dbf637994deb","688096df7aad73dcd5e538de","2","1","67e074f58a5ea7d9897f3223","2","1","2025-07-23T08:04:11.012Z","","","","","","","","","","","","","","","","","","","","","","","","","","","","","","","","","","","","","","","","","",""
"271941.200000003","","","","survey-template","3","350842","0.0-2.0-1.0","188","1","2025-07-23 08:04:27","1f75c3e559b7213887762d5229550c2b","41.123.105.39","Mozilla/5.0 (Windows NT 10.0; Win64; x64) AppleWebKit/537.36 (KHTML, like Gecko) Chrome/138.0.0.0 Safari/537.36","WebKit","Chrome","138.0.0.0","Windows","10.0","https://app.prolific.com/","en-GB,en-US;q=0.9,en;q=0.8","67e074f58a5ea7d9897f3223","683db9eb0562dbf637994deb","688096df7aad73dcd5e538de","2","1","67e074f58a5ea7d9897f3223","2","1","2025-07-23T08:08:42.980Z","","{""Q01"":""3"",""Q02"":""0"",""Q03"":""0"",""Q04"":""2"",""Q05"":""3"",""Q06"":""1"",""Q07"":""0"",""Q08"":""0"",""Q09"":""1"",""Q10"":""1"",""Q11"":""1"",""Q12"":""1"",""Q13"":""5"",""Q14"":""1"",""Q15"":""0"",""Q16"":""4"",""Q17"":""1"",""Q18"":""0"",""Q19"":""0"",""Q20"":""1"",""Q21"":""5"",""Q22"":""2""}","[0,1,2,3,4,5,6,7,8,9,10,11,12,13,14,15,16,17,18,19,20,21]","[""Q01"",""Q02"",""Q02"",""Q03"",""Q04"",""Q05"",""Q06"",""Q07"",""Q08"",""Q09"",""Q10"",""Q11"",""Q12"",""Q12"",""Q13"",""Q14"",""Q15"",""Q16"",""Q17"",""Q18"",""Q19"",""Q20"",""Q20"",""Q21"",""Q22""]","[12369.5,16436.80000001192,19272.20000000298,23918.40000000596,31959.5,39819.20000000298,65171.60000000894,80365.20000000298,87058.80000001192,98900.10000000894,110404.30000001192,125044.80000001192,132456,145708.30000001192,148588.90000000596,166601,173396.70000000298,180748.5,188132.60000000894,195484.40000000596,212303.90000000596,235390.10000000894,248622,256630.90000000596,267231.700000003]","[]","[0.800000011920929,12369.5,16436.80000001192,19272.20000000298,23918.40000000596,31453,31959.5,39819.20000000298,65171.60000000894,79664.10000000894,80365.20000000298,85041.20000000298,85589.5,87058.80000001192,93231.20000000298,97067.70000000298,98900.10000000894,110404.30000001192,118993.60000000894,125044.80000001192,132456,140289.20000000298,141825.10000000894,145708.30000001192,148588.90000000596,161746.30000001192,166601,173396.70000000298,180748.5,188132.60000000894,195484.40000000596,212303.90000000596,235390.10000000894,248622,256630.90000000596,267231.700000003,271901]","0.36363636363636365","0.2857142857142857","0","drsp","","","","","","","","","","","","","","","","","","","","","","","","","","","","","","",""
"28911.70000000298","","","","survey-template","4","379768","0.0-2.0-2.0","188","1","2025-07-23 08:04:27","1f75c3e559b7213887762d5229550c2b","41.123.105.39","Mozilla/5.0 (Windows NT 10.0; Win64; x64) AppleWebKit/537.36 (KHTML, like Gecko) Chrome/138.0.0.0 Safari/537.36","WebKit","Chrome","138.0.0.0","Windows","10.0","https://app.prolific.com/","en-GB,en-US;q=0.9,en;q=0.8","67e074f58a5ea7d9897f3223","683db9eb0562dbf637994deb","688096df7aad73dcd5e538de","2","1","67e074f58a5ea7d9897f3223","2","1","2025-07-23T08:09:11.906Z","","{""Q01"":""3"",""Q02"":""3"",""Q03"":""1""}","[0,1,2]","[""Q01"",""Q02"",""Q03""]","[8390.90000000596,15833.800000011921,26564.40000000596]","[]","[8390.90000000596,15833.800000011921,26564.40000000596,28905.40000000596]","0.3333333333333333","1","0","stress","","","","","","","","","","","","","","","","","","","","","","","","","","","","","","",""
"73964","","","","instructions","5","453743","0.0-3.0-0.0","188","1","2025-07-23 08:04:27","1f75c3e559b7213887762d5229550c2b","41.123.105.39","Mozilla/5.0 (Windows NT 10.0; Win64; x64) AppleWebKit/537.36 (KHTML, like Gecko) Chrome/138.0.0.0 Safari/537.36","WebKit","Chrome","138.0.0.0","Windows","10.0","https://app.prolific.com/","en-GB,en-US;q=0.9,en;q=0.8","67e074f58a5ea7d9897f3223","683db9eb0562dbf637994deb","688096df7aad73dcd5e538de","2","1","67e074f58a5ea7d9897f3223","2","1","","","","","","","","","","","","","[{""page_index"":0,""viewing_time"":73961}]","","","","","","","","","","","","","","","","","","","","","","","","","","","","","",""
"48445","","<p>Before you start with this game please answer the following three questions yourself. </p>
  <p>Through this game, we measure several aspects of your cognitive performance, such as reaction times, multi-tasking capabilities </p>
  <p>and the ability to assess the situation you are in.</p>
  <p></p>
  <p><b>How good do you usually are in such tasks?</b></p>","95","html-slider-response","6","502211","0.0-4.0-0.0","188","1","2025-07-23 08:04:27","1f75c3e559b7213887762d5229550c2b","41.123.105.39","Mozilla/5.0 (Windows NT 10.0; Win64; x64) AppleWebKit/537.36 (KHTML, like Gecko) Chrome/138.0.0.0 Safari/537.36","WebKit","Chrome","138.0.0.0","Windows","10.0","https://app.prolific.com/","en-GB,en-US;q=0.9,en;q=0.8","67e074f58a5ea7d9897f3223","683db9eb0562dbf637994deb","688096df7aad73dcd5e538de","2","1","67e074f58a5ea7d9897f3223","2","1","2025-07-23T08:11:14.349Z","","","","","","","","","","","PreSkillQ","","50","","","","","","","","","","","","","","","","","","","","","","","","","","","","",""
"15354","","<div style=""width:500px;"">
  <p>How well do you think you will perform in this task compared to other participants?</p>
  </div>","84","html-slider-response","7","517577","0.0-4.0-1.0","188","1","2025-07-23 08:04:27","1f75c3e559b7213887762d5229550c2b","41.123.105.39","Mozilla/5.0 (Windows NT 10.0; Win64; x64) AppleWebKit/537.36 (KHTML, like Gecko) Chrome/138.0.0.0 Safari/537.36","WebKit","Chrome","138.0.0.0","Windows","10.0","https://app.prolific.com/","en-GB,en-US;q=0.9,en;q=0.8","67e074f58a5ea7d9897f3223","683db9eb0562dbf637994deb","688096df7aad73dcd5e538de","2","1","67e074f58a5ea7d9897f3223","2","1","2025-07-23T08:11:29.716Z","","","","","","","","","","","PrePerfQ","","50","","","","","","","","","","","","","","","","","","","","","","","","","","","","",""
"12471","","<div style=""width:500px;"">
  <p>What best describes how you currently feel?</p>
  </div>","68","html-slider-response","8","530059","0.0-4.0-2.0","188","1","2025-07-23 08:04:27","1f75c3e559b7213887762d5229550c2b","41.123.105.39","Mozilla/5.0 (Windows NT 10.0; Win64; x64) AppleWebKit/537.36 (KHTML, like Gecko) Chrome/138.0.0.0 Safari/537.36","WebKit","Chrome","138.0.0.0","Windows","10.0","https://app.prolific.com/","en-GB,en-US;q=0.9,en;q=0.8","67e074f58a5ea7d9897f3223","683db9eb0562dbf637994deb","688096df7aad73dcd5e538de","2","1","67e074f58a5ea7d9897f3223","2","1","2025-07-23T08:11:42.198Z","","","","","","","","","","","PreMotivationQ","","50","","","","","","","","","","","","","","","","","","","","","","","","","","","","",""
"","","","","ctl-task-cpt","9","548244","0.0-5.0-0.0","188","1","2025-07-23 08:04:27","1f75c3e559b7213887762d5229550c2b","41.123.105.39","Mozilla/5.0 (Windows NT 10.0; Win64; x64) AppleWebKit/537.36 (KHTML, like Gecko) Chrome/138.0.0.0 Safari/537.36","WebKit","Chrome","138.0.0.0","Windows","10.0","https://app.prolific.com/","en-GB,en-US;q=0.9,en;q=0.8","67e074f58a5ea7d9897f3223","683db9eb0562dbf637994deb","688096df7aad73dcd5e538de","2","1","67e074f58a5ea7d9897f3223","2","1","2025-07-23T08:12:00.382Z","","","","","","","","","","","","","","win-only","1","g1:NE,g2:SW","1","1","0","569369.9","10144.7","-9999","15153","1","4","8","6","-9999","-4","-4","0","0","0","4593.1","3000","3000","[]","{""num_key_presses"":0,""num_perfect"":0,""num_errors"":0,""num_randdir"":0,""num_randdir_good_moves"":0,""num_whilered"":0,""num_whileblue"":0,""num_blue"":0,""num_good_moves"":0}","[411.5714133126395,411.57142761775424,5.3,411.5714133126395,411.57142761775424,100.1,411.5714133126395,411.57142761775424,206.8,411.5714133126395,411.57142761775424,327.4,411.5714133126395,411.57142761775424,432.3,411.5714133126395,411.57142761775424,539.1,411.5714133126395,411.57142761775424,649.3,411.5714133126395,411.57142761775424,753.3,411.5714133126395,411.57142761775424,856,411.5714133126395,411.57142761775424,976.5,411.5714133126395,411.57142761775424,1088.3,411.5714133126395,411.57142761775424,1189.7,411.5714133126395,411.57142761775424,1300.2,411.5714133126395,411.57142761775424,1407.5,411.5714133126395,411.57142761775424,1509.2,411.5714133126395,411.57142761775424,1615.3,411.5714133126395,411.57142761775424,1719.1,411.5714133126395,411.57142761775424,1819.6,411.5714133126395,411.57142761775424,1923.4,411.5714133126395,411.57142761775424,2027,411.5714133126395,411.57142761775424,2127.3,411.5714133126395,411.57142761775424,2235.5,411.5714133126395,411.57142761775424,2337.5,411.5714133126395,411.57142761775424,2442.6,411.5714133126395,411.57142761775424,2555.2,411.5714133126395,411.57142761775424,2659.3,411.5714133126395,411.57142761775424,2762.1,411.5714133126395,411.57142761775424,2871.6,411.5714133126395,411.57142761775424,2972.7,411.5714133126395,411.57142761775424,3083.8,411.5714133126395,411.57142761775424,3184.2,411.5714133126395,411.57142761775424,3291.5,416.5714133126395,407.82142761775424,3398.3,414.0714133126395,407.82142761775424,3521,349.0714133126395,421.57142761775424,3626,379.0714133126395,386.57142761775424,3726,292.8214133126395,406.57142761775424,3837.8,-9.678586687360493,651.5714276177542,3937.8,-184.6785866873605,886.5714276177542,4045.7,-184.6785866873605,886.5714276177542,4147.2,-184.6785866873605,886.5714276177542,4250.1,-184.6785866873605,886.5714276177542,4356.2,-184.6785866873605,886.5714276177542,4464.7,-184.6785866873605,886.5714276177542,4564.9,-184.6785866873605,886.5714276177542,4683.4,-184.6785866873605,886.5714276177542,4792.3,-184.6785866873605,886.5714276177542,4895.5,-184.6785866873605,886.5714276177542,5000]","[]","",""
"6297","","<div style=""width:500px;"">
  <p>What determined the result of this run?</p>
  </div>","16","html-slider-response","10","554544","0.0-5.0-1.0","188","1","2025-07-23 08:04:27","1f75c3e559b7213887762d5229550c2b","41.123.105.39","Mozilla/5.0 (Windows NT 10.0; Win64; x64) AppleWebKit/537.36 (KHTML, like Gecko) Chrome/138.0.0.0 Safari/537.36","WebKit","Chrome","138.0.0.0","Windows","10.0","https://app.prolific.com/","en-GB,en-US;q=0.9,en;q=0.8","67e074f58a5ea7d9897f3223","683db9eb0562dbf637994deb","688096df7aad73dcd5e538de","2","1","67e074f58a5ea7d9897f3223","2","1","2025-07-23T08:12:06.683Z","","","","","","","","","","","AttribQ","","50","","","","","","","","","","","","","","","","","","","","","","","","","","","","",""
"6619","","<div style=""width:500px;"">
  <p>How much control did you have over the ball?</p>
  </div>","50","html-slider-response","11","561174","0.0-5.0-2.0","188","1","2025-07-23 08:04:27","1f75c3e559b7213887762d5229550c2b","41.123.105.39","Mozilla/5.0 (Windows NT 10.0; Win64; x64) AppleWebKit/537.36 (KHTML, like Gecko) Chrome/138.0.0.0 Safari/537.36","WebKit","Chrome","138.0.0.0","Windows","10.0","https://app.prolific.com/","en-GB,en-US;q=0.9,en;q=0.8","67e074f58a5ea7d9897f3223","683db9eb0562dbf637994deb","688096df7aad73dcd5e538de","2","1","67e074f58a5ea7d9897f3223","2","1","2025-07-23T08:12:13.312Z","","","","","","","","","","","ControlQ","","50","","","","","","","","","","","","","","","","","","","","","","","","","","","","",""
"10358","","<div style=""width:500px;"">
  <p>How would you describe your current emotional state?</p>
  </div>","100","html-slider-response","12","571540","0.0-5.0-3.0","188","1","2025-07-23 08:04:27","1f75c3e559b7213887762d5229550c2b","41.123.105.39","Mozilla/5.0 (Windows NT 10.0; Win64; x64) AppleWebKit/537.36 (KHTML, like Gecko) Chrome/138.0.0.0 Safari/537.36","WebKit","Chrome","138.0.0.0","Windows","10.0","https://app.prolific.com/","en-GB,en-US;q=0.9,en;q=0.8","67e074f58a5ea7d9897f3223","683db9eb0562dbf637994deb","688096df7aad73dcd5e538de","2","1","67e074f58a5ea7d9897f3223","2","1","2025-07-23T08:12:23.678Z","","","","","","","","","","","StressQ","","50","","","","","","","","","","","","","","","","","","","","","","","","","","","","",""
"6075","","<div style=""width:500px;"">
  <p>What best describes how you currently feel?</p>
  </div>","0","html-slider-response","13","577634","0.0-5.0-4.0","188","1","2025-07-23 08:04:27","1f75c3e559b7213887762d5229550c2b","41.123.105.39","Mozilla/5.0 (Windows NT 10.0; Win64; x64) AppleWebKit/537.36 (KHTML, like Gecko) Chrome/138.0.0.0 Safari/537.36","WebKit","Chrome","138.0.0.0","Windows","10.0","https://app.prolific.com/","en-GB,en-US;q=0.9,en;q=0.8","67e074f58a5ea7d9897f3223","683db9eb0562dbf637994deb","688096df7aad73dcd5e538de","2","1","67e074f58a5ea7d9897f3223","2","1","2025-07-23T08:12:29.773Z","","","","","","","","","","","MotivationQ","","50","","","","","","","","","","","","","","","","","","","","","","","","","","","","",""
"","","","","ctl-task-cpt","14","621787","0.0-5.0-0.1","188","1","2025-07-23 08:04:27","1f75c3e559b7213887762d5229550c2b","41.123.105.39","Mozilla/5.0 (Windows NT 10.0; Win64; x64) AppleWebKit/537.36 (KHTML, like Gecko) Chrome/138.0.0.0 Safari/537.36","WebKit","Chrome","138.0.0.0","Windows","10.0","https://app.prolific.com/","en-GB,en-US;q=0.9,en;q=0.8","67e074f58a5ea7d9897f3223","683db9eb0562dbf637994deb","688096df7aad73dcd5e538de","2","1","67e074f58a5ea7d9897f3223","2","1","2025-07-23T08:13:13.925Z","","","","","","","","","","","","","","win-only","3","g1:SW,g2:NE","0.9","2","0","616933.4","1747.1","6754.6","41129.3","1","4","4","6","2","4","3","3","0","0.022727272727272728","2450.2","3000","625","[""up"",""right""]","{""num_key_presses"":7,""num_perfect"":5,""num_errors"":1,""num_randdir"":1,""num_randdir_good_moves"":1,""num_whilered"":0,""num_whileblue"":0,""num_blue"":4,""num_good_moves"":6}","[406.5714133126395,417.82142761775424,2.3,406.5714133126395,417.82142761775424,109.6,406.5714133126395,417.82142761775424,210.2,406.5714133126395,417.82142761775424,313.7,406.5714133126395,417.82142761775424,418.5,406.5714133126395,417.82142761775424,519.8,447.8214133126395,372.82142761775424,629.5,801.5714133126395,231.57142761775424,735.9,931.5714133126395,134.07142761775424,840.3,935.3214133126395,131.57142761775424,940.4,935.3214133126395,131.57142761775424,1048.2,935.3214133126395,131.57142761775424,1151.5,901.5714133126395,96.57142761775425,1257.7,896.5714133126395,-45.92857238224575,1358.4,860.3214133126395,-28.428572382245747,1467.6,751.5714133126395,-3.428572382245747,1573.2,652.8214133126395,51.57142761775425,1685.8,642.8214133126395,49.07142761775425,1785.8,655.3214133126395,47.82142761775425,1892.8,871.5714133126395,131.57142761775424,1998.2,869.0714133126395,124.07142761775425,2101.1,856.5714133126395,116.57142761775425,2202.7,801.5714133126395,64.07142761775425,2306.8,801.5714133126395,54.07142761775425,2413.6,801.5714133126395,54.07142761775425,2518.8,801.5714133126395,54.07142761775425,2632.2,801.5714133126395,54.07142761775425,2743.1,695.3214133126395,96.57142761775425,2846.7,596.5714133126395,181.57142761775424,2954.7,585.3214133126395,229.07142761775424,3056.2,617.8214133126395,236.57142761775424,3158.5,617.8214133126395,236.57142761775424,3267.6,617.8214133126395,236.57142761775424,3372.1,617.8214133126395,236.57142761775424,3473.2,617.8214133126395,236.57142761775424,3575.2,617.8214133126395,236.57142761775424,3681.1,617.8214133126395,236.57142761775424,3788.6,617.8214133126395,236.57142761775424,3891.1,617.8214133126395,236.57142761775424,3999.9,617.8214133126395,236.57142761775424,4104.7,617.8214133126395,236.57142761775424,4207.7,617.8214133126395,236.57142761775424,4309.4,617.8214133126395,236.57142761775424,4416.2,617.8214133126395,236.57142761775424,4519.3,617.8214133126395,236.57142761775424,4627.5,617.8214133126395,236.57142761775424,4731.8,617.8214133126395,236.57142761775424,4841.9,617.8214133126395,236.57142761775424,4942.4]","[775.6,775.6,1000,0,-224.4,""error"",""-"",""-"",""no_move"",4943.1,4166,2312.3,1781.4,849.4,""smooth"",""right"",""right"",""good_move"",11386.5,6442.2,2522.3,8415.8,448.4,""smooth"",""right"",""right"",""good_move"",14424.5,3037.2,2415.4,11387.3,621.8,""oops"",""right"",""right"",""good_move"",23990.4,9557.8,2644.6,20854.4,491.4,""smooth"",""up"",""up"",""good_move"",31125.4,7133.8,3119.3,27523.4,482.7,""smooth"",""up"",""up"",""good_move"",34255.4,3128.5,2610.1,31126.9,518.4,""smooth"",""up"",""up"",""good_move""]","",""
"6952","","<div style=""width:500px;"">
  <p>What determined the result of this run?</p>
  </div>","100","html-slider-response","15","628743","0.0-5.0-1.1","188","1","2025-07-23 08:04:27","1f75c3e559b7213887762d5229550c2b","41.123.105.39","Mozilla/5.0 (Windows NT 10.0; Win64; x64) AppleWebKit/537.36 (KHTML, like Gecko) Chrome/138.0.0.0 Safari/537.36","WebKit","Chrome","138.0.0.0","Windows","10.0","https://app.prolific.com/","en-GB,en-US;q=0.9,en;q=0.8","67e074f58a5ea7d9897f3223","683db9eb0562dbf637994deb","688096df7aad73dcd5e538de","2","1","67e074f58a5ea7d9897f3223","2","1","2025-07-23T08:13:20.882Z","","","","","","","","","","","AttribQ","","50","","","","","","","","","","","","","","","","","","","","","","","","","","","","",""
"6834","","<div style=""width:500px;"">
  <p>How much control did you have over the ball?</p>
  </div>","100","html-slider-response","16","635584","0.0-5.0-2.1","188","1","2025-07-23 08:04:27","1f75c3e559b7213887762d5229550c2b","41.123.105.39","Mozilla/5.0 (Windows NT 10.0; Win64; x64) AppleWebKit/537.36 (KHTML, like Gecko) Chrome/138.0.0.0 Safari/537.36","WebKit","Chrome","138.0.0.0","Windows","10.0","https://app.prolific.com/","en-GB,en-US;q=0.9,en;q=0.8","67e074f58a5ea7d9897f3223","683db9eb0562dbf637994deb","688096df7aad73dcd5e538de","2","1","67e074f58a5ea7d9897f3223","2","1","2025-07-23T08:13:27.722Z","","","","","","","","","","","ControlQ","","50","","","","","","","","","","","","","","","","","","","","","","","","","","","","",""
"5828","","<div style=""width:500px;"">
  <p>How would you describe your current emotional state?</p>
  </div>","0","html-slider-response","17","641420","0.0-5.0-3.1","188","1","2025-07-23 08:04:27","1f75c3e559b7213887762d5229550c2b","41.123.105.39","Mozilla/5.0 (Windows NT 10.0; Win64; x64) AppleWebKit/537.36 (KHTML, like Gecko) Chrome/138.0.0.0 Safari/537.36","WebKit","Chrome","138.0.0.0","Windows","10.0","https://app.prolific.com/","en-GB,en-US;q=0.9,en;q=0.8","67e074f58a5ea7d9897f3223","683db9eb0562dbf637994deb","688096df7aad73dcd5e538de","2","1","67e074f58a5ea7d9897f3223","2","1","2025-07-23T08:13:33.560Z","","","","","","","","","","","StressQ","","50","","","","","","","","","","","","","","","","","","","","","","","","","","","","",""
"4121","","<div style=""width:500px;"">
  <p>What best describes how you currently feel?</p>
  </div>","92","html-slider-response","18","645563","0.0-5.0-4.1","188","1","2025-07-23 08:04:27","1f75c3e559b7213887762d5229550c2b","41.123.105.39","Mozilla/5.0 (Windows NT 10.0; Win64; x64) AppleWebKit/537.36 (KHTML, like Gecko) Chrome/138.0.0.0 Safari/537.36","WebKit","Chrome","138.0.0.0","Windows","10.0","https://app.prolific.com/","en-GB,en-US;q=0.9,en;q=0.8","67e074f58a5ea7d9897f3223","683db9eb0562dbf637994deb","688096df7aad73dcd5e538de","2","1","67e074f58a5ea7d9897f3223","2","1","2025-07-23T08:13:37.701Z","","","","","","","","","","","MotivationQ","","50","","","","","","","","","","","","","","","","","","","","","","","","","","","","",""
"","","","","ctl-task-cpt","19","683860","0.0-5.0-0.2","188","1","2025-07-23 08:04:27","1f75c3e559b7213887762d5229550c2b","41.123.105.39","Mozilla/5.0 (Windows NT 10.0; Win64; x64) AppleWebKit/537.36 (KHTML, like Gecko) Chrome/138.0.0.0 Safari/537.36","WebKit","Chrome","138.0.0.0","Windows","10.0","https://app.prolific.com/","en-GB,en-US;q=0.9,en;q=0.8","67e074f58a5ea7d9897f3223","683db9eb0562dbf637994deb","688096df7aad73dcd5e538de","2","1","67e074f58a5ea7d9897f3223","2","1","2025-07-23T08:14:15.998Z","","","","","","","","","","","","","","win-only","2","g1:SE,g2:NW","0.8","3","0","684865.2","1224.3","6231","35268.2","1","4","8","6","2","-8","-9","0","3","0","2522.9","3000","-1975","[""left"",""up""]","{""num_key_presses"":7,""num_perfect"":5,""num_errors"":1,""num_randdir"":1,""num_randdir_good_moves"":0,""num_whilered"":0,""num_whileblue"":0,""num_blue"":2,""num_good_moves"":5}","[414.0714133126395,411.57142761775424,3.4,414.0714133126395,411.57142761775424,102.6,414.0714133126395,411.57142761775424,202.7,414.0714133126395,411.57142761775424,304.9,414.0714133126395,411.57142761775424,407.6,414.0714133126395,411.57142761775424,509.1,414.0714133126395,411.57142761775424,620.6,414.0714133126395,411.57142761775424,723.3,414.0714133126395,411.57142761775424,828.1,414.0714133126395,411.57142761775424,934.8,414.0714133126395,411.57142761775424,1037,414.0714133126395,411.57142761775424,1143.5,414.0714133126395,411.57142761775424,1253.9,115.3214133126395,311.57142761775424,1364.9,-59.67858668736049,236.57142761775424,1474.4,-128.4285866873605,210.32142761775424,1581.5,-158.4285866873605,166.57142761775424,1682.8,-88.4285866873605,131.57142761775424,1784.9,15.321413312639507,114.07142761775425,1890.6,41.57141331263951,110.32142761775425,1993.2,59.07141331263951,106.57142761775425,2094.4,57.82141331263951,106.57142761775425,2204.6,56.57141331263951,106.57142761775425,2304.6,56.57141331263951,106.57142761775425,2408.1,56.57141331263951,106.57142761775425,2512.6,56.57141331263951,106.57142761775425,2618.6,56.57141331263951,106.57142761775425,2719.9,56.57141331263951,106.57142761775425,2829.4,56.57141331263951,106.57142761775425,2934.6,56.57141331263951,106.57142761775425,3043,56.57141331263951,106.57142761775425,3144.7,56.57141331263951,106.57142761775425,3252.5,56.57141331263951,106.57142761775425,3357.8,56.57141331263951,106.57142761775425,3462.2,56.57141331263951,106.57142761775425,3565.5,56.57141331263951,106.57142761775425,3667.1,56.57141331263951,106.57142761775425,3773.9,56.57141331263951,106.57142761775425,3874.2,56.57141331263951,106.57142761775425,3981.2,56.57141331263951,106.57142761775425,4083,56.57141331263951,106.57142761775425,4194.7,56.57141331263951,106.57142761775425,4301.5,56.57141331263951,106.57142761775425,4404,56.57141331263951,106.57142761775425,4509.1,56.57141331263951,106.57142761775425,4609.7,56.57141331263951,106.57142761775425,4723.2,56.57141331263951,106.57142761775425,4834,56.57141331263951,106.57142761775425,4938]","[2700.6,2700.6,1000,0.2,1700.4,""smooth"",""left"",""left"",""good_move"",2849,144.8,2813.8,2704.2,-2669,""error"",""-"",""-"",""no_move"",7690.6,4839.2,3252.3,3853.6,584.7,""smooth"",""left"",""left"",""good_move"",10937.1,3243.3,2602.1,7693.9,641.2,""smooth"",""left"",""left"",""good_move"",17370.1,6423.4,1739.8,15146,484.4,""oops"",""up"",""down"",""bad_move"",20248.9,2874,2271.7,17375,602.2,""smooth"",""up"",""up"",""good_move"",26506.9,6255.5,2093.6,24005.2,408.1,""smooth"",""up"",""up"",""good_move""]","",""
"14691","","<div style=""width:500px;"">
  <p>What determined the result of this run?</p>
  </div>","65","html-slider-response","20","698560","0.0-5.0-1.2","188","1","2025-07-23 08:04:27","1f75c3e559b7213887762d5229550c2b","41.123.105.39","Mozilla/5.0 (Windows NT 10.0; Win64; x64) AppleWebKit/537.36 (KHTML, like Gecko) Chrome/138.0.0.0 Safari/537.36","WebKit","Chrome","138.0.0.0","Windows","10.0","https://app.prolific.com/","en-GB,en-US;q=0.9,en;q=0.8","67e074f58a5ea7d9897f3223","683db9eb0562dbf637994deb","688096df7aad73dcd5e538de","2","1","67e074f58a5ea7d9897f3223","2","1","2025-07-23T08:14:30.699Z","","","","","","","","","","","AttribQ","","50","","","","","","","","","","","","","","","","","","","","","","","","","","","","",""
"15993","","<div style=""width:500px;"">
  <p>How much control did you have over the ball?</p>
  </div>","67","html-slider-response","21","714568","0.0-5.0-2.2","188","1","2025-07-23 08:04:27","1f75c3e559b7213887762d5229550c2b","41.123.105.39","Mozilla/5.0 (Windows NT 10.0; Win64; x64) AppleWebKit/537.36 (KHTML, like Gecko) Chrome/138.0.0.0 Safari/537.36","WebKit","Chrome","138.0.0.0","Windows","10.0","https://app.prolific.com/","en-GB,en-US;q=0.9,en;q=0.8","67e074f58a5ea7d9897f3223","683db9eb0562dbf637994deb","688096df7aad73dcd5e538de","2","1","67e074f58a5ea7d9897f3223","2","1","2025-07-23T08:14:46.706Z","","","","","","","","","","","ControlQ","","50","","","","","","","","","","","","","","","","","","","","","","","","","","","","",""
"6284","","<div style=""width:500px;"">
  <p>How would you describe your current emotional state?</p>
  </div>","68","html-slider-response","22","720865","0.0-5.0-3.2","188","1","2025-07-23 08:04:27","1f75c3e559b7213887762d5229550c2b","41.123.105.39","Mozilla/5.0 (Windows NT 10.0; Win64; x64) AppleWebKit/537.36 (KHTML, like Gecko) Chrome/138.0.0.0 Safari/537.36","WebKit","Chrome","138.0.0.0","Windows","10.0","https://app.prolific.com/","en-GB,en-US;q=0.9,en;q=0.8","67e074f58a5ea7d9897f3223","683db9eb0562dbf637994deb","688096df7aad73dcd5e538de","2","1","67e074f58a5ea7d9897f3223","2","1","2025-07-23T08:14:53.003Z","","","","","","","","","","","StressQ","","50","","","","","","","","","","","","","","","","","","","","","","","","","","","","",""
"8585","","<div style=""width:500px;"">
  <p>What best describes how you currently feel?</p>
  </div>","27","html-slider-response","23","729466","0.0-5.0-4.2","188","1","2025-07-23 08:04:27","1f75c3e559b7213887762d5229550c2b","41.123.105.39","Mozilla/5.0 (Windows NT 10.0; Win64; x64) AppleWebKit/537.36 (KHTML, like Gecko) Chrome/138.0.0.0 Safari/537.36","WebKit","Chrome","138.0.0.0","Windows","10.0","https://app.prolific.com/","en-GB,en-US;q=0.9,en;q=0.8","67e074f58a5ea7d9897f3223","683db9eb0562dbf637994deb","688096df7aad73dcd5e538de","2","1","67e074f58a5ea7d9897f3223","2","1","2025-07-23T08:15:01.605Z","","","","","","","","","","","MotivationQ","","50","","","","","","","","","","","","","","","","","","","","","","","","","","","","",""
"","","","","ctl-task-cpt","24","767600","0.0-5.0-0.3","188","1","2025-07-23 08:04:27","1f75c3e559b7213887762d5229550c2b","41.123.105.39","Mozilla/5.0 (Windows NT 10.0; Win64; x64) AppleWebKit/537.36 (KHTML, like Gecko) Chrome/138.0.0.0 Safari/537.36","WebKit","Chrome","138.0.0.0","Windows","10.0","https://app.prolific.com/","en-GB,en-US;q=0.9,en;q=0.8","67e074f58a5ea7d9897f3223","683db9eb0562dbf637994deb","688096df7aad73dcd5e538de","2","1","67e074f58a5ea7d9897f3223","2","1","2025-07-23T08:15:39.739Z","","","","","","","","","","","","","","win-only","1","g1:NE,g2:SW","0.7","4","0","768767.5","3793.8","8806.4","35099.2","1","4","4","6","2","4","4","4","0","0.030303030303030304","2314.2","3000","200","[""down"",""left""]","{""num_key_presses"":8,""num_perfect"":6,""num_errors"":0,""num_randdir"":2,""num_randdir_good_moves"":1,""num_whilered"":0,""num_whileblue"":0,""num_blue"":1,""num_good_moves"":7}","[409.0714133126395,425.32142761775424,0.8,409.0714133126395,425.32142761775424,102.6,409.0714133126395,425.32142761775424,213.6,409.0714133126395,425.32142761775424,313.6,409.0714133126395,425.32142761775424,417.5,409.0714133126395,425.32142761775424,518.4,409.0714133126395,425.32142761775424,623.1,409.0714133126395,425.32142761775424,729.3,409.0714133126395,425.32142761775424,835.9,409.0714133126395,425.32142761775424,936.4,222.8214133126395,582.8214276177542,1046.1,-33.42858668736049,769.0714276177542,1148.3,-97.1785866873605,829.0714276177542,1254.1,-98.4285866873605,834.0714276177542,1362.2,-98.4285866873605,834.0714276177542,1466.1,-98.4285866873605,834.0714276177542,1569.7,-60.92858668736049,811.5714276177542,1679,6.571413312639507,781.5714276177542,1781.1,15.321413312639507,776.5714276177542,1884.3,16.571413312639507,776.5714276177542,1989.9,16.571413312639507,776.5714276177542,2091.6,16.571413312639507,776.5714276177542,2193.1,16.571413312639507,776.5714276177542,2297.4,16.571413312639507,776.5714276177542,2398.1,16.571413312639507,776.5714276177542,2503.2,16.571413312639507,776.5714276177542,2606,16.571413312639507,776.5714276177542,2713.2,16.571413312639507,776.5714276177542,2825.9,16.571413312639507,776.5714276177542,2927.7,16.571413312639507,776.5714276177542,3028.8,16.571413312639507,776.5714276177542,3133.3,16.571413312639507,776.5714276177542,3233.9,16.571413312639507,776.5714276177542,3338.2,16.571413312639507,776.5714276177542,3442.6,16.571413312639507,776.5714276177542,3543.3,16.571413312639507,776.5714276177542,3643.4,16.571413312639507,776.5714276177542,3752,16.571413312639507,776.5714276177542,3854.2,16.571413312639507,776.5714276177542,3960.4,16.571413312639507,776.5714276177542,4070.4,16.571413312639507,776.5714276177542,4173.7,16.571413312639507,776.5714276177542,4276.2,16.571413312639507,776.5714276177542,4377.3,16.571413312639507,776.5714276177542,4483.7,16.571413312639507,776.5714276177542,4590.5,16.571413312639507,776.5714276177542,4692.6,16.571413312639507,776.5714276177542,4799.3,16.571413312639507,776.5714276177542,4904.1]","[1854.5,1854.6,1000,0,854.6,""smooth"",""left"",""left"",""good_move"",4976.3,3119.3,2782.8,1857,336.5,""smooth"",""left"",""left"",""good_move"",8651.1,3672.1,2853.7,4979,818.4,""oops"",""left"",""down"",""good_move"",11517.3,2863.2,2415.1,8654.1,448.1,""oops"",""left"",""up"",""bad_move"",14411.5,2891.1,2504.2,11520.4,386.9,""smooth"",""left"",""left"",""good_move"",17581.6,3167.7,2747,14414,420.6,""smooth"",""down"",""down"",""good_move"",22894.1,5309.5,1881.5,20605.4,407.2,""smooth"",""down"",""down"",""good_move"",26138.3,3243.3,2695.6,22895,547.7,""smooth"",""down"",""down"",""good_move""]","",""
"17825","","<div style=""width:500px;"">
  <p>What determined the result of this run?</p>
  </div>","70","html-slider-response","25","785430","0.0-5.0-1.3","188","1","2025-07-23 08:04:27","1f75c3e559b7213887762d5229550c2b","41.123.105.39","Mozilla/5.0 (Windows NT 10.0; Win64; x64) AppleWebKit/537.36 (KHTML, like Gecko) Chrome/138.0.0.0 Safari/537.36","WebKit","Chrome","138.0.0.0","Windows","10.0","https://app.prolific.com/","en-GB,en-US;q=0.9,en;q=0.8","67e074f58a5ea7d9897f3223","683db9eb0562dbf637994deb","688096df7aad73dcd5e538de","2","1","67e074f58a5ea7d9897f3223","2","1","2025-07-23T08:15:57.569Z","","","","","","","","","","","AttribQ","","50","","","","","","","","","","","","","","","","","","","","","","","","","","","","",""
"10989","","<div style=""width:500px;"">
  <p>How much control did you have over the ball?</p>
  </div>","67","html-slider-response","26","796429","0.0-5.0-2.3","188","1","2025-07-23 08:04:27","1f75c3e559b7213887762d5229550c2b","41.123.105.39","Mozilla/5.0 (Windows NT 10.0; Win64; x64) AppleWebKit/537.36 (KHTML, like Gecko) Chrome/138.0.0.0 Safari/537.36","WebKit","Chrome","138.0.0.0","Windows","10.0","https://app.prolific.com/","en-GB,en-US;q=0.9,en;q=0.8","67e074f58a5ea7d9897f3223","683db9eb0562dbf637994deb","688096df7aad73dcd5e538de","2","1","67e074f58a5ea7d9897f3223","2","1","2025-07-23T08:16:08.567Z","","","","","","","","","","","ControlQ","","50","","","","","","","","","","","","","","","","","","","","","","","","","","","","",""
"4399","","<div style=""width:500px;"">
  <p>How would you describe your current emotional state?</p>
  </div>","13","html-slider-response","27","800833","0.0-5.0-3.3","188","1","2025-07-23 08:04:27","1f75c3e559b7213887762d5229550c2b","41.123.105.39","Mozilla/5.0 (Windows NT 10.0; Win64; x64) AppleWebKit/537.36 (KHTML, like Gecko) Chrome/138.0.0.0 Safari/537.36","WebKit","Chrome","138.0.0.0","Windows","10.0","https://app.prolific.com/","en-GB,en-US;q=0.9,en;q=0.8","67e074f58a5ea7d9897f3223","683db9eb0562dbf637994deb","688096df7aad73dcd5e538de","2","1","67e074f58a5ea7d9897f3223","2","1","2025-07-23T08:16:12.971Z","","","","","","","","","","","StressQ","","50","","","","","","","","","","","","","","","","","","","","","","","","","","","","",""
"3358","","<div style=""width:500px;"">
  <p>What best describes how you currently feel?</p>
  </div>","85","html-slider-response","28","804196","0.0-5.0-4.3","188","1","2025-07-23 08:04:27","1f75c3e559b7213887762d5229550c2b","41.123.105.39","Mozilla/5.0 (Windows NT 10.0; Win64; x64) AppleWebKit/537.36 (KHTML, like Gecko) Chrome/138.0.0.0 Safari/537.36","WebKit","Chrome","138.0.0.0","Windows","10.0","https://app.prolific.com/","en-GB,en-US;q=0.9,en;q=0.8","67e074f58a5ea7d9897f3223","683db9eb0562dbf637994deb","688096df7aad73dcd5e538de","2","1","67e074f58a5ea7d9897f3223","2","1","2025-07-23T08:16:16.334Z","","","","","","","","","","","MotivationQ","","50","","","","","","","","","","","","","","","","","","","","","","","","","","","","",""
"","","","","ctl-task-cpt","29","827286","0.0-5.0-0.4","188","1","2025-07-23 08:04:27","1f75c3e559b7213887762d5229550c2b","41.123.105.39","Mozilla/5.0 (Windows NT 10.0; Win64; x64) AppleWebKit/537.36 (KHTML, like Gecko) Chrome/138.0.0.0 Safari/537.36","WebKit","Chrome","138.0.0.0","Windows","10.0","https://app.prolific.com/","en-GB,en-US;q=0.9,en;q=0.8","67e074f58a5ea7d9897f3223","683db9eb0562dbf637994deb","688096df7aad73dcd5e538de","2","1","67e074f58a5ea7d9897f3223","2","1","2025-07-23T08:16:39.424Z","","","","","","","","","","","","","","win-only","0","g1:NW,g2:SE","0.6","5","0","843495.1","1683.5","6700.7","20063.3","1","4","4","6","2","-4","-4","0","4","0","1707.9","3000","-2000","[""down"",""right""]","{""num_key_presses"":3,""num_perfect"":1,""num_errors"":0,""num_randdir"":2,""num_randdir_good_moves"":1,""num_whilered"":0,""num_whileblue"":0,""num_blue"":0,""num_good_moves"":2}","[414.0714133126395,421.57142761775424,0.5,414.0714133126395,421.57142761775424,100.2,414.0714133126395,421.57142761775424,212.2,414.0714133126395,421.57142761775424,313.2,412.8214133126395,420.32142761775424,421.9,364.0714133126395,389.07142761775424,528.1,361.5714133126395,391.57142761775424,629,341.5714133126395,426.57142761775424,732.7,336.5714133126395,457.82142761775424,837.4,411.5714133126395,574.0714276177542,939.6,596.5714133126395,696.5714276177542,1049.9,651.5714133126395,729.0714276177542,1157.1,694.0714133126395,765.3214276177542,1264.6,694.0714133126395,765.3214276177542,1365.2,711.5714133126395,761.5714276177542,1476.5,717.8214133126395,761.5714276177542,1577.9,719.0714133126395,761.5714276177542,1686.5,719.0714133126395,761.5714276177542,1798.7,719.0714133126395,761.5714276177542,1908.5,719.0714133126395,761.5714276177542,2013.3,719.0714133126395,761.5714276177542,2115.1,725.3214133126395,744.0714276177542,2221.2,726.5714133126395,721.5714276177542,2321.6,726.5714133126395,684.0714276177542,2430.9,720.3214133126395,671.5714276177542,2533.9,720.3214133126395,671.5714276177542,2637.6,720.3214133126395,671.5714276177542,2738.7,720.3214133126395,671.5714276177542,2839.5,720.3214133126395,671.5714276177542,2943.5,720.3214133126395,671.5714276177542,3048.4,720.3214133126395,671.5714276177542,3149.6,720.3214133126395,671.5714276177542,3264.1,720.3214133126395,671.5714276177542,3372.8,720.3214133126395,671.5714276177542,3476,720.3214133126395,671.5714276177542,3585.5,720.3214133126395,671.5714276177542,3688.6,720.3214133126395,671.5714276177542,3798.7,720.3214133126395,671.5714276177542,3901.8,720.3214133126395,671.5714276177542,4012.7,720.3214133126395,671.5714276177542,4120.5,720.3214133126395,671.5714276177542,4220.8,720.3214133126395,671.5714276177542,4323.5,720.3214133126395,671.5714276177542,4424.1,720.3214133126395,671.5714276177542,4531.7,720.3214133126395,671.5714276177542,4632.8,720.3214133126395,671.5714276177542,4735.7,720.3214133126395,671.5714276177542,4848.2,720.3214133126395,671.5714276177542,4954.6]","[2410,2410,1000,0,1410,""smooth"",""right"",""right"",""good_move"",6405.9,3994.2,2415.2,2411.7,1579.2,""oops"",""right"",""left"",""bad_move"",10260.3,3850.5,2781.8,6409.9,1068.7,""oops"",""down"",""right"",""good_move""]","",""
"10640","","<div style=""width:500px;"">
  <p>What determined the result of this run?</p>
  </div>","0","html-slider-response","30","837930","0.0-5.0-1.4","188","1","2025-07-23 08:04:27","1f75c3e559b7213887762d5229550c2b","41.123.105.39","Mozilla/5.0 (Windows NT 10.0; Win64; x64) AppleWebKit/537.36 (KHTML, like Gecko) Chrome/138.0.0.0 Safari/537.36","WebKit","Chrome","138.0.0.0","Windows","10.0","https://app.prolific.com/","en-GB,en-US;q=0.9,en;q=0.8","67e074f58a5ea7d9897f3223","683db9eb0562dbf637994deb","688096df7aad73dcd5e538de","2","1","67e074f58a5ea7d9897f3223","2","1","2025-07-23T08:16:50.068Z","","","","","","","","","","","AttribQ","","50","","","","","","","","","","","","","","","","","","","","","","","","","","","","",""
"4289","","<div style=""width:500px;"">
  <p>How much control did you have over the ball?</p>
  </div>","0","html-slider-response","31","842223","0.0-5.0-2.4","188","1","2025-07-23 08:04:27","1f75c3e559b7213887762d5229550c2b","41.123.105.39","Mozilla/5.0 (Windows NT 10.0; Win64; x64) AppleWebKit/537.36 (KHTML, like Gecko) Chrome/138.0.0.0 Safari/537.36","WebKit","Chrome","138.0.0.0","Windows","10.0","https://app.prolific.com/","en-GB,en-US;q=0.9,en;q=0.8","67e074f58a5ea7d9897f3223","683db9eb0562dbf637994deb","688096df7aad73dcd5e538de","2","1","67e074f58a5ea7d9897f3223","2","1","2025-07-23T08:16:54.362Z","","","","","","","","","","","ControlQ","","50","","","","","","","","","","","","","","","","","","","","","","","","","","","","",""
"4527","","<div style=""width:500px;"">
  <p>How would you describe your current emotional state?</p>
  </div>","100","html-slider-response","32","846759","0.0-5.0-3.4","188","1","2025-07-23 08:04:27","1f75c3e559b7213887762d5229550c2b","41.123.105.39","Mozilla/5.0 (Windows NT 10.0; Win64; x64) AppleWebKit/537.36 (KHTML, like Gecko) Chrome/138.0.0.0 Safari/537.36","WebKit","Chrome","138.0.0.0","Windows","10.0","https://app.prolific.com/","en-GB,en-US;q=0.9,en;q=0.8","67e074f58a5ea7d9897f3223","683db9eb0562dbf637994deb","688096df7aad73dcd5e538de","2","1","67e074f58a5ea7d9897f3223","2","1","2025-07-23T08:16:58.897Z","","","","","","","","","","","StressQ","","50","","","","","","","","","","","","","","","","","","","","","","","","","","","","",""
"4817","","<div style=""width:500px;"">
  <p>What best describes how you currently feel?</p>
  </div>","0","html-slider-response","33","851585","0.0-5.0-4.4","188","1","2025-07-23 08:04:27","1f75c3e559b7213887762d5229550c2b","41.123.105.39","Mozilla/5.0 (Windows NT 10.0; Win64; x64) AppleWebKit/537.36 (KHTML, like Gecko) Chrome/138.0.0.0 Safari/537.36","WebKit","Chrome","138.0.0.0","Windows","10.0","https://app.prolific.com/","en-GB,en-US;q=0.9,en;q=0.8","67e074f58a5ea7d9897f3223","683db9eb0562dbf637994deb","688096df7aad73dcd5e538de","2","1","67e074f58a5ea7d9897f3223","2","1","2025-07-23T08:17:03.723Z","","","","","","","","","","","MotivationQ","","50","","","","","","","","","","","","","","","","","","","","","","","","","","","","",""
"","","","","ctl-task-cpt","34","903182","0.0-5.0-0.5","188","1","2025-07-23 08:04:27","1f75c3e559b7213887762d5229550c2b","41.123.105.39","Mozilla/5.0 (Windows NT 10.0; Win64; x64) AppleWebKit/537.36 (KHTML, like Gecko) Chrome/138.0.0.0 Safari/537.36","WebKit","Chrome","138.0.0.0","Windows","10.0","https://app.prolific.com/","en-GB,en-US;q=0.9,en;q=0.8","67e074f58a5ea7d9897f3223","683db9eb0562dbf637994deb","688096df7aad73dcd5e538de","2","1","67e074f58a5ea7d9897f3223","2","1","2025-07-23T08:17:55.320Z","","","","","","","","","","","","","","win-only","2","g1:SE,g2:NW","0.5","6","0","890880.3","1860.4","6876.7","48575.4","1","4","8","6","2","-8","-8","0","0","0","1196.4","3000","-1595","[""left"",""up""]","{""num_key_presses"":11,""num_perfect"":5,""num_errors"":0,""num_randdir"":6,""num_randdir_good_moves"":3,""num_whilered"":0,""num_whileblue"":0,""num_blue"":2,""num_good_moves"":7}","[424.0714133126395,415.32142761775424,3.3,424.0714133126395,415.32142761775424,105.9,424.0714133126395,415.32142761775424,207.5,424.0714133126395,415.32142761775424,311.6,424.0714133126395,415.32142761775424,423.5,420.3214133126395,389.07142761775424,535.9,211.5714133126395,277.82142761775424,643.6,145.3214133126395,204.07142761775424,751.7,117.8214133126395,130.32142761775424,855.9,101.5714133126395,76.57142761775425,956.1,99.0714133126395,76.57142761775425,1056.1,99.0714133126395,76.57142761775425,1160.3,97.8214133126395,79.07142761775425,1273.3,92.8214133126395,81.57142761775425,1376.5,92.8214133126395,81.57142761775425,1480.5,106.5714133126395,91.57142761775425,1585.5,471.5714133126395,220.32142761775424,1689.6,642.8214133126395,281.57142761775424,1791.3,709.0714133126395,332.82142761775424,1901.1,710.3214133126395,336.57142761775424,2019.8,721.5714133126395,355.32142761775424,2120.5,725.3214133126395,359.07142761775424,2222.3,725.3214133126395,359.07142761775424,2332.2,725.3214133126395,359.07142761775424,2436.5,725.3214133126395,359.07142761775424,2538.8,725.3214133126395,359.07142761775424,2651.2,725.3214133126395,359.07142761775424,2758.4,725.3214133126395,359.07142761775424,2858.6,725.3214133126395,359.07142761775424,2961.6,725.3214133126395,359.07142761775424,3063.2,725.3214133126395,359.07142761775424,3170.8,725.3214133126395,359.07142761775424,3273.3,725.3214133126395,359.07142761775424,3373.4,725.3214133126395,359.07142761775424,3473.7,725.3214133126395,359.07142761775424,3578.4,725.3214133126395,359.07142761775424,3684.7,725.3214133126395,359.07142761775424,3788.2,725.3214133126395,359.07142761775424,3893.4,725.3214133126395,359.07142761775424,3995.1,725.3214133126395,359.07142761775424,4095.8,725.3214133126395,359.07142761775424,4199.5,725.3214133126395,359.07142761775424,4300.3,725.3214133126395,359.07142761775424,4402.7,725.3214133126395,359.07142761775424,4503.7,725.3214133126395,359.07142761775424,4606.1,725.3214133126395,359.07142761775424,4708.5,725.3214133126395,359.07142761775424,4817.1,725.3214133126395,359.07142761775424,4917.3]","[1949.2,1949.2,1000,0,949.2,""smooth"",""right"",""right"",""bad_move"",11963.6,10013.1,2177.3,9349.1,437.2,""smooth"",""up"",""up"",""good_move"",14820.3,2852.3,2166.9,11968,685.4,""smooth"",""up"",""up"",""good_move"",18821.6,3997.3,3148,14824.3,849.3,""smooth"",""up"",""up"",""good_move"",21967.1,3143.2,2727.6,18823.9,415.6,""oops"",""left"",""right"",""bad_move"",25152.7,3176.5,2779.8,21976.2,396.7,""oops"",""left"",""left"",""good_move"",27931.4,2772.3,2332.6,25159.2,439.7,""oops"",""left"",""left"",""good_move"",30734.6,2799.5,2429,27935.1,370.5,""smooth"",""left"",""left"",""good_move"",33402.4,2662.4,2266.6,30740,395.8,""oops"",""left"",""right"",""bad_move"",36492.7,3083.6,2676.6,33409.2,407,""oops"",""left"",""left"",""good_move"",38913,2415.6,2002,36497.4,413.6,""oops"",""left"",""down"",""bad_move""]","",""
"7361","","<div style=""width:500px;"">
  <p>What determined the result of this run?</p>
  </div>","0","html-slider-response","35","910546","0.0-5.0-1.5","188","1","2025-07-23 08:04:27","1f75c3e559b7213887762d5229550c2b","41.123.105.39","Mozilla/5.0 (Windows NT 10.0; Win64; x64) AppleWebKit/537.36 (KHTML, like Gecko) Chrome/138.0.0.0 Safari/537.36","WebKit","Chrome","138.0.0.0","Windows","10.0","https://app.prolific.com/","en-GB,en-US;q=0.9,en;q=0.8","67e074f58a5ea7d9897f3223","683db9eb0562dbf637994deb","688096df7aad73dcd5e538de","2","1","67e074f58a5ea7d9897f3223","2","1","2025-07-23T08:18:02.685Z","","","","","","","","","","","AttribQ","","50","","","","","","","","","","","","","","","","","","","","","","","","","","","","",""
"4735","","<div style=""width:500px;"">
  <p>How much control did you have over the ball?</p>
  </div>","0","html-slider-response","36","915286","0.0-5.0-2.5","188","1","2025-07-23 08:04:27","1f75c3e559b7213887762d5229550c2b","41.123.105.39","Mozilla/5.0 (Windows NT 10.0; Win64; x64) AppleWebKit/537.36 (KHTML, like Gecko) Chrome/138.0.0.0 Safari/537.36","WebKit","Chrome","138.0.0.0","Windows","10.0","https://app.prolific.com/","en-GB,en-US;q=0.9,en;q=0.8","67e074f58a5ea7d9897f3223","683db9eb0562dbf637994deb","688096df7aad73dcd5e538de","2","1","67e074f58a5ea7d9897f3223","2","1","2025-07-23T08:18:07.424Z","","","","","","","","","","","ControlQ","","50","","","","","","","","","","","","","","","","","","","","","","","","","","","","",""
"3348","","<div style=""width:500px;"">
  <p>How would you describe your current emotional state?</p>
  </div>","73","html-slider-response","37","918639","0.0-5.0-3.5","188","1","2025-07-23 08:04:27","1f75c3e559b7213887762d5229550c2b","41.123.105.39","Mozilla/5.0 (Windows NT 10.0; Win64; x64) AppleWebKit/537.36 (KHTML, like Gecko) Chrome/138.0.0.0 Safari/537.36","WebKit","Chrome","138.0.0.0","Windows","10.0","https://app.prolific.com/","en-GB,en-US;q=0.9,en;q=0.8","67e074f58a5ea7d9897f3223","683db9eb0562dbf637994deb","688096df7aad73dcd5e538de","2","1","67e074f58a5ea7d9897f3223","2","1","2025-07-23T08:18:10.778Z","","","","","","","","","","","StressQ","","50","","","","","","","","","","","","","","","","","","","","","","","","","","","","",""
"4226","","<div style=""width:500px;"">
  <p>What best describes how you currently feel?</p>
  </div>","19","html-slider-response","38","922873","0.0-5.0-4.5","188","1","2025-07-23 08:04:27","1f75c3e559b7213887762d5229550c2b","41.123.105.39","Mozilla/5.0 (Windows NT 10.0; Win64; x64) AppleWebKit/537.36 (KHTML, like Gecko) Chrome/138.0.0.0 Safari/537.36","WebKit","Chrome","138.0.0.0","Windows","10.0","https://app.prolific.com/","en-GB,en-US;q=0.9,en;q=0.8","67e074f58a5ea7d9897f3223","683db9eb0562dbf637994deb","688096df7aad73dcd5e538de","2","1","67e074f58a5ea7d9897f3223","2","1","2025-07-23T08:18:15.011Z","","","","","","","","","","","MotivationQ","","50","","","","","","","","","","","","","","","","","","","","","","","","","","","","",""
"","","","","ctl-task-cpt","39","970717","0.0-5.0-0.6","188","1","2025-07-23 08:04:27","1f75c3e559b7213887762d5229550c2b","41.123.105.39","Mozilla/5.0 (Windows NT 10.0; Win64; x64) AppleWebKit/537.36 (KHTML, like Gecko) Chrome/138.0.0.0 Safari/537.36","WebKit","Chrome","138.0.0.0","Windows","10.0","https://app.prolific.com/","en-GB,en-US;q=0.9,en;q=0.8","67e074f58a5ea7d9897f3223","683db9eb0562dbf637994deb","688096df7aad73dcd5e538de","2","1","67e074f58a5ea7d9897f3223","2","1","2025-07-23T08:19:02.856Z","","","","","","","","","","","","","","win-only","0","g1:NW,g2:SE","0.4","7","0","962167.6","1906","6911.9","44823.2","1","4","4","6","2","4","4","4","0","0.030303030303030304","1843.3","3000","1200","[""down"",""right""]","{""num_key_presses"":6,""num_perfect"":3,""num_errors"":0,""num_randdir"":3,""num_randdir_good_moves"":3,""num_whilered"":0,""num_whileblue"":0,""num_blue"":6,""num_good_moves"":6}","[426.5714133126395,409.07142761775424,0.7,426.5714133126395,409.07142761775424,110.1,426.5714133126395,409.07142761775424,218.6,426.5714133126395,409.07142761775424,319.7,425.3214133126395,410.32142761775424,424.5,421.5714133126395,400.32142761775424,539.5,435.3214133126395,381.57142761775424,651.5,907.8214133126395,769.0714276177542,759,1022.8214133126395,864.0714276177542,863,1014.0714133126395,849.0714276177542,969.9,1024.0714133126396,856.5714276177542,1072.2,929.0714133126395,850.3214276177542,1179.4,887.8214133126395,810.3214276177542,1291.1,869.0714133126395,779.0714276177542,1397.5,830.3214133126395,761.5714276177542,1513.8,772.8214133126395,747.8214276177542,1620.1,755.3214133126395,742.8214276177542,1735.8,751.5714133126395,741.5714276177542,1849.6,751.5714133126395,741.5714276177542,1956.4,755.3214133126395,741.5714276177542,2058.8,770.3214133126395,754.0714276177542,2160.9,771.5714133126395,747.8214276177542,2267.3,770.3214133126395,716.5714276177542,2368.2,770.3214133126395,716.5714276177542,2471.9,784.0714133126395,737.8214276177542,2576.1,821.5714133126395,711.5714276177542,2680.9,821.5714133126395,711.5714276177542,2781.1,821.5714133126395,711.5714276177542,2891.1,821.5714133126395,710.3214276177542,2991.5,821.5714133126395,710.3214276177542,3116,821.5714133126395,710.3214276177542,3219.6,821.5714133126395,710.3214276177542,3327.3,821.5714133126395,710.3214276177542,3431,821.5714133126395,710.3214276177542,3533.9,821.5714133126395,710.3214276177542,3642.2,821.5714133126395,710.3214276177542,3746.2,821.5714133126395,710.3214276177542,3847.5,821.5714133126395,710.3214276177542,3949.2,821.5714133126395,710.3214276177542,4056,821.5714133126395,710.3214276177542,4170.2,821.5714133126395,710.3214276177542,4277.2,821.5714133126395,710.3214276177542,4382,821.5714133126395,710.3214276177542,4486.3,821.5714133126395,710.3214276177542,4593.9,821.5714133126395,710.3214276177542,4699,821.5714133126395,710.3214276177542,4800.7,821.5714133126395,710.3214276177542,4903.7]","[5274.7,5274.7,2633.6,2010.4,630.7,""smooth"",""down"",""down"",""good_move"",11533.1,6256.4,2640,8265.6,627.5,""smooth"",""down"",""down"",""good_move"",14562.3,3023.5,2418.2,11538.8,605.3,""oops"",""down"",""right"",""good_move"",22102.7,7534.9,3323.6,18354.2,424.9,""smooth"",""down"",""down"",""good_move"",31019.1,8913.4,2289.6,28283.9,445.7,""oops"",""right"",""right"",""good_move"",37749.9,6729.3,2686.8,34631,432.1,""oops"",""right"",""right"",""good_move""]","",""
"3697","","<div style=""width:500px;"">
  <p>What determined the result of this run?</p>
  </div>","100","html-slider-response","40","974419","0.0-5.0-1.6","188","1","2025-07-23 08:04:27","1f75c3e559b7213887762d5229550c2b","41.123.105.39","Mozilla/5.0 (Windows NT 10.0; Win64; x64) AppleWebKit/537.36 (KHTML, like Gecko) Chrome/138.0.0.0 Safari/537.36","WebKit","Chrome","138.0.0.0","Windows","10.0","https://app.prolific.com/","en-GB,en-US;q=0.9,en;q=0.8","67e074f58a5ea7d9897f3223","683db9eb0562dbf637994deb","688096df7aad73dcd5e538de","2","1","67e074f58a5ea7d9897f3223","2","1","2025-07-23T08:19:06.557Z","","","","","","","","","","","AttribQ","","50","","","","","","","","","","","","","","","","","","","","","","","","","","","","",""
"5187","","<div style=""width:500px;"">
  <p>How much control did you have over the ball?</p>
  </div>","87","html-slider-response","41","979615","0.0-5.0-2.6","188","1","2025-07-23 08:04:27","1f75c3e559b7213887762d5229550c2b","41.123.105.39","Mozilla/5.0 (Windows NT 10.0; Win64; x64) AppleWebKit/537.36 (KHTML, like Gecko) Chrome/138.0.0.0 Safari/537.36","WebKit","Chrome","138.0.0.0","Windows","10.0","https://app.prolific.com/","en-GB,en-US;q=0.9,en;q=0.8","67e074f58a5ea7d9897f3223","683db9eb0562dbf637994deb","688096df7aad73dcd5e538de","2","1","67e074f58a5ea7d9897f3223","2","1","2025-07-23T08:19:11.753Z","","","","","","","","","","","ControlQ","","50","","","","","","","","","","","","","","","","","","","","","","","","","","","","",""
"3548","","<div style=""width:500px;"">
  <p>How would you describe your current emotional state?</p>
  </div>","0","html-slider-response","42","983170","0.0-5.0-3.6","188","1","2025-07-23 08:04:27","1f75c3e559b7213887762d5229550c2b","41.123.105.39","Mozilla/5.0 (Windows NT 10.0; Win64; x64) AppleWebKit/537.36 (KHTML, like Gecko) Chrome/138.0.0.0 Safari/537.36","WebKit","Chrome","138.0.0.0","Windows","10.0","https://app.prolific.com/","en-GB,en-US;q=0.9,en;q=0.8","67e074f58a5ea7d9897f3223","683db9eb0562dbf637994deb","688096df7aad73dcd5e538de","2","1","67e074f58a5ea7d9897f3223","2","1","2025-07-23T08:19:15.308Z","","","","","","","","","","","StressQ","","50","","","","","","","","","","","","","","","","","","","","","","","","","","","","",""
"3213","","<div style=""width:500px;"">
  <p>What best describes how you currently feel?</p>
  </div>","100","html-slider-response","43","986391","0.0-5.0-4.6","188","1","2025-07-23 08:04:27","1f75c3e559b7213887762d5229550c2b","41.123.105.39","Mozilla/5.0 (Windows NT 10.0; Win64; x64) AppleWebKit/537.36 (KHTML, like Gecko) Chrome/138.0.0.0 Safari/537.36","WebKit","Chrome","138.0.0.0","Windows","10.0","https://app.prolific.com/","en-GB,en-US;q=0.9,en;q=0.8","67e074f58a5ea7d9897f3223","683db9eb0562dbf637994deb","688096df7aad73dcd5e538de","2","1","67e074f58a5ea7d9897f3223","2","1","2025-07-23T08:19:18.529Z","","","","","","","","","","","MotivationQ","","50","","","","","","","","","","","","","","","","","","","","","","","","","","","","",""
"","","","","ctl-task-cpt","44","1041192","0.0-5.0-0.7","188","1","2025-07-23 08:04:27","1f75c3e559b7213887762d5229550c2b","41.123.105.39","Mozilla/5.0 (Windows NT 10.0; Win64; x64) AppleWebKit/537.36 (KHTML, like Gecko) Chrome/138.0.0.0 Safari/537.36","WebKit","Chrome","138.0.0.0","Windows","10.0","https://app.prolific.com/","en-GB,en-US;q=0.9,en;q=0.8","67e074f58a5ea7d9897f3223","683db9eb0562dbf637994deb","688096df7aad73dcd5e538de","2","1","67e074f58a5ea7d9897f3223","2","1","2025-07-23T08:20:13.330Z","","","","","","","","","","","","","","win-only","0","g1:NW,g2:SE","0.3","8","0","1025683.1","1592.4","6597.9","51736.9","1","4","8","6","2","-8","-8","0","4","0","1119.9","3000","-1530","[""down"",""right""]","{""num_key_presses"":13,""num_perfect"":5,""num_errors"":0,""num_randdir"":8,""num_randdir_good_moves"":3,""num_whilered"":0,""num_whileblue"":0,""num_blue"":1,""num_good_moves"":8}","[416.5714133126395,414.07142761775424,0.8,416.5714133126395,414.07142761775424,107.8,416.5714133126395,414.07142761775424,213.3,416.5714133126395,414.07142761775424,330.1,414.0714133126395,429.07142761775424,444.4,505.3214133126395,590.3214276177542,551.1,614.0714133126395,674.0714276177542,653.6,707.8214133126395,711.5714276177542,756.1,782.8214133126395,767.8214276177542,861.7,782.8214133126395,767.8214276177542,968.5,782.8214133126395,767.8214276177542,1076.4,780.3214133126395,766.5714276177542,1179.2,780.3214133126395,766.5714276177542,1288.5,780.3214133126395,766.5714276177542,1396.3,780.3214133126395,766.5714276177542,1511.7,780.3214133126395,747.8214276177542,1624.2,766.5714133126395,669.0714276177542,1731.3,760.3214133126395,621.5714276177542,1837.3,759.0714133126395,614.0714276177542,1938.5,759.0714133126395,614.0714276177542,2044.2,759.0714133126395,614.0714276177542,2145.9,759.0714133126395,614.0714276177542,2248.3,759.0714133126395,614.0714276177542,2357.2,759.0714133126395,614.0714276177542,2465.3,759.0714133126395,614.0714276177542,2574.2,759.0714133126395,614.0714276177542,2677.8,759.0714133126395,614.0714276177542,2782.3,759.0714133126395,614.0714276177542,2888.4,759.0714133126395,614.0714276177542,2994.8,759.0714133126395,614.0714276177542,3107.8,759.0714133126395,614.0714276177542,3213.5,759.0714133126395,614.0714276177542,3314.6,759.0714133126395,614.0714276177542,3421.8,759.0714133126395,614.0714276177542,3529.8,759.0714133126395,614.0714276177542,3640.9,759.0714133126395,614.0714276177542,3747,759.0714133126395,614.0714276177542,3850.7,759.0714133126395,614.0714276177542,3960.4,759.0714133126395,614.0714276177542,4066.3,759.0714133126395,614.0714276177542,4176.4,759.0714133126395,614.0714276177542,4286.8,759.0714133126395,614.0714276177542,4392.8,759.0714133126395,614.0714276177542,4495.2,759.0714133126395,614.0714276177542,4609.8,759.0714133126395,614.0714276177542,4714.5,759.0714133126395,614.0714276177542,4822.6,759.0714133126395,614.0714276177542,4931.2]","[1854.3,1854.3,1000,0,854.3,""oops"",""down"",""up"",""bad_move"",4590,2732.8,2243.1,1857.2,489.7,""oops"",""right"",""left"",""bad_move"",7443.3,2848.7,2106.6,4594.6,742.2,""oops"",""right"",""left"",""bad_move"",11060.7,3612.7,2993.1,7448.7,619,""smooth"",""down"",""down"",""good_move"",14476.9,3411.5,2989.6,11065.4,421.9,""oops"",""down"",""down"",""good_move"",17385.4,2904.3,2492.2,14481.1,412.1,""oops"",""down"",""right"",""good_move"",24512.4,7119.9,2939.7,21032.6,540.1,""smooth"",""down"",""down"",""good_move"",27269.8,2754.1,1938.2,24515.9,815.8,""oops"",""down"",""right"",""good_move"",30065.3,2789.9,2246.2,27275.6,543.6,""oops"",""down"",""up"",""bad_move"",33349,3275.9,2578.5,30073.1,697.4,""smooth"",""right"",""right"",""good_move"",35944.8,2590.5,2160.3,33354.3,430.2,""smooth"",""right"",""right"",""good_move"",38874.7,2924.8,2511.3,35949.9,413.5,""smooth"",""right"",""right"",""good_move"",42516.8,3638.2,3307.2,38878.6,331,""oops"",""down"",""left"",""bad_move""]","",""
"5964","","<div style=""width:500px;"">
  <p>What determined the result of this run?</p>
  </div>","0","html-slider-response","45","1047161","0.0-5.0-1.7","188","1","2025-07-23 08:04:27","1f75c3e559b7213887762d5229550c2b","41.123.105.39","Mozilla/5.0 (Windows NT 10.0; Win64; x64) AppleWebKit/537.36 (KHTML, like Gecko) Chrome/138.0.0.0 Safari/537.36","WebKit","Chrome","138.0.0.0","Windows","10.0","https://app.prolific.com/","en-GB,en-US;q=0.9,en;q=0.8","67e074f58a5ea7d9897f3223","683db9eb0562dbf637994deb","688096df7aad73dcd5e538de","2","1","67e074f58a5ea7d9897f3223","2","1","2025-07-23T08:20:19.299Z","","","","","","","","","","","AttribQ","","50","","","","","","","","","","","","","","","","","","","","","","","","","","","","",""
"3726","","<div style=""width:500px;"">
  <p>How much control did you have over the ball?</p>
  </div>","0","html-slider-response","46","1050892","0.0-5.0-2.7","188","1","2025-07-23 08:04:27","1f75c3e559b7213887762d5229550c2b","41.123.105.39","Mozilla/5.0 (Windows NT 10.0; Win64; x64) AppleWebKit/537.36 (KHTML, like Gecko) Chrome/138.0.0.0 Safari/537.36","WebKit","Chrome","138.0.0.0","Windows","10.0","https://app.prolific.com/","en-GB,en-US;q=0.9,en;q=0.8","67e074f58a5ea7d9897f3223","683db9eb0562dbf637994deb","688096df7aad73dcd5e538de","2","1","67e074f58a5ea7d9897f3223","2","1","2025-07-23T08:20:23.031Z","","","","","","","","","","","ControlQ","","50","","","","","","","","","","","","","","","","","","","","","","","","","","","","",""
"4288","","<div style=""width:500px;"">
  <p>How would you describe your current emotional state?</p>
  </div>","96","html-slider-response","47","1055186","0.0-5.0-3.7","188","1","2025-07-23 08:04:27","1f75c3e559b7213887762d5229550c2b","41.123.105.39","Mozilla/5.0 (Windows NT 10.0; Win64; x64) AppleWebKit/537.36 (KHTML, like Gecko) Chrome/138.0.0.0 Safari/537.36","WebKit","Chrome","138.0.0.0","Windows","10.0","https://app.prolific.com/","en-GB,en-US;q=0.9,en;q=0.8","67e074f58a5ea7d9897f3223","683db9eb0562dbf637994deb","688096df7aad73dcd5e538de","2","1","67e074f58a5ea7d9897f3223","2","1","2025-07-23T08:20:27.324Z","","","","","","","","","","","StressQ","","50","","","","","","","","","","","","","","","","","","","","","","","","","","","","",""
"3675","","<div style=""width:500px;"">
  <p>What best describes how you currently feel?</p>
  </div>","15","html-slider-response","48","1058867","0.0-5.0-4.7","188","1","2025-07-23 08:04:27","1f75c3e559b7213887762d5229550c2b","41.123.105.39","Mozilla/5.0 (Windows NT 10.0; Win64; x64) AppleWebKit/537.36 (KHTML, like Gecko) Chrome/138.0.0.0 Safari/537.36","WebKit","Chrome","138.0.0.0","Windows","10.0","https://app.prolific.com/","en-GB,en-US;q=0.9,en;q=0.8","67e074f58a5ea7d9897f3223","683db9eb0562dbf637994deb","688096df7aad73dcd5e538de","2","1","67e074f58a5ea7d9897f3223","2","1","2025-07-23T08:20:31.005Z","","","","","","","","","","","MotivationQ","","50","","","","","","","","","","","","","","","","","","","","","","","","","","","","",""
"","","","","ctl-task-cpt","49","1149701","0.0-5.0-0.8","188","1","2025-07-23 08:04:27","1f75c3e559b7213887762d5229550c2b","41.123.105.39","Mozilla/5.0 (Windows NT 10.0; Win64; x64) AppleWebKit/537.36 (KHTML, like Gecko) Chrome/138.0.0.0 Safari/537.36","WebKit","Chrome","138.0.0.0","Windows","10.0","https://app.prolific.com/","en-GB,en-US;q=0.9,en;q=0.8","67e074f58a5ea7d9897f3223","683db9eb0562dbf637994deb","688096df7aad73dcd5e538de","2","1","67e074f58a5ea7d9897f3223","2","1","2025-07-23T08:22:01.840Z","","","","","","","","","","","","","","win-only","0","g1:NW,g2:SE","0.2","9","0","1098159.3","1653.6","6669.7","87801.7","1","4","8","6","2","-8","-9","0","0","0","1317.4","3000","-905","[""down"",""right""]","{""num_key_presses"":18,""num_perfect"":4,""num_errors"":1,""num_randdir"":13,""num_randdir_good_moves"":4,""num_whilered"":0,""num_whileblue"":0,""num_blue"":6,""num_good_moves"":8}","[411.5714133126395,421.57142761775424,0.9,411.5714133126395,421.57142761775424,105.3,411.5714133126395,421.57142761775424,215.1,411.5714133126395,421.57142761775424,316.3,411.5714133126395,421.57142761775424,416.9,401.5714133126395,452.82142761775424,533.1,497.8214133126395,610.3214276177542,641.4,771.5714133126395,741.5714276177542,750.6,785.3214133126395,750.3214276177542,850.8,785.3214133126395,750.3214276177542,960.6,791.5714133126395,769.0714276177542,1070.3,786.5714133126395,774.0714276177542,1184.9,781.5714133126395,764.0714276177542,1291.3,781.5714133126395,762.8214276177542,1408.4,781.5714133126395,762.8214276177542,1508.6,781.5714133126395,762.8214276177542,1623.1,781.5714133126395,762.8214276177542,1723.5,764.0714133126395,720.3214276177542,1830.9,746.5714133126395,675.3214276177542,1940.6,745.3214133126395,672.8214276177542,2051.2,745.3214133126395,672.8214276177542,2152.7,745.3214133126395,672.8214276177542,2256,745.3214133126395,670.3214276177542,2367.5,745.3214133126395,670.3214276177542,2476.7,745.3214133126395,670.3214276177542,2580.4,745.3214133126395,670.3214276177542,2700.5,745.3214133126395,670.3214276177542,2810.4,745.3214133126395,670.3214276177542,2917.9,745.3214133126395,670.3214276177542,3035.6,745.3214133126395,670.3214276177542,3149.2,745.3214133126395,670.3214276177542,3252.2,745.3214133126395,670.3214276177542,3359.9,745.3214133126395,670.3214276177542,3466,745.3214133126395,670.3214276177542,3568.9,745.3214133126395,670.3214276177542,3675.1,745.3214133126395,670.3214276177542,3783.2,745.3214133126395,670.3214276177542,3887.6,745.3214133126395,670.3214276177542,3991.6,745.3214133126395,670.3214276177542,4102.5,745.3214133126395,670.3214276177542,4212.6,745.3214133126395,670.3214276177542,4316,745.3214133126395,670.3214276177542,4427.4,745.3214133126395,670.3214276177542,4538.9,745.3214133126395,670.3214276177542,4639.1,745.3214133126395,670.3214276177542,4745.3,745.3214133126395,670.3214276177542,4849.8,745.3214133126395,655.3214276177542,4955.6]","[2344.2,2344.2,1000,0,1344.3,""smooth"",""right"",""right"",""good_move"",21299.4,18951.8,2823.7,17863.2,612.5,""oops"",""right"",""right"",""good_move"",24220.5,2918.6,2280.9,21302,637.6,""smooth"",""right"",""right"",""good_move"",27837.1,3612.2,3144.5,24224.9,467.7,""oops"",""down"",""up"",""bad_move"",30767.6,2925.4,1789.4,27842.2,1136,""oops"",""down"",""left"",""bad_move"",34051,3279.9,2870.4,30771.1,409.5,""oops"",""down"",""left"",""bad_move"",37327.1,3271.5,2746.1,34055.6,525.4,""oops"",""down"",""right"",""good_move"",43935.2,6603.2,3774.2,39700.7,460.3,""oops"",""down"",""up"",""bad_move"",47965.5,4025.9,2744.1,43939.6,1281.8,""oops"",""up"",""right"",""good_move"",51281,3310.3,2790.2,47970.7,520.1,""oops"",""right"",""down"",""good_move"",54959.8,3673.1,3257.5,51286.7,415.6,""smooth"",""right"",""down"",""good_move"",57751,2784.8,2329.1,54966.2,455.8,""oops"",""right"",""up"",""bad_move"",59439.8,1680.8,2274.2,57759,-593.4,""error"",""-"",""-"",""no_move"",62541.1,3097.6,1722.3,60455.3,363.6,""smooth"",""down"",""down"",""good_move"",65841.2,3294.8,2898.5,62546.4,396.3,""oops"",""down"",""up"",""bad_move"",69113.4,3266.9,2905.6,65846.6,361.3,""oops"",""up"",""up"",""bad_move"",71938.5,2819.4,1328.2,69119.1,1491.2,""oops"",""down"",""left"",""bad_move"",78125.8,6182.6,1807.6,75814.3,503.9,""oops"",""down"",""left"",""bad_move""]","",""
"4877","","<div style=""width:500px;"">
  <p>What determined the result of this run?</p>
  </div>","0","html-slider-response","50","1154584","0.0-5.0-1.8","188","1","2025-07-23 08:04:27","1f75c3e559b7213887762d5229550c2b","41.123.105.39","Mozilla/5.0 (Windows NT 10.0; Win64; x64) AppleWebKit/537.36 (KHTML, like Gecko) Chrome/138.0.0.0 Safari/537.36","WebKit","Chrome","138.0.0.0","Windows","10.0","https://app.prolific.com/","en-GB,en-US;q=0.9,en;q=0.8","67e074f58a5ea7d9897f3223","683db9eb0562dbf637994deb","688096df7aad73dcd5e538de","2","1","67e074f58a5ea7d9897f3223","2","1","2025-07-23T08:22:06.723Z","","","","","","","","","","","AttribQ","","50","","","","","","","","","","","","","","","","","","","","","","","","","","","","",""
"4011","","<div style=""width:500px;"">
  <p>How much control did you have over the ball?</p>
  </div>","0","html-slider-response","51","1158610","0.0-5.0-2.8","188","1","2025-07-23 08:04:27","1f75c3e559b7213887762d5229550c2b","41.123.105.39","Mozilla/5.0 (Windows NT 10.0; Win64; x64) AppleWebKit/537.36 (KHTML, like Gecko) Chrome/138.0.0.0 Safari/537.36","WebKit","Chrome","138.0.0.0","Windows","10.0","https://app.prolific.com/","en-GB,en-US;q=0.9,en;q=0.8","67e074f58a5ea7d9897f3223","683db9eb0562dbf637994deb","688096df7aad73dcd5e538de","2","1","67e074f58a5ea7d9897f3223","2","1","2025-07-23T08:22:10.748Z","","","","","","","","","","","ControlQ","","50","","","","","","","","","","","","","","","","","","","","","","","","","","","","",""
"3798","","<div style=""width:500px;"">
  <p>How would you describe your current emotional state?</p>
  </div>","100","html-slider-response","52","1162414","0.0-5.0-3.8","188","1","2025-07-23 08:04:27","1f75c3e559b7213887762d5229550c2b","41.123.105.39","Mozilla/5.0 (Windows NT 10.0; Win64; x64) AppleWebKit/537.36 (KHTML, like Gecko) Chrome/138.0.0.0 Safari/537.36","WebKit","Chrome","138.0.0.0","Windows","10.0","https://app.prolific.com/","en-GB,en-US;q=0.9,en;q=0.8","67e074f58a5ea7d9897f3223","683db9eb0562dbf637994deb","688096df7aad73dcd5e538de","2","1","67e074f58a5ea7d9897f3223","2","1","2025-07-23T08:22:14.553Z","","","","","","","","","","","StressQ","","50","","","","","","","","","","","","","","","","","","","","","","","","","","","","",""
"7538","","<div style=""width:500px;"">
  <p>What best describes how you currently feel?</p>
  </div>","0","html-slider-response","53","1169959","0.0-5.0-4.8","188","1","2025-07-23 08:04:27","1f75c3e559b7213887762d5229550c2b","41.123.105.39","Mozilla/5.0 (Windows NT 10.0; Win64; x64) AppleWebKit/537.36 (KHTML, like Gecko) Chrome/138.0.0.0 Safari/537.36","WebKit","Chrome","138.0.0.0","Windows","10.0","https://app.prolific.com/","en-GB,en-US;q=0.9,en;q=0.8","67e074f58a5ea7d9897f3223","683db9eb0562dbf637994deb","688096df7aad73dcd5e538de","2","1","67e074f58a5ea7d9897f3223","2","1","2025-07-23T08:22:22.097Z","","","","","","","","","","","MotivationQ","","50","","","","","","","","","","","","","","","","","","","","","","","","","","","","",""
"","","","","ctl-task-cpt","54","1232645","0.0-5.0-0.9","188","1","2025-07-23 08:04:27","1f75c3e559b7213887762d5229550c2b","41.123.105.39","Mozilla/5.0 (Windows NT 10.0; Win64; x64) AppleWebKit/537.36 (KHTML, like Gecko) Chrome/138.0.0.0 Safari/537.36","WebKit","Chrome","138.0.0.0","Windows","10.0","https://app.prolific.com/","en-GB,en-US;q=0.9,en;q=0.8","67e074f58a5ea7d9897f3223","683db9eb0562dbf637994deb","688096df7aad73dcd5e538de","2","1","67e074f58a5ea7d9897f3223","2","1","2025-07-23T08:23:24.787Z","","","","","","","","","","","","","","win-only","3","g1:SW,g2:NE","0.4","10","0","1209254.7","1281.8","6296.9","59654.8","1","4","4","6","2","4","4","4","0","0.030303030303030304","1300.8","3000","955","[""up"",""right""]","{""num_key_presses"":14,""num_perfect"":7,""num_errors"":0,""num_randdir"":7,""num_randdir_good_moves"":3,""num_whilered"":0,""num_whileblue"":0,""num_blue"":3,""num_good_moves"":10}","[422.8214133126395,414.07142761775424,0.7,422.8214133126395,414.07142761775424,105.2,422.8214133126395,414.07142761775424,216.4,422.8214133126395,414.07142761775424,317.9,422.8214133126395,414.07142761775424,423.8,546.5714133126395,329.07142761775424,526.5,719.0714133126395,190.32142761775424,638.7,784.0714133126395,81.57142761775425,740.3,810.3214133126395,16.571427617754253,841.8,810.3214133126395,16.571427617754253,948.2,781.5714133126395,81.57142761775425,1139.2,782.8214133126395,77.82142761775425,1249.3,784.0714133126395,67.82142761775425,1367.5,784.0714133126395,67.82142761775425,1478.9,794.0714133126395,84.07142761775425,1603,864.0714133126395,189.07142761775424,1709.9,866.5714133126395,352.82142761775424,1816.4,841.5714133126395,411.57142761775424,1953.3,905.3214133126395,556.5714276177542,2056.1,949.0714133126395,587.8214276177542,2168.7,950.3214133126395,587.8214276177542,2272.5,951.5714133126395,582.8214276177542,2376.1,951.5714133126395,582.8214276177542,2488.6,951.5714133126395,582.8214276177542,2619.3,951.5714133126395,582.8214276177542,2739.9,951.5714133126395,582.8214276177542,2847.6,951.5714133126395,582.8214276177542,2956.6,951.5714133126395,582.8214276177542,3069.1,951.5714133126395,582.8214276177542,3170.2,951.5714133126395,582.8214276177542,3322.4,951.5714133126395,582.8214276177542,3424,951.5714133126395,582.8214276177542,3527.8,951.5714133126395,582.8214276177542,3635.2,951.5714133126395,582.8214276177542,3750.5,951.5714133126395,582.8214276177542,3853.9,905.3214133126395,597.8214276177542,3960.8,854.0714133126395,601.5714276177542,4083.9,854.0714133126395,601.5714276177542,4188.6,854.0714133126395,601.5714276177542,4304.9,854.0714133126395,601.5714276177542,4413.1,854.0714133126395,601.5714276177542,4521.9,854.0714133126395,601.5714276177542,4635.3,854.0714133126395,601.5714276177542,4742.6,854.0714133126395,601.5714276177542,4879.9,854.0714133126395,601.5714276177542,4984.8]","[1745.2,1745.2,1000,0,745.2,""smooth"",""right"",""right"",""good_move"",4761.9,3013.8,2514,1748.1,499.8,""oops"",""right"",""down"",""bad_move"",6972.9,2203.8,1746.9,4769.1,456.9,""oops"",""right"",""up"",""good_move"",10430.7,3440.7,1929.6,6990,1511.1,""oops"",""right"",""down"",""bad_move"",18156.3,7717.1,3353.1,14352.9,450.3,""oops"",""right"",""left"",""bad_move"",27643.6,9481.1,1799.8,25339.7,504.1,""smooth"",""up"",""up"",""good_move"",31420.9,3773.5,2526.2,27648,1247.3,""smooth"",""up"",""up"",""good_move"",35598.6,4174.9,2834.9,31423.7,1340,""oops"",""up"",""down"",""bad_move"",37770.6,2165.1,1721.3,35605.5,443.8,""oops"",""right"",""up"",""good_move"",40557.3,2779.4,2076.8,37777.9,702.6,""smooth"",""right"",""right"",""good_move"",43742.5,3179.1,2764.3,40563.4,414.8,""oops"",""right"",""up"",""good_move"",47097.8,3349.1,1940.7,43748.7,1408.4,""smooth"",""right"",""right"",""good_move"",50548.8,3440.5,2997.5,47108.3,443,""smooth"",""right"",""right"",""good_move"",53091,2537.7,2058.8,50553.4,478.8,""smooth"",""up"",""up"",""good_move""]","",""
"4200","","<div style=""width:500px;"">
  <p>What determined the result of this run?</p>
  </div>","100","html-slider-response","55","1236853","0.0-5.0-1.9","188","1","2025-07-23 08:04:27","1f75c3e559b7213887762d5229550c2b","41.123.105.39","Mozilla/5.0 (Windows NT 10.0; Win64; x64) AppleWebKit/537.36 (KHTML, like Gecko) Chrome/138.0.0.0 Safari/537.36","WebKit","Chrome","138.0.0.0","Windows","10.0","https://app.prolific.com/","en-GB,en-US;q=0.9,en;q=0.8","67e074f58a5ea7d9897f3223","683db9eb0562dbf637994deb","688096df7aad73dcd5e538de","2","1","67e074f58a5ea7d9897f3223","2","1","2025-07-23T08:23:28.991Z","","","","","","","","","","","AttribQ","","50","","","","","","","","","","","","","","","","","","","","","","","","","","","","",""
"4321","","<div style=""width:500px;"">
  <p>How much control did you have over the ball?</p>
  </div>","51","html-slider-response","56","1241185","0.0-5.0-2.9","188","1","2025-07-23 08:04:27","1f75c3e559b7213887762d5229550c2b","41.123.105.39","Mozilla/5.0 (Windows NT 10.0; Win64; x64) AppleWebKit/537.36 (KHTML, like Gecko) Chrome/138.0.0.0 Safari/537.36","WebKit","Chrome","138.0.0.0","Windows","10.0","https://app.prolific.com/","en-GB,en-US;q=0.9,en;q=0.8","67e074f58a5ea7d9897f3223","683db9eb0562dbf637994deb","688096df7aad73dcd5e538de","2","1","67e074f58a5ea7d9897f3223","2","1","2025-07-23T08:23:33.323Z","","","","","","","","","","","ControlQ","","50","","","","","","","","","","","","","","","","","","","","","","","","","","","","",""
"7234","","<div style=""width:500px;"">
  <p>How would you describe your current emotional state?</p>
  </div>","0","html-slider-response","57","1248422","0.0-5.0-3.9","188","1","2025-07-23 08:04:27","1f75c3e559b7213887762d5229550c2b","41.123.105.39","Mozilla/5.0 (Windows NT 10.0; Win64; x64) AppleWebKit/537.36 (KHTML, like Gecko) Chrome/138.0.0.0 Safari/537.36","WebKit","Chrome","138.0.0.0","Windows","10.0","https://app.prolific.com/","en-GB,en-US;q=0.9,en;q=0.8","67e074f58a5ea7d9897f3223","683db9eb0562dbf637994deb","688096df7aad73dcd5e538de","2","1","67e074f58a5ea7d9897f3223","2","1","2025-07-23T08:23:40.560Z","","","","","","","","","","","StressQ","","50","","","","","","","","","","","","","","","","","","","","","","","","","","","","",""
"9614","","<div style=""width:500px;"">
  <p>What best describes how you currently feel?</p>
  </div>","72","html-slider-response","58","1258042","0.0-5.0-4.9","188","1","2025-07-23 08:04:27","1f75c3e559b7213887762d5229550c2b","41.123.105.39","Mozilla/5.0 (Windows NT 10.0; Win64; x64) AppleWebKit/537.36 (KHTML, like Gecko) Chrome/138.0.0.0 Safari/537.36","WebKit","Chrome","138.0.0.0","Windows","10.0","https://app.prolific.com/","en-GB,en-US;q=0.9,en;q=0.8","67e074f58a5ea7d9897f3223","683db9eb0562dbf637994deb","688096df7aad73dcd5e538de","2","1","67e074f58a5ea7d9897f3223","2","1","2025-07-23T08:23:50.180Z","","","","","","","","","","","MotivationQ","","50","","","","","","","","","","","","","","","","","","","","","","","","","","","","",""
"","","","","ctl-task-cpt","59","1309677","0.0-5.0-0.10","188","1","2025-07-23 08:04:27","1f75c3e559b7213887762d5229550c2b","41.123.105.39","Mozilla/5.0 (Windows NT 10.0; Win64; x64) AppleWebKit/537.36 (KHTML, like Gecko) Chrome/138.0.0.0 Safari/537.36","WebKit","Chrome","138.0.0.0","Windows","10.0","https://app.prolific.com/","en-GB,en-US;q=0.9,en;q=0.8","67e074f58a5ea7d9897f3223","683db9eb0562dbf637994deb","688096df7aad73dcd5e538de","2","1","67e074f58a5ea7d9897f3223","2","1","2025-07-23T08:24:41.815Z","","","","","","","","","","","","","","win-only","2","g1:SE,g2:NW","0.5","11","0","1297332.1","2564.5","7580.5","48600.1","1","4","4","6","2","4","4","8","4","0.06060606060606061","1408.8","3000","1620","[""left"",""up""]","{""num_key_presses"":10,""num_perfect"":5,""num_errors"":0,""num_randdir"":5,""num_randdir_good_moves"":3,""num_whilered"":0,""num_whileblue"":0,""num_blue"":3,""num_good_moves"":8}","[410.3214133126395,414.07142761775424,0.8,410.3214133126395,414.07142761775424,109.6,410.3214133126395,414.07142761775424,218,410.3214133126395,414.07142761775424,329.1,409.0714133126395,409.07142761775424,430.7,241.5714133126395,250.32142761775424,553,144.0714133126395,157.82142761775424,654,140.3214133126395,151.57142761775424,766.4,137.8214133126395,150.32142761775424,869,126.5714133126395,122.82142761775425,976.8,101.5714133126395,47.82142761775425,1090.1,101.5714133126395,56.57142761775425,1208.6,106.5714133126395,69.07142761775425,1320.6,106.5714133126395,69.07142761775425,1436.9,106.5714133126395,69.07142761775425,1541.4,106.5714133126395,76.57142761775425,1661.7,241.5714133126395,164.07142761775424,1780,507.8214133126395,221.57142761775424,1890.6,559.0714133126395,236.57142761775424,1996.3,651.5714133126395,281.57142761775424,2109.5,651.5714133126395,281.57142761775424,2215.3,651.5714133126395,281.57142761775424,2322.7,651.5714133126395,281.57142761775424,2434.4,651.5714133126395,281.57142761775424,2545.5,651.5714133126395,281.57142761775424,2651,651.5714133126395,281.57142761775424,2765.9,651.5714133126395,281.57142761775424,2866.6,651.5714133126395,281.57142761775424,2974.5,651.5714133126395,281.57142761775424,3075.2,651.5714133126395,281.57142761775424,3193.2,651.5714133126395,281.57142761775424,3298.9,651.5714133126395,281.57142761775424,3413.5,651.5714133126395,281.57142761775424,3523.7,651.5714133126395,281.57142761775424,3626.7,651.5714133126395,281.57142761775424,3733.9,651.5714133126395,281.57142761775424,3847,651.5714133126395,281.57142761775424,3948.7,651.5714133126395,281.57142761775424,4063.8,651.5714133126395,281.57142761775424,4164.1,651.5714133126395,281.57142761775424,4269.1,651.5714133126395,281.57142761775424,4371.5,651.5714133126395,281.57142761775424,4485.6,651.5714133126395,281.57142761775424,4588.6,651.5714133126395,281.57142761775424,4694.2,651.5714133126395,281.57142761775424,4796.9,651.5714133126395,281.57142761775424,4904.1]","[1424.7,1424.7,1000,0,424.7,""smooth"",""left"",""left"",""good_move"",5385.5,3957.1,3494.8,1428.5,462.3,""oops"",""left"",""down"",""bad_move"",12145.1,6753.8,2690.4,9066.4,388.4,""smooth"",""up"",""up"",""good_move"",15196,3048.1,2534,12147.9,514.1,""oops"",""up"",""left"",""good_move"",18357.1,3157,2745.4,15200.2,411.5,""smooth"",""left"",""left"",""good_move"",21734.6,3375,2980.1,18359.7,394.9,""oops"",""up"",""up"",""good_move"",24548.2,2810.2,2095.3,21738,714.9,""oops"",""up"",""right"",""bad_move"",30550.7,5997.2,2297.3,27778.5,474.9,""smooth"",""up"",""up"",""good_move"",33526.7,2974.4,2471.9,30552.3,502.5,""oops"",""up"",""up"",""good_move"",40787.5,7258.7,2555.7,37850,381.8,""smooth"",""left"",""left"",""good_move""]","",""
"4014","","<div style=""width:500px;"">
  <p>What determined the result of this run?</p>
  </div>","74","html-slider-response","60","1313696","0.0-5.0-1.10","188","1","2025-07-23 08:04:27","1f75c3e559b7213887762d5229550c2b","41.123.105.39","Mozilla/5.0 (Windows NT 10.0; Win64; x64) AppleWebKit/537.36 (KHTML, like Gecko) Chrome/138.0.0.0 Safari/537.36","WebKit","Chrome","138.0.0.0","Windows","10.0","https://app.prolific.com/","en-GB,en-US;q=0.9,en;q=0.8","67e074f58a5ea7d9897f3223","683db9eb0562dbf637994deb","688096df7aad73dcd5e538de","2","1","67e074f58a5ea7d9897f3223","2","1","2025-07-23T08:24:45.834Z","","","","","","","","","","","AttribQ","","50","","","","","","","","","","","","","","","","","","","","","","","","","","","","",""
"6128","","<div style=""width:500px;"">
  <p>How much control did you have over the ball?</p>
  </div>","56","html-slider-response","61","1319830","0.0-5.0-2.10","188","1","2025-07-23 08:04:27","1f75c3e559b7213887762d5229550c2b","41.123.105.39","Mozilla/5.0 (Windows NT 10.0; Win64; x64) AppleWebKit/537.36 (KHTML, like Gecko) Chrome/138.0.0.0 Safari/537.36","WebKit","Chrome","138.0.0.0","Windows","10.0","https://app.prolific.com/","en-GB,en-US;q=0.9,en;q=0.8","67e074f58a5ea7d9897f3223","683db9eb0562dbf637994deb","688096df7aad73dcd5e538de","2","1","67e074f58a5ea7d9897f3223","2","1","2025-07-23T08:24:51.970Z","","","","","","","","","","","ControlQ","","50","","","","","","","","","","","","","","","","","","","","","","","","","","","","",""
"12460","","<div style=""width:500px;"">
  <p>How would you describe your current emotional state?</p>
  </div>","2","html-slider-response","62","1332297","0.0-5.0-3.10","188","1","2025-07-23 08:04:27","1f75c3e559b7213887762d5229550c2b","41.123.105.39","Mozilla/5.0 (Windows NT 10.0; Win64; x64) AppleWebKit/537.36 (KHTML, like Gecko) Chrome/138.0.0.0 Safari/537.36","WebKit","Chrome","138.0.0.0","Windows","10.0","https://app.prolific.com/","en-GB,en-US;q=0.9,en;q=0.8","67e074f58a5ea7d9897f3223","683db9eb0562dbf637994deb","688096df7aad73dcd5e538de","2","1","67e074f58a5ea7d9897f3223","2","1","2025-07-23T08:25:04.435Z","","","","","","","","","","","StressQ","","50","","","","","","","","","","","","","","","","","","","","","","","","","","","","",""
"6967","","<div style=""width:500px;"">
  <p>What best describes how you currently feel?</p>
  </div>","100","html-slider-response","63","1339273","0.0-5.0-4.10","188","1","2025-07-23 08:04:27","1f75c3e559b7213887762d5229550c2b","41.123.105.39","Mozilla/5.0 (Windows NT 10.0; Win64; x64) AppleWebKit/537.36 (KHTML, like Gecko) Chrome/138.0.0.0 Safari/537.36","WebKit","Chrome","138.0.0.0","Windows","10.0","https://app.prolific.com/","en-GB,en-US;q=0.9,en;q=0.8","67e074f58a5ea7d9897f3223","683db9eb0562dbf637994deb","688096df7aad73dcd5e538de","2","1","67e074f58a5ea7d9897f3223","2","1","2025-07-23T08:25:11.412Z","","","","","","","","","","","MotivationQ","","50","","","","","","","","","","","","","","","","","","","","","","","","","","","","",""
"","","","","ctl-task-cpt","64","1379303","0.0-5.0-0.11","188","1","2025-07-23 08:04:27","1f75c3e559b7213887762d5229550c2b","41.123.105.39","Mozilla/5.0 (Windows NT 10.0; Win64; x64) AppleWebKit/537.36 (KHTML, like Gecko) Chrome/138.0.0.0 Safari/537.36","WebKit","Chrome","138.0.0.0","Windows","10.0","https://app.prolific.com/","en-GB,en-US;q=0.9,en;q=0.8","67e074f58a5ea7d9897f3223","683db9eb0562dbf637994deb","688096df7aad73dcd5e538de","2","1","67e074f58a5ea7d9897f3223","2","1","2025-07-23T08:25:51.441Z","","","","","","","","","","","","","","win-only","2","g1:SE,g2:NW","0.6","12","0","1378581.5","966.3","5977.2","36977.5","1","4","8","6","2","8","8","16","8","0.12121212121212122","1635.7","3000","2150","[""left"",""up""]","{""num_key_presses"":6,""num_perfect"":5,""num_errors"":0,""num_randdir"":1,""num_randdir_good_moves"":1,""num_whilered"":0,""num_whileblue"":0,""num_blue"":3,""num_good_moves"":6}","[421.5714133126395,414.07142761775424,4.2,421.5714133126395,414.07142761775424,100.3,421.5714133126395,414.07142761775424,220.9,407.8214133126395,410.32142761775424,597.5,241.5714133126395,271.57142761775424,707.1,242.8214133126395,261.57142761775424,817.7,221.5714133126395,242.82142761775424,925.1,171.5714133126395,227.82142761775424,1039.6,169.0714133126395,225.32142761775424,1144.9,132.8214133126395,91.57142761775425,1250.6,126.5714133126395,51.57142761775425,1357.4,127.8214133126395,51.57142761775425,1472.5,127.8214133126395,51.57142761775425,1572.7,127.8214133126395,51.57142761775425,1675.2,127.8214133126395,51.57142761775425,1786.8,127.8214133126395,51.57142761775425,1894,174.0714133126395,139.07142761775424,2004.6,596.5714133126395,367.82142761775424,2154.8,625.3214133126395,404.07142761775424,2271.3,647.8214133126395,422.82142761775424,2371.4,647.8214133126395,422.82142761775424,2507,647.8214133126395,422.82142761775424,2616.8,647.8214133126395,422.82142761775424,2746.4,647.8214133126395,422.82142761775424,2916.4,647.8214133126395,422.82142761775424,3030.8,647.8214133126395,422.82142761775424,3138.5,647.8214133126395,422.82142761775424,3242.2,647.8214133126395,422.82142761775424,3359.6,647.8214133126395,422.82142761775424,3470.4,647.8214133126395,422.82142761775424,3572.3,647.8214133126395,422.82142761775424,3703.3,647.8214133126395,422.82142761775424,3811.3,647.8214133126395,422.82142761775424,3913.1,647.8214133126395,422.82142761775424,4027.5,647.8214133126395,422.82142761775424,4134.2,647.8214133126395,422.82142761775424,4252.8,647.8214133126395,422.82142761775424,4357.5,647.8214133126395,422.82142761775424,4469.1,647.8214133126395,422.82142761775424,4578.3,647.8214133126395,422.82142761775424,4689.8,647.8214133126395,422.82142761775424,4799.8,647.8214133126395,422.82142761775424,4904.6]","[1719.6,1719.6,1000,0,719.6,""smooth"",""up"",""up"",""good_move"",5983.5,4257.5,2249.3,1726,2008.2,""smooth"",""up"",""up"",""good_move"",9609.3,3609.4,2864.9,5999.9,744.5,""smooth"",""up"",""up"",""good_move"",15921.3,6306.3,2176.9,13302.6,441.8,""smooth"",""left"",""left"",""good_move"",27521.9,11595.7,2715.5,24422.4,384,""smooth"",""left"",""left"",""good_move"",30739.1,3215.1,2345,27524,870.1,""oops"",""left"",""left"",""good_move""]","",""
"5130","","<div style=""width:500px;"">
  <p>What determined the result of this run?</p>
  </div>","100","html-slider-response","65","1384439","0.0-5.0-1.11","188","1","2025-07-23 08:04:27","1f75c3e559b7213887762d5229550c2b","41.123.105.39","Mozilla/5.0 (Windows NT 10.0; Win64; x64) AppleWebKit/537.36 (KHTML, like Gecko) Chrome/138.0.0.0 Safari/537.36","WebKit","Chrome","138.0.0.0","Windows","10.0","https://app.prolific.com/","en-GB,en-US;q=0.9,en;q=0.8","67e074f58a5ea7d9897f3223","683db9eb0562dbf637994deb","688096df7aad73dcd5e538de","2","1","67e074f58a5ea7d9897f3223","2","1","2025-07-23T08:25:56.577Z","","","","","","","","","","","AttribQ","","50","","","","","","","","","","","","","","","","","","","","","","","","","","","","",""
"5257","","<div style=""width:500px;"">
  <p>How much control did you have over the ball?</p>
  </div>","80","html-slider-response","66","1389703","0.0-5.0-2.11","188","1","2025-07-23 08:04:27","1f75c3e559b7213887762d5229550c2b","41.123.105.39","Mozilla/5.0 (Windows NT 10.0; Win64; x64) AppleWebKit/537.36 (KHTML, like Gecko) Chrome/138.0.0.0 Safari/537.36","WebKit","Chrome","138.0.0.0","Windows","10.0","https://app.prolific.com/","en-GB,en-US;q=0.9,en;q=0.8","67e074f58a5ea7d9897f3223","683db9eb0562dbf637994deb","688096df7aad73dcd5e538de","2","1","67e074f58a5ea7d9897f3223","2","1","2025-07-23T08:26:01.842Z","","","","","","","","","","","ControlQ","","50","","","","","","","","","","","","","","","","","","","","","","","","","","","","",""
"5609","","<div style=""width:500px;"">
  <p>How would you describe your current emotional state?</p>
  </div>","0","html-slider-response","67","1395320","0.0-5.0-3.11","188","1","2025-07-23 08:04:27","1f75c3e559b7213887762d5229550c2b","41.123.105.39","Mozilla/5.0 (Windows NT 10.0; Win64; x64) AppleWebKit/537.36 (KHTML, like Gecko) Chrome/138.0.0.0 Safari/537.36","WebKit","Chrome","138.0.0.0","Windows","10.0","https://app.prolific.com/","en-GB,en-US;q=0.9,en;q=0.8","67e074f58a5ea7d9897f3223","683db9eb0562dbf637994deb","688096df7aad73dcd5e538de","2","1","67e074f58a5ea7d9897f3223","2","1","2025-07-23T08:26:07.458Z","","","","","","","","","","","StressQ","","50","","","","","","","","","","","","","","","","","","","","","","","","","","","","",""
"5154","","<div style=""width:500px;"">
  <p>What best describes how you currently feel?</p>
  </div>","97","html-slider-response","68","1400480","0.0-5.0-4.11","188","1","2025-07-23 08:04:27","1f75c3e559b7213887762d5229550c2b","41.123.105.39","Mozilla/5.0 (Windows NT 10.0; Win64; x64) AppleWebKit/537.36 (KHTML, like Gecko) Chrome/138.0.0.0 Safari/537.36","WebKit","Chrome","138.0.0.0","Windows","10.0","https://app.prolific.com/","en-GB,en-US;q=0.9,en;q=0.8","67e074f58a5ea7d9897f3223","683db9eb0562dbf637994deb","688096df7aad73dcd5e538de","2","1","67e074f58a5ea7d9897f3223","2","1","2025-07-23T08:26:12.618Z","","","","","","","","","","","MotivationQ","","50","","","","","","","","","","","","","","","","","","","","","","","","","","","","",""
"","","","","ctl-task-cpt","69","1441152","0.0-5.0-0.12","188","1","2025-07-23 08:04:27","1f75c3e559b7213887762d5229550c2b","41.123.105.39","Mozilla/5.0 (Windows NT 10.0; Win64; x64) AppleWebKit/537.36 (KHTML, like Gecko) Chrome/138.0.0.0 Safari/537.36","WebKit","Chrome","138.0.0.0","Windows","10.0","https://app.prolific.com/","en-GB,en-US;q=0.9,en;q=0.8","67e074f58a5ea7d9897f3223","683db9eb0562dbf637994deb","688096df7aad73dcd5e538de","2","1","67e074f58a5ea7d9897f3223","2","1","2025-07-23T08:26:53.290Z","","","","","","","","","","","","","","win-only","2","g1:SE,g2:NW","0.7","13","0","1439773.2","1061.8","6078.2","37647","1","4","8","6","2","8","8","24","16","0.18181818181818182","1327.1","3000","2295","[""left"",""up""]","{""num_key_presses"":6,""num_perfect"":4,""num_errors"":0,""num_randdir"":2,""num_randdir_good_moves"":2,""num_whilered"":0,""num_whileblue"":0,""num_blue"":2,""num_good_moves"":6}","[426.5714133126395,412.82142761775424,1.3,426.5714133126395,412.82142761775424,101.7,426.5714133126395,412.82142761775424,209.1,424.0714133126395,411.57142761775424,325.9,416.5714133126395,414.07142761775424,433,391.5714133126395,406.57142761775424,537.3,314.0714133126395,271.57142761775424,642.1,214.0714133126395,144.07142761775424,757.3,164.0714133126395,106.57142761775425,866.5,159.0714133126395,106.57142761775425,983.7,116.5714133126395,99.07142761775425,1095,85.3214133126395,86.57142761775425,1212.4,85.3214133126395,86.57142761775425,1324.6,85.3214133126395,86.57142761775425,1447.9,85.3214133126395,86.57142761775425,1551.8,85.3214133126395,86.57142761775425,1664.2,86.5714133126395,94.07142761775425,1770.1,186.5714133126395,166.57142761775424,1877.7,270.3214133126395,216.57142761775424,1985.2,276.5714133126395,224.07142761775424,2089.9,282.8214133126395,240.32142761775424,2209.6,296.5714133126395,266.57142761775424,2311.6,306.5714133126395,276.57142761775424,2416.5,306.5714133126395,276.57142761775424,2517.8,306.5714133126395,276.57142761775424,2619.6,306.5714133126395,276.57142761775424,2729,306.5714133126395,276.57142761775424,2848.1,306.5714133126395,276.57142761775424,2949.2,306.5714133126395,276.57142761775424,3062.4,306.5714133126395,276.57142761775424,3171,306.5714133126395,276.57142761775424,3280.5,306.5714133126395,276.57142761775424,3387.8,306.5714133126395,276.57142761775424,3495.9,306.5714133126395,276.57142761775424,3608,306.5714133126395,276.57142761775424,3718.6,306.5714133126395,276.57142761775424,3818.6,306.5714133126395,276.57142761775424,3934,306.5714133126395,276.57142761775424,4041.5,306.5714133126395,276.57142761775424,4151,306.5714133126395,276.57142761775424,4251.6,306.5714133126395,276.57142761775424,4362.6,306.5714133126395,276.57142761775424,4463.5,306.5714133126395,276.57142761775424,4569,306.5714133126395,276.57142761775424,4681.3,306.5714133126395,276.57142761775424,4795.2,306.5714133126395,276.57142761775424,4908.7]","[1496.2,1496.3,1000,0,496.3,""smooth"",""left"",""left"",""good_move"",9819.2,8318.9,2456.5,6805.2,557.5,""smooth"",""left"",""left"",""good_move"",17317.1,7494.1,3143.5,13546.4,627.2,""oops"",""left"",""up"",""good_move"",21174.5,3854.9,2091.4,17319.7,1763.5,""smooth"",""left"",""left"",""good_move"",25440.5,4260.7,1944.1,21179.8,2316.6,""oops"",""up"",""up"",""good_move"",30933.7,5490.5,1313,25443.3,4177.4,""smooth"",""up"",""up"",""good_move""]","",""
"5012","","<div style=""width:500px;"">
  <p>What determined the result of this run?</p>
  </div>","82","html-slider-response","70","1446167","0.0-5.0-1.12","188","1","2025-07-23 08:04:27","1f75c3e559b7213887762d5229550c2b","41.123.105.39","Mozilla/5.0 (Windows NT 10.0; Win64; x64) AppleWebKit/537.36 (KHTML, like Gecko) Chrome/138.0.0.0 Safari/537.36","WebKit","Chrome","138.0.0.0","Windows","10.0","https://app.prolific.com/","en-GB,en-US;q=0.9,en;q=0.8","67e074f58a5ea7d9897f3223","683db9eb0562dbf637994deb","688096df7aad73dcd5e538de","2","1","67e074f58a5ea7d9897f3223","2","1","2025-07-23T08:26:58.305Z","","","","","","","","","","","AttribQ","","50","","","","","","","","","","","","","","","","","","","","","","","","","","","","",""
"4724","","<div style=""width:500px;"">
  <p>How much control did you have over the ball?</p>
  </div>","76","html-slider-response","71","1450896","0.0-5.0-2.12","188","1","2025-07-23 08:04:27","1f75c3e559b7213887762d5229550c2b","41.123.105.39","Mozilla/5.0 (Windows NT 10.0; Win64; x64) AppleWebKit/537.36 (KHTML, like Gecko) Chrome/138.0.0.0 Safari/537.36","WebKit","Chrome","138.0.0.0","Windows","10.0","https://app.prolific.com/","en-GB,en-US;q=0.9,en;q=0.8","67e074f58a5ea7d9897f3223","683db9eb0562dbf637994deb","688096df7aad73dcd5e538de","2","1","67e074f58a5ea7d9897f3223","2","1","2025-07-23T08:27:03.035Z","","","","","","","","","","","ControlQ","","50","","","","","","","","","","","","","","","","","","","","","","","","","","","","",""
"4049","","<div style=""width:500px;"">
  <p>How would you describe your current emotional state?</p>
  </div>","0","html-slider-response","72","1454955","0.0-5.0-3.12","188","1","2025-07-23 08:04:27","1f75c3e559b7213887762d5229550c2b","41.123.105.39","Mozilla/5.0 (Windows NT 10.0; Win64; x64) AppleWebKit/537.36 (KHTML, like Gecko) Chrome/138.0.0.0 Safari/537.36","WebKit","Chrome","138.0.0.0","Windows","10.0","https://app.prolific.com/","en-GB,en-US;q=0.9,en;q=0.8","67e074f58a5ea7d9897f3223","683db9eb0562dbf637994deb","688096df7aad73dcd5e538de","2","1","67e074f58a5ea7d9897f3223","2","1","2025-07-23T08:27:07.093Z","","","","","","","","","","","StressQ","","50","","","","","","","","","","","","","","","","","","","","","","","","","","","","",""
"5542","","<div style=""width:500px;"">
  <p>What best describes how you currently feel?</p>
  </div>","100","html-slider-response","73","1460504","0.0-5.0-4.12","188","1","2025-07-23 08:04:27","1f75c3e559b7213887762d5229550c2b","41.123.105.39","Mozilla/5.0 (Windows NT 10.0; Win64; x64) AppleWebKit/537.36 (KHTML, like Gecko) Chrome/138.0.0.0 Safari/537.36","WebKit","Chrome","138.0.0.0","Windows","10.0","https://app.prolific.com/","en-GB,en-US;q=0.9,en;q=0.8","67e074f58a5ea7d9897f3223","683db9eb0562dbf637994deb","688096df7aad73dcd5e538de","2","1","67e074f58a5ea7d9897f3223","2","1","2025-07-23T08:27:12.642Z","","","","","","","","","","","MotivationQ","","50","","","","","","","","","","","","","","","","","","","","","","","","","","","","",""
"","","","","ctl-task-cpt","74","1502375","0.0-5.0-0.13","188","1","2025-07-23 08:04:27","1f75c3e559b7213887762d5229550c2b","41.123.105.39","Mozilla/5.0 (Windows NT 10.0; Win64; x64) AppleWebKit/537.36 (KHTML, like Gecko) Chrome/138.0.0.0 Safari/537.36","WebKit","Chrome","138.0.0.0","Windows","10.0","https://app.prolific.com/","en-GB,en-US;q=0.9,en;q=0.8","67e074f58a5ea7d9897f3223","683db9eb0562dbf637994deb","688096df7aad73dcd5e538de","2","1","67e074f58a5ea7d9897f3223","2","1","2025-07-23T08:27:54.513Z","","","","","","","","","","","","","","win-only","1","g1:NE,g2:SW","0.8","14","0","1499822.3","1196.5","6203.8","38807.2","1","4","4","6","2","4","4","28","24","0.21212121212121213","1296.2","3000","2360","[""down"",""left""]","{""num_key_presses"":6,""num_perfect"":6,""num_errors"":0,""num_randdir"":0,""num_randdir_good_moves"":0,""num_whilered"":0,""num_whileblue"":0,""num_blue"":4,""num_good_moves"":6}","[414.0714133126395,416.57142761775424,4.4,414.0714133126395,416.57142761775424,102.1,414.0714133126395,416.57142761775424,202.8,414.0714133126395,416.57142761775424,306.3,434.0714133126395,391.57142761775424,430.7,440.3214133126395,381.57142761775424,533.4,381.5714133126395,430.32142761775424,642.5,126.5714133126395,552.8214276177542,760.6,40.32141331263951,641.5714276177542,882,60.32141331263951,725.3214276177542,1007.3,92.8214133126395,762.8214276177542,1135.5,82.8214133126395,757.8214276177542,1253.4,82.8214133126395,756.5714276177542,1359.1,82.8214133126395,756.5714276177542,1460,82.8214133126395,756.5714276177542,1562.4,137.8214133126395,711.5714276177542,1665.5,296.5714133126395,574.0714276177542,1790.7,344.0714133126395,551.5714276177542,1910.2,362.8214133126395,540.3214276177542,2021.5,371.5714133126395,531.5714276177542,2121.4,386.5714133126395,524.0714276177542,2237.4,386.5714133126395,524.0714276177542,2342.8,386.5714133126395,524.0714276177542,2469.1,386.5714133126395,524.0714276177542,2574.7,386.5714133126395,524.0714276177542,2689.9,386.5714133126395,524.0714276177542,2797.3,386.5714133126395,524.0714276177542,2908.4,386.5714133126395,524.0714276177542,3014.4,386.5714133126395,524.0714276177542,3134.6,386.5714133126395,524.0714276177542,3266.1,386.5714133126395,524.0714276177542,3378,386.5714133126395,524.0714276177542,3482.2,386.5714133126395,524.0714276177542,3595.3,386.5714133126395,524.0714276177542,3727.3,386.5714133126395,524.0714276177542,3836.2,386.5714133126395,524.0714276177542,3951.7,386.5714133126395,524.0714276177542,4059.9,386.5714133126395,524.0714276177542,4170.9,386.5714133126395,524.0714276177542,4277.8,386.5714133126395,524.0714276177542,4392.1,386.5714133126395,524.0714276177542,4497.2,386.5714133126395,524.0714276177542,4614.8,386.5714133126395,524.0714276177542,4723.2,386.5714133126395,524.0714276177542,4825.7,386.5714133126395,524.0714276177542,4942.2]","[1531.9,1531.9,1000,0,531.9,""smooth"",""left"",""left"",""good_move"",8022.6,6488.1,1732.9,5749.5,540.2,""smooth"",""left"",""left"",""good_move"",19260.9,11237.1,1958.9,16819.6,482.4,""smooth"",""left"",""left"",""good_move"",26498.2,7233.2,2365,23652.4,480.9,""smooth"",""down"",""down"",""good_move"",29165.4,2662.3,2011.3,26503.1,651,""smooth"",""down"",""down"",""good_move"",32230.7,3059.5,2631,29171.3,428.4,""smooth"",""down"",""down"",""good_move""]","",""
"5045","","<div style=""width:500px;"">
  <p>What determined the result of this run?</p>
  </div>","100","html-slider-response","75","1507423","0.0-5.0-1.13","188","1","2025-07-23 08:04:27","1f75c3e559b7213887762d5229550c2b","41.123.105.39","Mozilla/5.0 (Windows NT 10.0; Win64; x64) AppleWebKit/537.36 (KHTML, like Gecko) Chrome/138.0.0.0 Safari/537.36","WebKit","Chrome","138.0.0.0","Windows","10.0","https://app.prolific.com/","en-GB,en-US;q=0.9,en;q=0.8","67e074f58a5ea7d9897f3223","683db9eb0562dbf637994deb","688096df7aad73dcd5e538de","2","1","67e074f58a5ea7d9897f3223","2","1","2025-07-23T08:27:59.562Z","","","","","","","","","","","AttribQ","","50","","","","","","","","","","","","","","","","","","","","","","","","","","","","",""
"4174","","<div style=""width:500px;"">
  <p>How much control did you have over the ball?</p>
