"rt","response_timestamp","stimulus","response","trial_type","trial_index","time_elapsed","internal_node_id","run_id","condition","recorded_at","source_code_version","ip","user_agent","device","browser","browser_version","platform","platform_version","referer","accept_language","PROLIFIC_PID","STUDY_ID","SESSION_ID","WEEK","BATCH","prolific_id","week","batch","realtime","success","responses","item_order","radio_event_ids","radio_event_times","key_event_times","mouse_event_times","straightlining","zigzagging","honeypot","eventType","view_history","slider_start","which_type","canvas_config","goals_layout","control_level","trial_number","tutorial_trial_number","trial_start_time","phase1_start_time","phase2_start_time","phase3_start_time","goal_1_value","goal_1_distance","goal_2_value","goal_2_distance","goal_selected","outcome","outcome_total","participant_final_score","participant_initial_score","participant_final_score_prop","goal_choice_rt","allocated_time","allocated_time_remaining","goal_direction","counts","mouse_movements","key_presses","question_order","question_id"
"2894","1752796402826","<p style='font-size:40px;line-height:1.25'><strong>Welcome to the experiment!</strong></p><p style='font-size:1.1em;line-height:1.25'>Thank you for participanting in our experiment again! You will be asked to play the Dysfunctional Ball Game again. We will briefly recap the rules before we start.</p><p style='font-size:1.1em;line-height:1.25'>Press <strong>Next</strong> to continue.</p>","0","custom-html-button-response","0","2897","0.0-0.0","131","1","2025-07-17 23:53:17","1f75c3e559b7213887762d5229550c2b","102.182.169.207","Mozilla/5.0 (Windows NT 10.0; Win64; x64) AppleWebKit/537.36 (KHTML, like Gecko) Chrome/138.0.0.0 Safari/537.36","WebKit","Chrome","138.0.0.0","Windows","10.0","https://app.prolific.com/","en-ZA,en-GB;q=0.9,en-US;q=0.8,en;q=0.7","61248a51eefb6797024ecb85","68764874ac79eee8c1d4cb03","68798ce8d6d02a946f9a1d30","2","0","61248a51eefb6797024ecb85","2","0","2025-07-17T23:53:22.828Z","","","","","","","","","","","","","","","","","","","","","","","","","","","","","","","","","","","","","","","","","",""
"10692","","","","fullscreen","1","14599","0.0-1.0","131","1","2025-07-17 23:53:17","1f75c3e559b7213887762d5229550c2b","102.182.169.207","Mozilla/5.0 (Windows NT 10.0; Win64; x64) AppleWebKit/537.36 (KHTML, like Gecko) Chrome/138.0.0.0 Safari/537.36","WebKit","Chrome","138.0.0.0","Windows","10.0","https://app.prolific.com/","en-ZA,en-GB;q=0.9,en-US;q=0.8,en;q=0.7","61248a51eefb6797024ecb85","68764874ac79eee8c1d4cb03","68798ce8d6d02a946f9a1d30","2","0","61248a51eefb6797024ecb85","2","0","","true","","","","","","","","","","","","","","","","","","","","","","","","","","","","","","","","","","","","","","","","",""
"2626","1752796417159","<p style='font-size:1.1em;line-height:1.25'>In the following, we will ask you a few questions relating to your feelings in the last 24 hours.<br></p><p style='font-size:1.1em;line-height:1.25'>Press the <strong>Next</strong> button to continue.</p>","0","custom-html-button-response","2","17229","0.0-2.0-0.0","131","1","2025-07-17 23:53:17","1f75c3e559b7213887762d5229550c2b","102.182.169.207","Mozilla/5.0 (Windows NT 10.0; Win64; x64) AppleWebKit/537.36 (KHTML, like Gecko) Chrome/138.0.0.0 Safari/537.36","WebKit","Chrome","138.0.0.0","Windows","10.0","https://app.prolific.com/","en-ZA,en-GB;q=0.9,en-US;q=0.8,en;q=0.7","61248a51eefb6797024ecb85","68764874ac79eee8c1d4cb03","68798ce8d6d02a946f9a1d30","2","0","61248a51eefb6797024ecb85","2","0","2025-07-17T23:53:37.160Z","","","","","","","","","","","","","","","","","","","","","","","","","","","","","","","","","","","","","","","","","",""
"55329.200000047684","","","","survey-template","3","72565","0.0-2.0-1.0","131","1","2025-07-17 23:53:17","1f75c3e559b7213887762d5229550c2b","102.182.169.207","Mozilla/5.0 (Windows NT 10.0; Win64; x64) AppleWebKit/537.36 (KHTML, like Gecko) Chrome/138.0.0.0 Safari/537.36","WebKit","Chrome","138.0.0.0","Windows","10.0","https://app.prolific.com/","en-ZA,en-GB;q=0.9,en-US;q=0.8,en;q=0.7","61248a51eefb6797024ecb85","68764874ac79eee8c1d4cb03","68798ce8d6d02a946f9a1d30","2","0","61248a51eefb6797024ecb85","2","0","2025-07-17T23:54:32.495Z","","{""Q01"":""0"",""Q02"":""0"",""Q03"":""0"",""Q04"":""0"",""Q05"":""0"",""Q06"":""1"",""Q07"":""1"",""Q08"":""0"",""Q09"":""1"",""Q10"":""3"",""Q11"":""1"",""Q12"":""0"",""Q13"":""5"",""Q14"":""0"",""Q15"":""3"",""Q16"":""0"",""Q17"":""0"",""Q18"":""0"",""Q19"":""0"",""Q20"":""0"",""Q21"":""0"",""Q22"":""0""}","[0,1,2,3,4,5,6,7,8,9,10,11,12,13,14,15,16,17,18,19,20,21]","[""Q01"",""Q02"",""Q03"",""Q04"",""Q05"",""Q06"",""Q07"",""Q08"",""Q09"",""Q10"",""Q11"",""Q12"",""Q13"",""Q14"",""Q15"",""Q16"",""Q17"",""Q18"",""Q19"",""Q20"",""Q21"",""Q22""]","[5958.900000095367,8016.5,8979.300000071526,10251.700000047684,12798.400000095367,14625,15618.100000023842,17855.600000023842,22907.700000047684,25424.800000071526,27507.5,29871.900000095367,32055.600000023842,34517.40000009537,37689.10000002384,39517.300000071526,41823.300000071526,42737.40000009537,45847.800000071526,48291.10000002384,51735.200000047684,54275.300000071526]","[]","[0.20000004768371582,5958.900000095367,8016.5,8979.300000071526,10251.700000047684,11131.700000047684,12798.400000095367,14625,15618.100000023842,17855.600000023842,20586.800000071526,22365.100000023842,22907.700000047684,25424.800000071526,27507.5,29871.900000095367,31433,32055.600000023842,34517.40000009537,37689.10000002384,39517.300000071526,41823.300000071526,42737.40000009537,45847.800000071526,48291.10000002384,51735.200000047684,53826.300000071526,54275.300000071526,55316.700000047684]","0.6818181818181818","0.2857142857142857","0","drsp","","","","","","","","","","","","","","","","","","","","","","","","","","","","","","",""
"33494.299999952316","","","","survey-template","4","106062","0.0-2.0-2.0","131","1","2025-07-17 23:53:17","1f75c3e559b7213887762d5229550c2b","102.182.169.207","Mozilla/5.0 (Windows NT 10.0; Win64; x64) AppleWebKit/537.36 (KHTML, like Gecko) Chrome/138.0.0.0 Safari/537.36","WebKit","Chrome","138.0.0.0","Windows","10.0","https://app.prolific.com/","en-ZA,en-GB;q=0.9,en-US;q=0.8,en;q=0.7","61248a51eefb6797024ecb85","68764874ac79eee8c1d4cb03","68798ce8d6d02a946f9a1d30","2","0","61248a51eefb6797024ecb85","2","0","2025-07-17T23:55:05.992Z","","{""Q01"":""2"",""Q02"":""4"",""Q03"":""0""}","[0,1,2]","[""Q01"",""Q02"",""Q02"",""Q03""]","[23011,26473.199999928474,28293.5,32242.199999928474]","[]","[23011,26473.199999928474,28293.5,32242.199999928474,33492.799999952316]","0.3333333333333333","1","0","stress","","","","","","","","","","","","","","","","","","","","","","","","","","","","","","",""
"3065","","","","instructions","5","109128","0.0-3.0-0.0","131","1","2025-07-17 23:53:17","1f75c3e559b7213887762d5229550c2b","102.182.169.207","Mozilla/5.0 (Windows NT 10.0; Win64; x64) AppleWebKit/537.36 (KHTML, like Gecko) Chrome/138.0.0.0 Safari/537.36","WebKit","Chrome","138.0.0.0","Windows","10.0","https://app.prolific.com/","en-ZA,en-GB;q=0.9,en-US;q=0.8,en;q=0.7","61248a51eefb6797024ecb85","68764874ac79eee8c1d4cb03","68798ce8d6d02a946f9a1d30","2","0","61248a51eefb6797024ecb85","2","0","","","","","","","","","","","","","[{""page_index"":0,""viewing_time"":3065}]","","","","","","","","","","","","","","","","","","","","","","","","","","","","","",""
"9032","","<p>Before you start with this game please answer the following three questions yourself. </p>
  <p>Through this game, we measure several aspects of your cognitive performance, such as reaction times, multi-tasking capabilities </p>
  <p>and the ability to assess the situation you are in.</p>
  <p></p>
  <p><b>How good do you usually are in such tasks?</b></p>","2","html-slider-response","6","118163","0.0-4.0-0.0","131","1","2025-07-17 23:53:17","1f75c3e559b7213887762d5229550c2b","102.182.169.207","Mozilla/5.0 (Windows NT 10.0; Win64; x64) AppleWebKit/537.36 (KHTML, like Gecko) Chrome/138.0.0.0 Safari/537.36","WebKit","Chrome","138.0.0.0","Windows","10.0","https://app.prolific.com/","en-ZA,en-GB;q=0.9,en-US;q=0.8,en;q=0.7","61248a51eefb6797024ecb85","68764874ac79eee8c1d4cb03","68798ce8d6d02a946f9a1d30","2","0","61248a51eefb6797024ecb85","2","0","2025-07-17T23:55:18.093Z","","","","","","","","","","","PreSkillQ","","50","","","","","","","","","","","","","","","","","","","","","","","","","","","","",""
"8711","","<div style=""width:500px;"">
  <p>How well do you think you will perform in this task compared to other participants?</p>
  </div>","1","html-slider-response","7","126877","0.0-4.0-1.0","131","1","2025-07-17 23:53:17","1f75c3e559b7213887762d5229550c2b","102.182.169.207","Mozilla/5.0 (Windows NT 10.0; Win64; x64) AppleWebKit/537.36 (KHTML, like Gecko) Chrome/138.0.0.0 Safari/537.36","WebKit","Chrome","138.0.0.0","Windows","10.0","https://app.prolific.com/","en-ZA,en-GB;q=0.9,en-US;q=0.8,en;q=0.7","61248a51eefb6797024ecb85","68764874ac79eee8c1d4cb03","68798ce8d6d02a946f9a1d30","2","0","61248a51eefb6797024ecb85","2","0","2025-07-17T23:55:26.807Z","","","","","","","","","","","PrePerfQ","","50","","","","","","","","","","","","","","","","","","","","","","","","","","","","",""
"4542","","<div style=""width:500px;"">
  <p>What best describes how you currently feel?</p>
  </div>","23","html-slider-response","8","131420","0.0-4.0-2.0","131","1","2025-07-17 23:53:17","1f75c3e559b7213887762d5229550c2b","102.182.169.207","Mozilla/5.0 (Windows NT 10.0; Win64; x64) AppleWebKit/537.36 (KHTML, like Gecko) Chrome/138.0.0.0 Safari/537.36","WebKit","Chrome","138.0.0.0","Windows","10.0","https://app.prolific.com/","en-ZA,en-GB;q=0.9,en-US;q=0.8,en;q=0.7","61248a51eefb6797024ecb85","68764874ac79eee8c1d4cb03","68798ce8d6d02a946f9a1d30","2","0","61248a51eefb6797024ecb85","2","0","2025-07-17T23:55:31.350Z","","","","","","","","","","","PreMotivationQ","","50","","","","","","","","","","","","","","","","","","","","","","","","","","","","",""
"","","","","ctl-task-cpt","9","168292","0.0-5.0-0.0","131","1","2025-07-17 23:53:17","1f75c3e559b7213887762d5229550c2b","102.182.169.207","Mozilla/5.0 (Windows NT 10.0; Win64; x64) AppleWebKit/537.36 (KHTML, like Gecko) Chrome/138.0.0.0 Safari/537.36","WebKit","Chrome","138.0.0.0","Windows","10.0","https://app.prolific.com/","en-ZA,en-GB;q=0.9,en-US;q=0.8,en;q=0.7","61248a51eefb6797024ecb85","68764874ac79eee8c1d4cb03","68798ce8d6d02a946f9a1d30","2","0","61248a51eefb6797024ecb85","2","0","2025-07-17T23:56:08.222Z","","","","","","","","","","","","","","win-only","3","g1:SW,g2:NE","1","1","0","134736.5","1389.5","6397.8","33865.4","1","4","8","6","2","8","8","8","0","0.06060606060606061","2474.2","3000","1055","[""up"",""right""]","{""num_key_presses"":6,""num_perfect"":6,""num_errors"":0,""num_randdir"":0,""num_randdir_good_moves"":0,""num_whilered"":0,""num_whileblue"":0,""num_blue"":3,""num_good_moves"":6}","[426.5714133126395,419.07142761775424,1,426.5714133126395,419.07142761775424,102.1,426.5714133126395,419.07142761775424,202.4,426.5714133126395,419.07142761775424,307.8,426.5714133126395,419.07142761775424,414.7,426.5714133126395,419.07142761775424,518.2,426.5714133126395,419.07142761775424,619.2,426.5714133126395,419.07142761775424,725.5,426.5714133126395,419.07142761775424,830,407.8214133126395,431.57142761775424,938.2,386.5714133126395,449.07142761775424,1039.1,370.3214133126395,461.57142761775424,1143.6,359.0714133126395,470.32142761775424,1243.8,359.0714133126395,470.32142761775424,1351.4,359.0714133126395,470.32142761775424,1451.7,360.3214133126395,470.32142761775424,1553.2,371.5714133126395,457.82142761775424,1657.1,437.8214133126395,399.07142761775424,1757.3,485.3214133126395,342.82142761775424,1857.3,520.3214133126395,287.82142761775424,1960,585.3214133126395,211.57142761775424,2067.6,697.8214133126395,122.82142761775425,2171.2,759.0714133126395,79.07142761775425,2272.2,781.5714133126395,60.32142761775425,2374.8,782.8214133126395,56.57142761775425,2488.6,782.8214133126395,56.57142761775425,2597,782.8214133126395,56.57142761775425,2698.6,782.8214133126395,56.57142761775425,2802.1,782.8214133126395,56.57142761775425,2902.9,782.8214133126395,56.57142761775425,3006.5,782.8214133126395,56.57142761775425,3111.8,782.8214133126395,56.57142761775425,3217.4,782.8214133126395,56.57142761775425,3322.4,782.8214133126395,56.57142761775425,3426.3,782.8214133126395,56.57142761775425,3531.6,782.8214133126395,56.57142761775425,3633.7,782.8214133126395,56.57142761775425,3737.8,782.8214133126395,56.57142761775425,3845.8,782.8214133126395,56.57142761775425,3948.1,782.8214133126395,56.57142761775425,4048.6,782.8214133126395,56.57142761775425,4151.5,782.8214133126395,56.57142761775425,4254,782.8214133126395,56.57142761775425,4365.2,782.8214133126395,56.57142761775425,4467.8,782.8214133126395,56.57142761775425,4567.9,782.8214133126395,56.57142761775425,4668.5,782.8214133126395,56.57142761775425,4771.9,782.8214133126395,56.57142761775425,4878.8,782.8214133126395,56.57142761775425,4985.6]","[1462.9,1462.9,1000,0,462.9,""smooth"",""up"",""up"",""good_move"",4685.6,3222.1,2791.7,1463.5,430.4,""smooth"",""up"",""up"",""good_move"",11689,7002.3,2637.6,8530.2,521.2,""smooth"",""up"",""up"",""good_move"",14629.7,2940.5,2454.9,11689.2,485.6,""smooth"",""right"",""right"",""good_move"",17630.8,3000.3,2501.5,14630.5,498.8,""smooth"",""right"",""right"",""good_move"",27319.5,9687.8,2563.2,24286,470.3,""smooth"",""right"",""right"",""good_move""]","",""
"4575","","<div style=""width:500px;"">
  <p>What determined the result of this run?</p>
  </div>","41","html-slider-response","10","172868","0.0-5.0-1.0","131","1","2025-07-17 23:53:17","1f75c3e559b7213887762d5229550c2b","102.182.169.207","Mozilla/5.0 (Windows NT 10.0; Win64; x64) AppleWebKit/537.36 (KHTML, like Gecko) Chrome/138.0.0.0 Safari/537.36","WebKit","Chrome","138.0.0.0","Windows","10.0","https://app.prolific.com/","en-ZA,en-GB;q=0.9,en-US;q=0.8,en;q=0.7","61248a51eefb6797024ecb85","68764874ac79eee8c1d4cb03","68798ce8d6d02a946f9a1d30","2","0","61248a51eefb6797024ecb85","2","0","2025-07-17T23:56:12.798Z","","","","","","","","","","","AttribQ","","50","","","","","","","","","","","","","","","","","","","","","","","","","","","","",""
"3324","","<div style=""width:500px;"">
  <p>How much control did you have over the ball?</p>
  </div>","100","html-slider-response","11","176194","0.0-5.0-2.0","131","1","2025-07-17 23:53:17","1f75c3e559b7213887762d5229550c2b","102.182.169.207","Mozilla/5.0 (Windows NT 10.0; Win64; x64) AppleWebKit/537.36 (KHTML, like Gecko) Chrome/138.0.0.0 Safari/537.36","WebKit","Chrome","138.0.0.0","Windows","10.0","https://app.prolific.com/","en-ZA,en-GB;q=0.9,en-US;q=0.8,en;q=0.7","61248a51eefb6797024ecb85","68764874ac79eee8c1d4cb03","68798ce8d6d02a946f9a1d30","2","0","61248a51eefb6797024ecb85","2","0","2025-07-17T23:56:16.124Z","","","","","","","","","","","ControlQ","","50","","","","","","","","","","","","","","","","","","","","","","","","","","","","",""
"3945","","<div style=""width:500px;"">
  <p>How would you describe your current emotional state?</p>
  </div>","29","html-slider-response","12","180141","0.0-5.0-3.0","131","1","2025-07-17 23:53:17","1f75c3e559b7213887762d5229550c2b","102.182.169.207","Mozilla/5.0 (Windows NT 10.0; Win64; x64) AppleWebKit/537.36 (KHTML, like Gecko) Chrome/138.0.0.0 Safari/537.36","WebKit","Chrome","138.0.0.0","Windows","10.0","https://app.prolific.com/","en-ZA,en-GB;q=0.9,en-US;q=0.8,en;q=0.7","61248a51eefb6797024ecb85","68764874ac79eee8c1d4cb03","68798ce8d6d02a946f9a1d30","2","0","61248a51eefb6797024ecb85","2","0","2025-07-17T23:56:20.071Z","","","","","","","","","","","StressQ","","50","","","","","","","","","","","","","","","","","","","","","","","","","","","","",""
"3316","","<div style=""width:500px;"">
  <p>What best describes how you currently feel?</p>
  </div>","60","html-slider-response","13","183458","0.0-5.0-4.0","131","1","2025-07-17 23:53:17","1f75c3e559b7213887762d5229550c2b","102.182.169.207","Mozilla/5.0 (Windows NT 10.0; Win64; x64) AppleWebKit/537.36 (KHTML, like Gecko) Chrome/138.0.0.0 Safari/537.36","WebKit","Chrome","138.0.0.0","Windows","10.0","https://app.prolific.com/","en-ZA,en-GB;q=0.9,en-US;q=0.8,en;q=0.7","61248a51eefb6797024ecb85","68764874ac79eee8c1d4cb03","68798ce8d6d02a946f9a1d30","2","0","61248a51eefb6797024ecb85","2","0","2025-07-17T23:56:23.388Z","","","","","","","","","","","MotivationQ","","50","","","","","","","","","","","","","","","","","","","","","","","","","","","","",""
"","","","","ctl-task-cpt","14","209358","0.0-5.0-0.1","131","1","2025-07-17 23:53:17","1f75c3e559b7213887762d5229550c2b","102.182.169.207","Mozilla/5.0 (Windows NT 10.0; Win64; x64) AppleWebKit/537.36 (KHTML, like Gecko) Chrome/138.0.0.0 Safari/537.36","WebKit","Chrome","138.0.0.0","Windows","10.0","https://app.prolific.com/","en-ZA,en-GB;q=0.9,en-US;q=0.8,en;q=0.7","61248a51eefb6797024ecb85","68764874ac79eee8c1d4cb03","68798ce8d6d02a946f9a1d30","2","0","61248a51eefb6797024ecb85","2","0","2025-07-17T23:56:49.288Z","","","","","","","","","","","","","","win-only","0","g1:NW,g2:SE","0.9","2","0","186770.9","1295.8","6300.6","22893.6","1","4","4","6","2","4","4","12","8","0.09090909090909091","1363.2","3000","895","[""down"",""right""]","{""num_key_presses"":6,""num_perfect"":5,""num_errors"":0,""num_randdir"":1,""num_randdir_good_moves"":1,""num_whilered"":0,""num_whileblue"":0,""num_blue"":0,""num_good_moves"":6}","[406.5714133126395,409.07142761775424,0.4,406.5714133126395,409.07142761775424,105.4,406.5714133126395,409.07142761775424,213.4,406.5714133126395,409.07142761775424,316.1,406.5714133126395,409.07142761775424,421.5,406.5714133126395,409.07142761775424,524.6,404.0714133126395,409.07142761775424,625.6,381.5714133126395,410.32142761775424,735,415.3214133126395,505.32142761775424,839.9,539.0714133126395,661.5714276177542,940.5,636.5714133126395,716.5714276177542,1050.2,727.8214133126395,739.0714276177542,1156.8,765.3214133126395,749.0714276177542,1263.3,797.8214133126395,756.5714276177542,1372.3,797.8214133126395,756.5714276177542,1472.3,797.8214133126395,756.5714276177542,1577.2,797.8214133126395,756.5714276177542,1683.7,797.8214133126395,756.5714276177542,1788.8,797.8214133126395,756.5714276177542,1889.1,797.8214133126395,756.5714276177542,1990,797.8214133126395,756.5714276177542,2092.3,797.8214133126395,756.5714276177542,2197,797.8214133126395,756.5714276177542,2306.8,797.8214133126395,756.5714276177542,2418.6,797.8214133126395,756.5714276177542,2522.7,797.8214133126395,756.5714276177542,2623.9,797.8214133126395,756.5714276177542,2730.4,797.8214133126395,756.5714276177542,2839,797.8214133126395,756.5714276177542,2939.4,797.8214133126395,756.5714276177542,3039.9,797.8214133126395,756.5714276177542,3143.2,797.8214133126395,756.5714276177542,3244.3,797.8214133126395,756.5714276177542,3354.7,797.8214133126395,756.5714276177542,3461.8,797.8214133126395,756.5714276177542,3563.8,797.8214133126395,756.5714276177542,3668.1,797.8214133126395,756.5714276177542,3771.4,797.8214133126395,756.5714276177542,3874.6,797.8214133126395,756.5714276177542,3974.7,797.8214133126395,756.5714276177542,4074.8,797.8214133126395,756.5714276177542,4183.8,797.8214133126395,756.5714276177542,4285.3,797.8214133126395,756.5714276177542,4385.3,797.8214133126395,756.5714276177542,4488.8,797.8214133126395,756.5714276177542,4593.5,797.8214133126395,756.5714276177542,4698.2,797.8214133126395,756.5714276177542,4803.6,797.8214133126395,756.5714276177542,4904]","[1417.4,1417.4,1000,0,417.4,""oops"",""right"",""right"",""good_move"",4037.2,2619.4,2110.2,1417.8,509.2,""smooth"",""right"",""right"",""good_move"",7400.7,3363.2,2964,4037.5,399.2,""smooth"",""down"",""down"",""good_move"",10120.2,2718.2,2292.1,7402,426.1,""smooth"",""down"",""down"",""good_move"",13144.6,3024,2326.5,10120.6,697.5,""smooth"",""down"",""down"",""good_move"",16480.6,3335.8,2976.6,13144.8,359.2,""smooth"",""right"",""right"",""good_move""]","",""
"5403","","<div style=""width:500px;"">
  <p>What determined the result of this run?</p>
  </div>","35","html-slider-response","15","214763","0.0-5.0-1.1","131","1","2025-07-17 23:53:17","1f75c3e559b7213887762d5229550c2b","102.182.169.207","Mozilla/5.0 (Windows NT 10.0; Win64; x64) AppleWebKit/537.36 (KHTML, like Gecko) Chrome/138.0.0.0 Safari/537.36","WebKit","Chrome","138.0.0.0","Windows","10.0","https://app.prolific.com/","en-ZA,en-GB;q=0.9,en-US;q=0.8,en;q=0.7","61248a51eefb6797024ecb85","68764874ac79eee8c1d4cb03","68798ce8d6d02a946f9a1d30","2","0","61248a51eefb6797024ecb85","2","0","2025-07-17T23:56:54.693Z","","","","","","","","","","","AttribQ","","50","","","","","","","","","","","","","","","","","","","","","","","","","","","","",""
"5750","","<div style=""width:500px;"">
  <p>How much control did you have over the ball?</p>
  </div>","79","html-slider-response","16","220515","0.0-5.0-2.1","131","1","2025-07-17 23:53:17","1f75c3e559b7213887762d5229550c2b","102.182.169.207","Mozilla/5.0 (Windows NT 10.0; Win64; x64) AppleWebKit/537.36 (KHTML, like Gecko) Chrome/138.0.0.0 Safari/537.36","WebKit","Chrome","138.0.0.0","Windows","10.0","https://app.prolific.com/","en-ZA,en-GB;q=0.9,en-US;q=0.8,en;q=0.7","61248a51eefb6797024ecb85","68764874ac79eee8c1d4cb03","68798ce8d6d02a946f9a1d30","2","0","61248a51eefb6797024ecb85","2","0","2025-07-17T23:57:00.445Z","","","","","","","","","","","ControlQ","","50","","","","","","","","","","","","","","","","","","","","","","","","","","","","",""
"5214","","<div style=""width:500px;"">
  <p>How would you describe your current emotional state?</p>
  </div>","60","html-slider-response","17","225731","0.0-5.0-3.1","131","1","2025-07-17 23:53:17","1f75c3e559b7213887762d5229550c2b","102.182.169.207","Mozilla/5.0 (Windows NT 10.0; Win64; x64) AppleWebKit/537.36 (KHTML, like Gecko) Chrome/138.0.0.0 Safari/537.36","WebKit","Chrome","138.0.0.0","Windows","10.0","https://app.prolific.com/","en-ZA,en-GB;q=0.9,en-US;q=0.8,en;q=0.7","61248a51eefb6797024ecb85","68764874ac79eee8c1d4cb03","68798ce8d6d02a946f9a1d30","2","0","61248a51eefb6797024ecb85","2","0","2025-07-17T23:57:05.661Z","","","","","","","","","","","StressQ","","50","","","","","","","","","","","","","","","","","","","","","","","","","","","","",""
"3450","","<div style=""width:500px;"">
  <p>What best describes how you currently feel?</p>
  </div>","60","html-slider-response","18","229183","0.0-5.0-4.1","131","1","2025-07-17 23:53:17","1f75c3e559b7213887762d5229550c2b","102.182.169.207","Mozilla/5.0 (Windows NT 10.0; Win64; x64) AppleWebKit/537.36 (KHTML, like Gecko) Chrome/138.0.0.0 Safari/537.36","WebKit","Chrome","138.0.0.0","Windows","10.0","https://app.prolific.com/","en-ZA,en-GB;q=0.9,en-US;q=0.8,en;q=0.7","61248a51eefb6797024ecb85","68764874ac79eee8c1d4cb03","68798ce8d6d02a946f9a1d30","2","0","61248a51eefb6797024ecb85","2","0","2025-07-17T23:57:09.113Z","","","","","","","","","","","MotivationQ","","50","","","","","","","","","","","","","","","","","","","","","","","","","","","","",""
"","","","","ctl-task-cpt","19","280544","0.0-5.0-0.2","131","1","2025-07-17 23:53:17","1f75c3e559b7213887762d5229550c2b","102.182.169.207","Mozilla/5.0 (Windows NT 10.0; Win64; x64) AppleWebKit/537.36 (KHTML, like Gecko) Chrome/138.0.0.0 Safari/537.36","WebKit","Chrome","138.0.0.0","Windows","10.0","https://app.prolific.com/","en-ZA,en-GB;q=0.9,en-US;q=0.8,en;q=0.7","61248a51eefb6797024ecb85","68764874ac79eee8c1d4cb03","68798ce8d6d02a946f9a1d30","2","0","61248a51eefb6797024ecb85","2","0","2025-07-17T23:58:00.474Z","","","","","","","","","","","","","","win-only","0","g1:NW,g2:SE","0.8","3","0","232496.2","1426.5","6427.2","48352.7","1","4","8","6","2","8","8","20","12","0.15151515151515152","1503.9","3000","325","[""down"",""right""]","{""num_key_presses"":8,""num_perfect"":7,""num_errors"":0,""num_randdir"":1,""num_randdir_good_moves"":0,""num_whilered"":0,""num_whileblue"":0,""num_blue"":5,""num_good_moves"":7}","[412.8214133126395,412.82142761775424,0.4,412.8214133126395,412.82142761775424,105.7,412.8214133126395,412.82142761775424,206.3,412.8214133126395,412.82142761775424,307.1,414.0714133126395,411.57142761775424,408.5,414.0714133126395,411.57142761775424,509.7,401.5714133126395,392.82142761775424,613.3,390.3214133126395,371.57142761775424,714.4,400.3214133126395,376.57142761775424,825.6,560.3214133126395,527.8214276177542,926.1,636.5714133126395,611.5714276177542,1026.9,665.3214133126395,631.5714276177542,1130.3,677.8214133126395,664.0714276177542,1230.7,736.5714133126395,736.5714276177542,1341.7,771.5714133126395,785.3214276177542,1447.8,771.5714133126395,786.5714276177542,1547.9,771.5714133126395,786.5714276177542,1651.3,771.5714133126395,786.5714276177542,1752.2,771.5714133126395,786.5714276177542,1859.5,771.5714133126395,786.5714276177542,1964.8,771.5714133126395,786.5714276177542,2067.6,771.5714133126395,786.5714276177542,2175.9,771.5714133126395,786.5714276177542,2280.5,771.5714133126395,786.5714276177542,2385.1,771.5714133126395,786.5714276177542,2492.2,771.5714133126395,786.5714276177542,2597.8,771.5714133126395,786.5714276177542,2704.9,771.5714133126395,786.5714276177542,2806.9,771.5714133126395,786.5714276177542,2912.6,771.5714133126395,786.5714276177542,3014.3,771.5714133126395,786.5714276177542,3114.8,771.5714133126395,786.5714276177542,3219.7,771.5714133126395,786.5714276177542,3324.9,771.5714133126395,786.5714276177542,3427.4,771.5714133126395,786.5714276177542,3530.6,771.5714133126395,786.5714276177542,3634.7,771.5714133126395,786.5714276177542,3739.9,771.5714133126395,786.5714276177542,3841.6,771.5714133126395,786.5714276177542,3941.7,771.5714133126395,786.5714276177542,4047.5,771.5714133126395,786.5714276177542,4150.6,771.5714133126395,786.5714276177542,4255.5,771.5714133126395,786.5714276177542,4356.2,771.5714133126395,786.5714276177542,4456.3,771.5714133126395,786.5714276177542,4556.4,771.5714133126395,786.5714276177542,4656.7,771.5714133126395,786.5714276177542,4762.4,771.5714133126395,786.5714276177542,4862.8,771.5714133126395,786.5714276177542,4965.9]","[5076.2,5076.2,2645.4,2009.3,421.5,""smooth"",""down"",""down"",""good_move"",8269.3,3192.5,2791.6,5076.8,400.9,""oops"",""down"",""up"",""bad_move"",10969,2699,2271.9,8270,427.1,""smooth"",""right"",""right"",""good_move"",28585.4,17615.7,2374.3,25763,448.1,""smooth"",""down"",""down"",""good_move"",32492.7,3906.9,3315.2,28585.9,591.7,""smooth"",""down"",""down"",""good_move"",35196.3,2702.9,2184.9,32493.4,518,""smooth"",""down"",""down"",""good_move"",38238.4,3041.6,2537.8,35196.8,503.8,""smooth"",""right"",""right"",""good_move"",41808.2,3569.4,3105.7,38238.8,463.7,""smooth"",""right"",""right"",""good_move""]","",""
"64888","","<div style=""width:500px;"">
  <p>What determined the result of this run?</p>
  </div>","32","html-slider-response","20","345434","0.0-5.0-1.2","131","1","2025-07-17 23:53:17","1f75c3e559b7213887762d5229550c2b","102.182.169.207","Mozilla/5.0 (Windows NT 10.0; Win64; x64) AppleWebKit/537.36 (KHTML, like Gecko) Chrome/138.0.0.0 Safari/537.36","WebKit","Chrome","138.0.0.0","Windows","10.0","https://app.prolific.com/","en-ZA,en-GB;q=0.9,en-US;q=0.8,en;q=0.7","61248a51eefb6797024ecb85","68764874ac79eee8c1d4cb03","68798ce8d6d02a946f9a1d30","2","0","61248a51eefb6797024ecb85","2","0","2025-07-17T23:59:05.364Z","","","","","","","","","","","AttribQ","","50","","","","","","","","","","","","","","","","","","","","","","","","","","","","",""
"5301","","<div style=""width:500px;"">
  <p>How much control did you have over the ball?</p>
  </div>","40","html-slider-response","21","350737","0.0-5.0-2.2","131","1","2025-07-17 23:53:17","1f75c3e559b7213887762d5229550c2b","102.182.169.207","Mozilla/5.0 (Windows NT 10.0; Win64; x64) AppleWebKit/537.36 (KHTML, like Gecko) Chrome/138.0.0.0 Safari/537.36","WebKit","Chrome","138.0.0.0","Windows","10.0","https://app.prolific.com/","en-ZA,en-GB;q=0.9,en-US;q=0.8,en;q=0.7","61248a51eefb6797024ecb85","68764874ac79eee8c1d4cb03","68798ce8d6d02a946f9a1d30","2","0","61248a51eefb6797024ecb85","2","0","2025-07-17T23:59:10.668Z","","","","","","","","","","","ControlQ","","50","","","","","","","","","","","","","","","","","","","","","","","","","","","","",""
"3122","","<div style=""width:500px;"">
  <p>How would you describe your current emotional state?</p>
  </div>","38","html-slider-response","22","353861","0.0-5.0-3.2","131","1","2025-07-17 23:53:17","1f75c3e559b7213887762d5229550c2b","102.182.169.207","Mozilla/5.0 (Windows NT 10.0; Win64; x64) AppleWebKit/537.36 (KHTML, like Gecko) Chrome/138.0.0.0 Safari/537.36","WebKit","Chrome","138.0.0.0","Windows","10.0","https://app.prolific.com/","en-ZA,en-GB;q=0.9,en-US;q=0.8,en;q=0.7","61248a51eefb6797024ecb85","68764874ac79eee8c1d4cb03","68798ce8d6d02a946f9a1d30","2","0","61248a51eefb6797024ecb85","2","0","2025-07-17T23:59:13.791Z","","","","","","","","","","","StressQ","","50","","","","","","","","","","","","","","","","","","","","","","","","","","","","",""
"3595","","<div style=""width:500px;"">
  <p>What best describes how you currently feel?</p>
  </div>","60","html-slider-response","23","357458","0.0-5.0-4.2","131","1","2025-07-17 23:53:17","1f75c3e559b7213887762d5229550c2b","102.182.169.207","Mozilla/5.0 (Windows NT 10.0; Win64; x64) AppleWebKit/537.36 (KHTML, like Gecko) Chrome/138.0.0.0 Safari/537.36","WebKit","Chrome","138.0.0.0","Windows","10.0","https://app.prolific.com/","en-ZA,en-GB;q=0.9,en-US;q=0.8,en;q=0.7","61248a51eefb6797024ecb85","68764874ac79eee8c1d4cb03","68798ce8d6d02a946f9a1d30","2","0","61248a51eefb6797024ecb85","2","0","2025-07-17T23:59:17.388Z","","","","","","","","","","","MotivationQ","","50","","","","","","","","","","","","","","","","","","","","","","","","","","","","",""
"","","","","ctl-task-cpt","24","384899","0.0-5.0-0.3","131","1","2025-07-17 23:53:17","1f75c3e559b7213887762d5229550c2b","102.182.169.207","Mozilla/5.0 (Windows NT 10.0; Win64; x64) AppleWebKit/537.36 (KHTML, like Gecko) Chrome/138.0.0.0 Safari/537.36","WebKit","Chrome","138.0.0.0","Windows","10.0","https://app.prolific.com/","en-ZA,en-GB;q=0.9,en-US;q=0.8,en;q=0.7","61248a51eefb6797024ecb85","68764874ac79eee8c1d4cb03","68798ce8d6d02a946f9a1d30","2","0","61248a51eefb6797024ecb85","2","0","2025-07-17T23:59:44.829Z","","","","","","","","","","","","","","win-only","3","g1:SW,g2:NE","0.7","4","0","360772.6","1085.5","6089","24431.6","1","4","4","6","2","4","4","24","20","0.18181818181818182","1697.2","3000","1220","[""up"",""right""]","{""num_key_presses"":6,""num_perfect"":5,""num_errors"":0,""num_randdir"":1,""num_randdir_good_moves"":1,""num_whilered"":0,""num_whileblue"":0,""num_blue"":0,""num_good_moves"":6}","[409.0714133126395,414.07142761775424,0.4,409.0714133126395,414.07142761775424,107.8,409.0714133126395,414.07142761775424,213.9,409.0714133126395,414.07142761775424,320.6,409.0714133126395,414.07142761775424,429.9,409.0714133126395,414.07142761775424,539.4,389.0714133126395,431.57142761775424,642.6,364.0714133126395,466.57142761775424,746.6,356.5714133126395,484.07142761775424,852.7,357.8214133126395,484.07142761775424,957.4,464.0714133126395,407.82142761775424,1065,591.5714133126395,276.57142761775424,1170.6,722.8214133126395,199.07142761775424,1273.2,750.3214133126395,164.07142761775424,1377.2,801.5714133126395,120.32142761775425,1484.8,811.5714133126395,97.82142761775425,1591,811.5714133126395,91.57142761775425,1695.7,811.5714133126395,91.57142761775425,1806.4,811.5714133126395,91.57142761775425,1914,811.5714133126395,91.57142761775425,2014.3,811.5714133126395,91.57142761775425,2115.9,811.5714133126395,91.57142761775425,2219.2,811.5714133126395,91.57142761775425,2324.5,811.5714133126395,91.57142761775425,2426.2,811.5714133126395,91.57142761775425,2528.7,811.5714133126395,91.57142761775425,2635.5,811.5714133126395,91.57142761775425,2741.6,811.5714133126395,91.57142761775425,2845.4,811.5714133126395,91.57142761775425,2947.7,811.5714133126395,91.57142761775425,3049.8,811.5714133126395,91.57142761775425,3150.5,811.5714133126395,91.57142761775425,3254.7,811.5714133126395,91.57142761775425,3359,811.5714133126395,91.57142761775425,3464.6,811.5714133126395,91.57142761775425,3564.9,811.5714133126395,91.57142761775425,3666.9,811.5714133126395,91.57142761775425,3771.8,811.5714133126395,91.57142761775425,3872.1,811.5714133126395,91.57142761775425,3976.5,811.5714133126395,91.57142761775425,4077.1,811.5714133126395,91.57142761775425,4178.2,811.5714133126395,91.57142761775425,4279,811.5714133126395,91.57142761775425,4384.3,811.5714133126395,91.57142761775425,4486.6,811.5714133126395,91.57142761775425,4586.8,811.5714133126395,91.57142761775425,4688.4,811.5714133126395,91.57142761775425,4791.8,811.5714133126395,91.57142761775425,4895.8]","[1416.7,1416.7,1000,0,416.7,""smooth"",""right"",""right"",""good_move"",5370.6,3953.4,3540,1417.2,413.4,""smooth"",""right"",""right"",""good_move"",8810.1,3439.3,3001.1,5370.8,438.2,""smooth"",""right"",""right"",""good_move"",12046,3235.4,2827.6,8810.6,407.8,""smooth"",""up"",""up"",""good_move"",15698.8,3652.1,3293.5,12046.7,358.6,""oops"",""up"",""up"",""good_move"",18205.8,2506.3,2051.4,15699.5,454.9,""smooth"",""up"",""up"",""good_move""]","",""
"5656","","<div style=""width:500px;"">
  <p>What determined the result of this run?</p>
  </div>","63","html-slider-response","25","390556","0.0-5.0-1.3","131","1","2025-07-17 23:53:17","1f75c3e559b7213887762d5229550c2b","102.182.169.207","Mozilla/5.0 (Windows NT 10.0; Win64; x64) AppleWebKit/537.36 (KHTML, like Gecko) Chrome/138.0.0.0 Safari/537.36","WebKit","Chrome","138.0.0.0","Windows","10.0","https://app.prolific.com/","en-ZA,en-GB;q=0.9,en-US;q=0.8,en;q=0.7","61248a51eefb6797024ecb85","68764874ac79eee8c1d4cb03","68798ce8d6d02a946f9a1d30","2","0","61248a51eefb6797024ecb85","2","0","2025-07-17T23:59:50.486Z","","","","","","","","","","","AttribQ","","50","","","","","","","","","","","","","","","","","","","","","","","","","","","","",""
"3010","","<div style=""width:500px;"">
  <p>How much control did you have over the ball?</p>
  </div>","37","html-slider-response","26","393567","0.0-5.0-2.3","131","1","2025-07-17 23:53:17","1f75c3e559b7213887762d5229550c2b","102.182.169.207","Mozilla/5.0 (Windows NT 10.0; Win64; x64) AppleWebKit/537.36 (KHTML, like Gecko) Chrome/138.0.0.0 Safari/537.36","WebKit","Chrome","138.0.0.0","Windows","10.0","https://app.prolific.com/","en-ZA,en-GB;q=0.9,en-US;q=0.8,en;q=0.7","61248a51eefb6797024ecb85","68764874ac79eee8c1d4cb03","68798ce8d6d02a946f9a1d30","2","0","61248a51eefb6797024ecb85","2","0","2025-07-17T23:59:53.497Z","","","","","","","","","","","ControlQ","","50","","","","","","","","","","","","","","","","","","","","","","","","","","","","",""
"1993","","<div style=""width:500px;"">
  <p>How would you describe your current emotional state?</p>
  </div>","40","html-slider-response","27","395561","0.0-5.0-3.3","131","1","2025-07-17 23:53:17","1f75c3e559b7213887762d5229550c2b","102.182.169.207","Mozilla/5.0 (Windows NT 10.0; Win64; x64) AppleWebKit/537.36 (KHTML, like Gecko) Chrome/138.0.0.0 Safari/537.36","WebKit","Chrome","138.0.0.0","Windows","10.0","https://app.prolific.com/","en-ZA,en-GB;q=0.9,en-US;q=0.8,en;q=0.7","61248a51eefb6797024ecb85","68764874ac79eee8c1d4cb03","68798ce8d6d02a946f9a1d30","2","0","61248a51eefb6797024ecb85","2","0","2025-07-17T23:59:55.491Z","","","","","","","","","","","StressQ","","50","","","","","","","","","","","","","","","","","","","","","","","","","","","","",""
"3678","","<div style=""width:500px;"">
  <p>What best describes how you currently feel?</p>
  </div>","59","html-slider-response","28","399240","0.0-5.0-4.3","131","1","2025-07-17 23:53:17","1f75c3e559b7213887762d5229550c2b","102.182.169.207","Mozilla/5.0 (Windows NT 10.0; Win64; x64) AppleWebKit/537.36 (KHTML, like Gecko) Chrome/138.0.0.0 Safari/537.36","WebKit","Chrome","138.0.0.0","Windows","10.0","https://app.prolific.com/","en-ZA,en-GB;q=0.9,en-US;q=0.8,en;q=0.7","61248a51eefb6797024ecb85","68764874ac79eee8c1d4cb03","68798ce8d6d02a946f9a1d30","2","0","61248a51eefb6797024ecb85","2","0","2025-07-17T23:59:59.170Z","","","","","","","","","","","MotivationQ","","50","","","","","","","","","","","","","","","","","","","","","","","","","","","","",""
"","","","","ctl-task-cpt","29","434218","0.0-5.0-0.4","131","1","2025-07-17 23:53:17","1f75c3e559b7213887762d5229550c2b","102.182.169.207","Mozilla/5.0 (Windows NT 10.0; Win64; x64) AppleWebKit/537.36 (KHTML, like Gecko) Chrome/138.0.0.0 Safari/537.36","WebKit","Chrome","138.0.0.0","Windows","10.0","https://app.prolific.com/","en-ZA,en-GB;q=0.9,en-US;q=0.8,en;q=0.7","61248a51eefb6797024ecb85","68764874ac79eee8c1d4cb03","68798ce8d6d02a946f9a1d30","2","0","61248a51eefb6797024ecb85","2","0","2025-07-18T00:00:34.148Z","","","","","","","","","","","","","","win-only","2","g1:SE,g2:NW","0.6","5","0","402554.8","1950.5","6957.2","31961.5","1","4","8","6","2","8","8","32","24","0.24242424242424243","1712.6","3000","1030","[""left"",""up""]","{""num_key_presses"":6,""num_perfect"":5,""num_errors"":0,""num_randdir"":1,""num_randdir_good_moves"":1,""num_whilered"":0,""num_whileblue"":0,""num_blue"":2,""num_good_moves"":6}","[421.5714133126395,417.82142761775424,0.2,421.5714133126395,417.82142761775424,106.7,421.5714133126395,417.82142761775424,211.9,421.5714133126395,417.82142761775424,312.6,421.5714133126395,417.82142761775424,412.6,421.5714133126395,417.82142761775424,518.6,421.5714133126395,417.82142761775424,620.2,421.5714133126395,417.82142761775424,722.3,421.5714133126395,417.82142761775424,827.3,421.5714133126395,417.82142761775424,931.5,421.5714133126395,417.82142761775424,1032.9,340.3214133126395,382.82142761775424,1135.4,54.07141331263951,192.82142761775424,1238.2,17.821413312639507,165.32142761775424,1341.8,26.571413312639507,157.82142761775424,1446.9,42.82141331263951,140.32142761775424,1554.7,62.82141331263951,112.82142761775425,1658.4,62.82141331263951,112.82142761775425,1763,62.82141331263951,112.82142761775425,1874.2,62.82141331263951,112.82142761775425,1979.1,62.82141331263951,112.82142761775425,2080.7,114.0714133126395,181.57142761775424,2183.4,256.5714133126395,281.57142761775424,2289.9,380.3214133126395,376.57142761775424,2390.4,411.5714133126395,382.82142761775424,2491.2,411.5714133126395,382.82142761775424,2594.4,411.5714133126395,382.82142761775424,2696.3,411.5714133126395,382.82142761775424,2797.7,411.5714133126395,382.82142761775424,2902.7,411.5714133126395,382.82142761775424,3004.8,411.5714133126395,382.82142761775424,3105.3,411.5714133126395,382.82142761775424,3208.7,411.5714133126395,382.82142761775424,3312.6,411.5714133126395,382.82142761775424,3413.1,411.5714133126395,382.82142761775424,3520.6,411.5714133126395,382.82142761775424,3621.6,411.5714133126395,382.82142761775424,3729,411.5714133126395,382.82142761775424,3829,411.5714133126395,382.82142761775424,3937,411.5714133126395,382.82142761775424,4042.5,411.5714133126395,382.82142761775424,4145.4,411.5714133126395,382.82142761775424,4251.3,411.5714133126395,382.82142761775424,4353.8,411.5714133126395,382.82142761775424,4461.5,411.5714133126395,382.82142761775424,4569.7,411.5714133126395,382.82142761775424,4672.5,411.5714133126395,382.82142761775424,4781.4,411.5714133126395,382.82142761775424,4888.9,411.5714133126395,382.82142761775424,4991.1]","[1324.5,1324.5,1000,0,324.5,""smooth"",""left"",""left"",""good_move"",4868.8,3543.8,3144.3,1325,399.5,""smooth"",""left"",""left"",""good_move"",11529.5,6660.1,3034,8054.4,441.1,""oops"",""up"",""up"",""good_move"",14861.3,3331.1,2739.2,11530.2,591.9,""smooth"",""left"",""left"",""good_move"",21842,6980.2,2654.8,18780.3,407,""smooth"",""up"",""up"",""good_move"",24889.3,3047.1,2578.2,21842.2,468.9,""smooth"",""up"",""up"",""good_move""]","",""
"4294","","<div style=""width:500px;"">
  <p>What determined the result of this run?</p>
  </div>","27","html-slider-response","30","438514","0.0-5.0-1.4","131","1","2025-07-17 23:53:17","1f75c3e559b7213887762d5229550c2b","102.182.169.207","Mozilla/5.0 (Windows NT 10.0; Win64; x64) AppleWebKit/537.36 (KHTML, like Gecko) Chrome/138.0.0.0 Safari/537.36","WebKit","Chrome","138.0.0.0","Windows","10.0","https://app.prolific.com/","en-ZA,en-GB;q=0.9,en-US;q=0.8,en;q=0.7","61248a51eefb6797024ecb85","68764874ac79eee8c1d4cb03","68798ce8d6d02a946f9a1d30","2","0","61248a51eefb6797024ecb85","2","0","2025-07-18T00:00:38.444Z","","","","","","","","","","","AttribQ","","50","","","","","","","","","","","","","","","","","","","","","","","","","","","","",""
"2239","","<div style=""width:500px;"">
  <p>How much control did you have over the ball?</p>
  </div>","61","html-slider-response","31","440755","0.0-5.0-2.4","131","1","2025-07-17 23:53:17","1f75c3e559b7213887762d5229550c2b","102.182.169.207","Mozilla/5.0 (Windows NT 10.0; Win64; x64) AppleWebKit/537.36 (KHTML, like Gecko) Chrome/138.0.0.0 Safari/537.36","WebKit","Chrome","138.0.0.0","Windows","10.0","https://app.prolific.com/","en-ZA,en-GB;q=0.9,en-US;q=0.8,en;q=0.7","61248a51eefb6797024ecb85","68764874ac79eee8c1d4cb03","68798ce8d6d02a946f9a1d30","2","0","61248a51eefb6797024ecb85","2","0","2025-07-18T00:00:40.686Z","","","","","","","","","","","ControlQ","","50","","","","","","","","","","","","","","","","","","","","","","","","","","","","",""
"2242","","<div style=""width:500px;"">
  <p>How would you describe your current emotional state?</p>
  </div>","60","html-slider-response","32","442999","0.0-5.0-3.4","131","1","2025-07-17 23:53:17","1f75c3e559b7213887762d5229550c2b","102.182.169.207","Mozilla/5.0 (Windows NT 10.0; Win64; x64) AppleWebKit/537.36 (KHTML, like Gecko) Chrome/138.0.0.0 Safari/537.36","WebKit","Chrome","138.0.0.0","Windows","10.0","https://app.prolific.com/","en-ZA,en-GB;q=0.9,en-US;q=0.8,en;q=0.7","61248a51eefb6797024ecb85","68764874ac79eee8c1d4cb03","68798ce8d6d02a946f9a1d30","2","0","61248a51eefb6797024ecb85","2","0","2025-07-18T00:00:42.929Z","","","","","","","","","","","StressQ","","50","","","","","","","","","","","","","","","","","","","","","","","","","","","","",""
"1833","","<div style=""width:500px;"">
  <p>What best describes how you currently feel?</p>
  </div>","62","html-slider-response","33","444833","0.0-5.0-4.4","131","1","2025-07-17 23:53:17","1f75c3e559b7213887762d5229550c2b","102.182.169.207","Mozilla/5.0 (Windows NT 10.0; Win64; x64) AppleWebKit/537.36 (KHTML, like Gecko) Chrome/138.0.0.0 Safari/537.36","WebKit","Chrome","138.0.0.0","Windows","10.0","https://app.prolific.com/","en-ZA,en-GB;q=0.9,en-US;q=0.8,en;q=0.7","61248a51eefb6797024ecb85","68764874ac79eee8c1d4cb03","68798ce8d6d02a946f9a1d30","2","0","61248a51eefb6797024ecb85","2","0","2025-07-18T00:00:44.764Z","","","","","","","","","","","MotivationQ","","50","","","","","","","","","","","","","","","","","","","","","","","","","","","","",""
"","","","","ctl-task-cpt","34","483740","0.0-5.0-0.5","131","1","2025-07-17 23:53:17","1f75c3e559b7213887762d5229550c2b","102.182.169.207","Mozilla/5.0 (Windows NT 10.0; Win64; x64) AppleWebKit/537.36 (KHTML, like Gecko) Chrome/138.0.0.0 Safari/537.36","WebKit","Chrome","138.0.0.0","Windows","10.0","https://app.prolific.com/","en-ZA,en-GB;q=0.9,en-US;q=0.8,en;q=0.7","61248a51eefb6797024ecb85","68764874ac79eee8c1d4cb03","68798ce8d6d02a946f9a1d30","2","0","61248a51eefb6797024ecb85","2","0","2025-07-18T00:01:23.670Z","","","","","","","","","","","","","","win-only","3","g1:SW,g2:NE","0.5","6","0","448146.9","1072.1","6075.2","35896.6","1","4","4","6","2","4","4","36","32","0.2727272727272727","1449.6","3000","25","[""up"",""right""]","{""num_key_presses"":10,""num_perfect"":5,""num_errors"":0,""num_randdir"":5,""num_randdir_good_moves"":3,""num_whilered"":0,""num_whileblue"":0,""num_blue"":1,""num_good_moves"":8}","[414.0714133126395,422.82142761775424,0.5,414.0714133126395,422.82142761775424,108.3,414.0714133126395,422.82142761775424,209.1,414.0714133126395,422.82142761775424,309.1,414.0714133126395,422.82142761775424,415.6,414.0714133126395,422.82142761775424,523.9,391.5714133126395,444.07142761775424,625.2,366.5714133126395,461.57142761775424,730.7,365.3214133126395,462.82142761775424,830.9,536.5714133126395,276.57142761775424,935.5,635.3214133126395,147.82142761775424,1041.6,646.5714133126395,132.82142761775424,1143.7,659.0714133126395,126.57142761775425,1245.1,741.5714133126395,111.57142761775425,1349.9,777.8214133126395,91.57142761775425,1458.6,777.8214133126395,91.57142761775425,1559.2,777.8214133126395,91.57142761775425,1664,777.8214133126395,91.57142761775425,1765.6,777.8214133126395,91.57142761775425,1866.3,777.8214133126395,91.57142761775425,1975.1,777.8214133126395,91.57142761775425,2082.2,777.8214133126395,91.57142761775425,2183,777.8214133126395,91.57142761775425,2283,777.8214133126395,91.57142761775425,2384.2,777.8214133126395,91.57142761775425,2492.2,777.8214133126395,91.57142761775425,2594.2,777.8214133126395,91.57142761775425,2700.7,777.8214133126395,91.57142761775425,2800.8,777.8214133126395,91.57142761775425,2902.7,777.8214133126395,91.57142761775425,3002.9,777.8214133126395,91.57142761775425,3104.2,777.8214133126395,91.57142761775425,3207.9,777.8214133126395,91.57142761775425,3308.5,777.8214133126395,91.57142761775425,3411.2,777.8214133126395,91.57142761775425,3513.8,777.8214133126395,91.57142761775425,3614.2,777.8214133126395,91.57142761775425,3721.9,777.8214133126395,91.57142761775425,3823.3,777.8214133126395,91.57142761775425,3935.3,777.8214133126395,91.57142761775425,4053.2,777.8214133126395,91.57142761775425,4158.9,777.8214133126395,91.57142761775425,4262.3,777.8214133126395,91.57142761775425,4368.4,777.8214133126395,91.57142761775425,4472.6,777.8214133126395,91.57142761775425,4573.6,777.8214133126395,91.57142761775425,4674.5,777.8214133126395,91.57142761775425,4780.3,777.8214133126395,91.57142761775425,4884.8,777.8214133126395,91.57142761775425,4985]","[1354.6,1354.7,1000,0,354.7,""oops"",""right"",""down"",""bad_move"",4186.3,2830.6,2339.4,1355.8,491.1,""oops"",""right"",""up"",""good_move"",6890.4,2703.6,2311.7,4187,391.8,""smooth"",""up"",""up"",""good_move"",11909.2,5018.4,1458.6,10057.9,392.7,""smooth"",""up"",""up"",""good_move"",14480.3,2570.9,2158.6,11909.5,412.2,""smooth"",""right"",""right"",""good_move"",17376.3,2895.3,2338.8,14481,556.5,""smooth"",""right"",""right"",""good_move"",20279.3,2902.7,2297.7,17376.6,605,""oops"",""right"",""right"",""good_move"",23128.1,2848.1,2462.5,20280,385.6,""oops"",""up"",""left"",""bad_move"",26644,3515.1,3126.3,23129,388.7,""smooth"",""up"",""up"",""good_move"",29700.2,3055.6,2777.4,26644.6,278.2,""oops"",""right"",""right"",""good_move""]","",""
"5019","","<div style=""width:500px;"">
  <p>What determined the result of this run?</p>
  </div>","24","html-slider-response","35","488760","0.0-5.0-1.5","131","1","2025-07-17 23:53:17","1f75c3e559b7213887762d5229550c2b","102.182.169.207","Mozilla/5.0 (Windows NT 10.0; Win64; x64) AppleWebKit/537.36 (KHTML, like Gecko) Chrome/138.0.0.0 Safari/537.36","WebKit","Chrome","138.0.0.0","Windows","10.0","https://app.prolific.com/","en-ZA,en-GB;q=0.9,en-US;q=0.8,en;q=0.7","61248a51eefb6797024ecb85","68764874ac79eee8c1d4cb03","68798ce8d6d02a946f9a1d30","2","0","61248a51eefb6797024ecb85","2","0","2025-07-18T00:01:28.690Z","","","","","","","","","","","AttribQ","","50","","","","","","","","","","","","","","","","","","","","","","","","","","","","",""
"2344","","<div style=""width:500px;"">
  <p>How much control did you have over the ball?</p>
  </div>","30","html-slider-response","36","491106","0.0-5.0-2.5","131","1","2025-07-17 23:53:17","1f75c3e559b7213887762d5229550c2b","102.182.169.207","Mozilla/5.0 (Windows NT 10.0; Win64; x64) AppleWebKit/537.36 (KHTML, like Gecko) Chrome/138.0.0.0 Safari/537.36","WebKit","Chrome","138.0.0.0","Windows","10.0","https://app.prolific.com/","en-ZA,en-GB;q=0.9,en-US;q=0.8,en;q=0.7","61248a51eefb6797024ecb85","68764874ac79eee8c1d4cb03","68798ce8d6d02a946f9a1d30","2","0","61248a51eefb6797024ecb85","2","0","2025-07-18T00:01:31.036Z","","","","","","","","","","","ControlQ","","50","","","","","","","","","","","","","","","","","","","","","","","","","","","","",""
"3306","","<div style=""width:500px;"">
  <p>How would you describe your current emotional state?</p>
  </div>","57","html-slider-response","37","494413","0.0-5.0-3.5","131","1","2025-07-17 23:53:17","1f75c3e559b7213887762d5229550c2b","102.182.169.207","Mozilla/5.0 (Windows NT 10.0; Win64; x64) AppleWebKit/537.36 (KHTML, like Gecko) Chrome/138.0.0.0 Safari/537.36","WebKit","Chrome","138.0.0.0","Windows","10.0","https://app.prolific.com/","en-ZA,en-GB;q=0.9,en-US;q=0.8,en;q=0.7","61248a51eefb6797024ecb85","68764874ac79eee8c1d4cb03","68798ce8d6d02a946f9a1d30","2","0","61248a51eefb6797024ecb85","2","0","2025-07-18T00:01:34.343Z","","","","","","","","","","","StressQ","","50","","","","","","","","","","","","","","","","","","","","","","","","","","","","",""
"3051","","<div style=""width:500px;"">
  <p>What best describes how you currently feel?</p>
  </div>","71","html-slider-response","38","497465","0.0-5.0-4.5","131","1","2025-07-17 23:53:17","1f75c3e559b7213887762d5229550c2b","102.182.169.207","Mozilla/5.0 (Windows NT 10.0; Win64; x64) AppleWebKit/537.36 (KHTML, like Gecko) Chrome/138.0.0.0 Safari/537.36","WebKit","Chrome","138.0.0.0","Windows","10.0","https://app.prolific.com/","en-ZA,en-GB;q=0.9,en-US;q=0.8,en;q=0.7","61248a51eefb6797024ecb85","68764874ac79eee8c1d4cb03","68798ce8d6d02a946f9a1d30","2","0","61248a51eefb6797024ecb85","2","0","2025-07-18T00:01:37.395Z","","","","","","","","","","","MotivationQ","","50","","","","","","","","","","","","","","","","","","","","","","","","","","","","",""
"","","","","ctl-task-cpt","39","541693","0.0-5.0-0.6","131","1","2025-07-17 23:53:17","1f75c3e559b7213887762d5229550c2b","102.182.169.207","Mozilla/5.0 (Windows NT 10.0; Win64; x64) AppleWebKit/537.36 (KHTML, like Gecko) Chrome/138.0.0.0 Safari/537.36","WebKit","Chrome","138.0.0.0","Windows","10.0","https://app.prolific.com/","en-ZA,en-GB;q=0.9,en-US;q=0.8,en;q=0.7","61248a51eefb6797024ecb85","68764874ac79eee8c1d4cb03","68798ce8d6d02a946f9a1d30","2","0","61248a51eefb6797024ecb85","2","0","2025-07-18T00:02:21.623Z","","","","","","","","","","","","","","win-only","3","g1:SW,g2:NE","0.4","7","0","500778.4","1233.6","6236.9","41212.2","1","4","4","6","2","-4","-5","31","36","0.23484848484848486","1189.8","3000","-2170","[""up"",""right""]","{""num_key_presses"":11,""num_perfect"":4,""num_errors"":1,""num_randdir"":5,""num_randdir_good_moves"":2,""num_whilered"":1,""num_whileblue"":0,""num_blue"":1,""num_good_moves"":6}","[414.0714133126395,410.32142761775424,0.2,414.0714133126395,410.32142761775424,106.9,414.0714133126395,410.32142761775424,216.4,414.0714133126395,410.32142761775424,319.3,414.0714133126395,410.32142761775424,421.7,414.0714133126395,410.32142761775424,532.5,414.0714133126395,390.32142761775424,637.3,631.5714133126395,192.82142761775424,745.5,801.5714133126395,110.32142761775425,846.1,804.0714133126395,102.82142761775425,949.4,801.5714133126395,77.82142761775425,1049.4,786.5714133126395,61.57142761775425,1149.7,786.5714133126395,61.57142761775425,1258.1,786.5714133126395,61.57142761775425,1358.3,786.5714133126395,61.57142761775425,1466.1,786.5714133126395,61.57142761775425,1573.4,786.5714133126395,61.57142761775425,1679.5,786.5714133126395,61.57142761775425,1785.7,786.5714133126395,61.57142761775425,1890.1,786.5714133126395,61.57142761775425,1990.5,786.5714133126395,61.57142761775425,2092.5,786.5714133126395,61.57142761775425,2193.3,786.5714133126395,61.57142761775425,2297.8,786.5714133126395,61.57142761775425,2398.2,786.5714133126395,61.57142761775425,2503.8,786.5714133126395,61.57142761775425,2608.3,786.5714133126395,61.57142761775425,2708.3,786.5714133126395,61.57142761775425,2816.3,786.5714133126395,61.57142761775425,2916.3,786.5714133126395,61.57142761775425,3017.6,786.5714133126395,61.57142761775425,3124.8,786.5714133126395,61.57142761775425,3226.8,786.5714133126395,61.57142761775425,3332.1,786.5714133126395,61.57142761775425,3432.1,786.5714133126395,61.57142761775425,3537.9,786.5714133126395,61.57142761775425,3641.2,786.5714133126395,61.57142761775425,3742.8,786.5714133126395,61.57142761775425,3847.1,786.5714133126395,61.57142761775425,3949.8,786.5714133126395,61.57142761775425,4053.9,786.5714133126395,61.57142761775425,4157,786.5714133126395,61.57142761775425,4257.1,786.5714133126395,61.57142761775425,4358.8,786.5714133126395,61.57142761775425,4463.2,786.5714133126395,61.57142761775425,4566.1,786.5714133126395,61.57142761775425,4671.7,786.5714133126395,61.57142761775425,4775.9,786.5714133126395,61.57142761775425,4883.8,786.5714133126395,61.57142761775425,4988.3]","[4751.9,4751.9,2284.3,2011.9,455.8,""smooth"",""up"",""up"",""good_move"",7681.2,2928,2421,4753.2,507,""smooth"",""right"",""right"",""good_move"",11972.2,4290.2,3844.7,7682,445.5,""oops"",""up"",""down"",""bad_move"",15282.6,3309.8,2838.5,11972.8,471.3,""oops"",""right"",""left"",""bad_move"",18483.2,3200.1,2740.9,15283.1,459.2,""smooth"",""right"",""right"",""good_move"",21716.5,3232.9,2807.1,18483.6,425.8,""oops"",""right"",""up"",""good_move"",25134.8,3417.5,3058.5,21717.4,359,""smooth"",""right"",""right"",""good_move"",28997.9,3862.8,2998.6,25135.1,864.2,""oops"",""up"",""right"",""good_move"",29014.2,16,2307.1,28998.2,-2291.1,""error"",""-"",""-"",""no_move"",29107.4,93,2307.1,28998.2,-2197.9,""while_red"",""-"",""-"",""no_move"",32823,3808.7,2425.4,30015.3,382.4,""oops"",""up"",""down"",""bad_move""]","",""
"5217","","<div style=""width:500px;"">
  <p>What determined the result of this run?</p>
  </div>","29","html-slider-response","40","546910","0.0-5.0-1.6","131","1","2025-07-17 23:53:17","1f75c3e559b7213887762d5229550c2b","102.182.169.207","Mozilla/5.0 (Windows NT 10.0; Win64; x64) AppleWebKit/537.36 (KHTML, like Gecko) Chrome/138.0.0.0 Safari/537.36","WebKit","Chrome","138.0.0.0","Windows","10.0","https://app.prolific.com/","en-ZA,en-GB;q=0.9,en-US;q=0.8,en;q=0.7","61248a51eefb6797024ecb85","68764874ac79eee8c1d4cb03","68798ce8d6d02a946f9a1d30","2","0","61248a51eefb6797024ecb85","2","0","2025-07-18T00:02:26.840Z","","","","","","","","","","","AttribQ","","50","","","","","","","","","","","","","","","","","","","","","","","","","","","","",""
"3258","","<div style=""width:500px;"">
  <p>How much control did you have over the ball?</p>
  </div>","19","html-slider-response","41","550169","0.0-5.0-2.6","131","1","2025-07-17 23:53:17","1f75c3e559b7213887762d5229550c2b","102.182.169.207","Mozilla/5.0 (Windows NT 10.0; Win64; x64) AppleWebKit/537.36 (KHTML, like Gecko) Chrome/138.0.0.0 Safari/537.36","WebKit","Chrome","138.0.0.0","Windows","10.0","https://app.prolific.com/","en-ZA,en-GB;q=0.9,en-US;q=0.8,en;q=0.7","61248a51eefb6797024ecb85","68764874ac79eee8c1d4cb03","68798ce8d6d02a946f9a1d30","2","0","61248a51eefb6797024ecb85","2","0","2025-07-18T00:02:30.099Z","","","","","","","","","","","ControlQ","","50","","","","","","","","","","","","","","","","","","","","","","","","","","","","",""
"2667","","<div style=""width:500px;"">
  <p>How would you describe your current emotional state?</p>
  </div>","35","html-slider-response","42","552838","0.0-5.0-3.6","131","1","2025-07-17 23:53:17","1f75c3e559b7213887762d5229550c2b","102.182.169.207","Mozilla/5.0 (Windows NT 10.0; Win64; x64) AppleWebKit/537.36 (KHTML, like Gecko) Chrome/138.0.0.0 Safari/537.36","WebKit","Chrome","138.0.0.0","Windows","10.0","https://app.prolific.com/","en-ZA,en-GB;q=0.9,en-US;q=0.8,en;q=0.7","61248a51eefb6797024ecb85","68764874ac79eee8c1d4cb03","68798ce8d6d02a946f9a1d30","2","0","61248a51eefb6797024ecb85","2","0","2025-07-18T00:02:32.768Z","","","","","","","","","","","StressQ","","50","","","","","","","","","","","","","","","","","","","","","","","","","","","","",""
"5300","","<div style=""width:500px;"">
  <p>What best describes how you currently feel?</p>
  </div>","38","html-slider-response","43","558140","0.0-5.0-4.6","131","1","2025-07-17 23:53:17","1f75c3e559b7213887762d5229550c2b","102.182.169.207","Mozilla/5.0 (Windows NT 10.0; Win64; x64) AppleWebKit/537.36 (KHTML, like Gecko) Chrome/138.0.0.0 Safari/537.36","WebKit","Chrome","138.0.0.0","Windows","10.0","https://app.prolific.com/","en-ZA,en-GB;q=0.9,en-US;q=0.8,en;q=0.7","61248a51eefb6797024ecb85","68764874ac79eee8c1d4cb03","68798ce8d6d02a946f9a1d30","2","0","61248a51eefb6797024ecb85","2","0","2025-07-18T00:02:38.070Z","","","","","","","","","","","MotivationQ","","50","","","","","","","","","","","","","","","","","","","","","","","","","","","","",""
"","","","","ctl-task-cpt","44","600777","0.0-5.0-0.7","131","1","2025-07-17 23:53:17","1f75c3e559b7213887762d5229550c2b","102.182.169.207","Mozilla/5.0 (Windows NT 10.0; Win64; x64) AppleWebKit/537.36 (KHTML, like Gecko) Chrome/138.0.0.0 Safari/537.36","WebKit","Chrome","138.0.0.0","Windows","10.0","https://app.prolific.com/","en-ZA,en-GB;q=0.9,en-US;q=0.8,en;q=0.7","61248a51eefb6797024ecb85","68764874ac79eee8c1d4cb03","68798ce8d6d02a946f9a1d30","2","0","61248a51eefb6797024ecb85","2","0","2025-07-18T00:03:20.707Z","","","","","","","","","","","","","","win-only","0","g1:NW,g2:SE","0.3","8","0","561455","1568.5","6572.9","39625.5","1","4","8","6","2","-8","-8","23","31","0.17424242424242425","1386.2","3000","-2165","[""down"",""right""]","{""num_key_presses"":10,""num_perfect"":3,""num_errors"":0,""num_randdir"":7,""num_randdir_good_moves"":3,""num_whilered"":0,""num_whileblue"":0,""num_blue"":1,""num_good_moves"":6}","[411.5714133126395,419.07142761775424,0.4,411.5714133126395,425.32142761775424,106.5,411.5714133126395,425.32142761775424,210.8,411.5714133126395,425.32142761775424,319.5,402.8214133126395,421.57142761775424,424.6,381.5714133126395,390.32142761775424,528.2,357.8214133126395,326.57142761775424,628.3,401.5714133126395,361.57142761775424,728.3,615.3214133126395,596.5714276177542,829.8,680.3214133126395,696.5714276177542,938.9,682.8214133126395,702.8214276177542,1042.5,709.0714133126395,740.3214276177542,1145.8,716.5714133126395,751.5714276177542,1245.8,752.8214133126395,772.8214276177542,1352.3,761.5714133126395,776.5714276177542,1454.3,761.5714133126395,776.5714276177542,1554.4,761.5714133126395,776.5714276177542,1658,761.5714133126395,776.5714276177542,1768.1,761.5714133126395,776.5714276177542,1873.6,761.5714133126395,776.5714276177542,1986,761.5714133126395,776.5714276177542,2090.3,761.5714133126395,776.5714276177542,2192.3,761.5714133126395,776.5714276177542,2292.6,761.5714133126395,776.5714276177542,2394.5,761.5714133126395,776.5714276177542,2498.6,761.5714133126395,776.5714276177542,2603.1,761.5714133126395,776.5714276177542,2709.7,761.5714133126395,776.5714276177542,2817.4,761.5714133126395,776.5714276177542,2919,761.5714133126395,776.5714276177542,3025.1,761.5714133126395,776.5714276177542,3134,761.5714133126395,776.5714276177542,3234.5,761.5714133126395,776.5714276177542,3344.4,761.5714133126395,776.5714276177542,3447.9,761.5714133126395,776.5714276177542,3553.4,761.5714133126395,776.5714276177542,3663.6,761.5714133126395,776.5714276177542,3774.5,761.5714133126395,776.5714276177542,3875.4,761.5714133126395,776.5714276177542,3978.1,761.5714133126395,776.5714276177542,4083.6,761.5714133126395,776.5714276177542,4188.5,761.5714133126395,776.5714276177542,4292.2,761.5714133126395,776.5714276177542,4395.2,761.5714133126395,776.5714276177542,4504.1,761.5714133126395,776.5714276177542,4604.5,761.5714133126395,776.5714276177542,4708.5,761.5714133126395,776.5714276177542,4816.5,761.5714133126395,776.5714276177542,4918.8]","[1407.9,1407.9,1000,0,407.9,""oops"",""down"",""right"",""good_move"",4163.1,2754.7,2343,1408.4,411.7,""smooth"",""down"",""down"",""good_move"",6804.5,2640.9,2228.7,4163.7,412.1,""oops"",""down"",""left"",""bad_move"",9264,2458.6,1993.3,6805.4,465.3,""smooth"",""down"",""down"",""good_move"",11747.3,2483,2162,9264.3,321,""oops"",""right"",""left"",""bad_move"",14517,2769.4,2375.2,11747.6,394.2,""oops"",""left"",""up"",""bad_move"",17463.3,2945.5,2373.1,14517.8,572.4,""oops"",""down"",""up"",""bad_move"",19959.7,2496.1,2180.2,17463.6,315.9,""smooth"",""down"",""down"",""good_move"",22642.6,2682.6,2368.7,19960,313.9,""oops"",""down"",""down"",""good_move"",30200.5,7557.5,3087,26669.3,444.2,""oops"",""down"",""down"",""good_move""]","",""
"3621","","<div style=""width:500px;"">
  <p>What determined the result of this run?</p>
  </div>","36","html-slider-response","45","604400","0.0-5.0-1.7","131","1","2025-07-17 23:53:17","1f75c3e559b7213887762d5229550c2b","102.182.169.207","Mozilla/5.0 (Windows NT 10.0; Win64; x64) AppleWebKit/537.36 (KHTML, like Gecko) Chrome/138.0.0.0 Safari/537.36","WebKit","Chrome","138.0.0.0","Windows","10.0","https://app.prolific.com/","en-ZA,en-GB;q=0.9,en-US;q=0.8,en;q=0.7","61248a51eefb6797024ecb85","68764874ac79eee8c1d4cb03","68798ce8d6d02a946f9a1d30","2","0","61248a51eefb6797024ecb85","2","0","2025-07-18T00:03:24.330Z","","","","","","","","","","","AttribQ","","50","","","","","","","","","","","","","","","","","","","","","","","","","","","","",""
"2468","","<div style=""width:500px;"">
  <p>How much control did you have over the ball?</p>
  </div>","62","html-slider-response","46","606868","0.0-5.0-2.7","131","1","2025-07-17 23:53:17","1f75c3e559b7213887762d5229550c2b","102.182.169.207","Mozilla/5.0 (Windows NT 10.0; Win64; x64) AppleWebKit/537.36 (KHTML, like Gecko) Chrome/138.0.0.0 Safari/537.36","WebKit","Chrome","138.0.0.0","Windows","10.0","https://app.prolific.com/","en-ZA,en-GB;q=0.9,en-US;q=0.8,en;q=0.7","61248a51eefb6797024ecb85","68764874ac79eee8c1d4cb03","68798ce8d6d02a946f9a1d30","2","0","61248a51eefb6797024ecb85","2","0","2025-07-18T00:03:26.799Z","","","","","","","","","","","ControlQ","","50","","","","","","","","","","","","","","","","","","","","","","","","","","","","",""
"2587","","<div style=""width:500px;"">
  <p>How would you describe your current emotional state?</p>
  </div>","62","html-slider-response","47","609456","0.0-5.0-3.7","131","1","2025-07-17 23:53:17","1f75c3e559b7213887762d5229550c2b","102.182.169.207","Mozilla/5.0 (Windows NT 10.0; Win64; x64) AppleWebKit/537.36 (KHTML, like Gecko) Chrome/138.0.0.0 Safari/537.36","WebKit","Chrome","138.0.0.0","Windows","10.0","https://app.prolific.com/","en-ZA,en-GB;q=0.9,en-US;q=0.8,en;q=0.7","61248a51eefb6797024ecb85","68764874ac79eee8c1d4cb03","68798ce8d6d02a946f9a1d30","2","0","61248a51eefb6797024ecb85","2","0","2025-07-18T00:03:29.386Z","","","","","","","","","","","StressQ","","50","","","","","","","","","","","","","","","","","","","","","","","","","","","","",""
"1728","","<div style=""width:500px;"">
  <p>What best describes how you currently feel?</p>
  </div>","59","html-slider-response","48","611186","0.0-5.0-4.7","131","1","2025-07-17 23:53:17","1f75c3e559b7213887762d5229550c2b","102.182.169.207","Mozilla/5.0 (Windows NT 10.0; Win64; x64) AppleWebKit/537.36 (KHTML, like Gecko) Chrome/138.0.0.0 Safari/537.36","WebKit","Chrome","138.0.0.0","Windows","10.0","https://app.prolific.com/","en-ZA,en-GB;q=0.9,en-US;q=0.8,en;q=0.7","61248a51eefb6797024ecb85","68764874ac79eee8c1d4cb03","68798ce8d6d02a946f9a1d30","2","0","61248a51eefb6797024ecb85","2","0","2025-07-18T00:03:31.116Z","","","","","","","","","","","MotivationQ","","50","","","","","","","","","","","","","","","","","","","","","","","","","","","","",""
"","","","","ctl-task-cpt","49","647431","0.0-5.0-0.8","131","1","2025-07-17 23:53:17","1f75c3e559b7213887762d5229550c2b","102.182.169.207","Mozilla/5.0 (Windows NT 10.0; Win64; x64) AppleWebKit/537.36 (KHTML, like Gecko) Chrome/138.0.0.0 Safari/537.36","WebKit","Chrome","138.0.0.0","Windows","10.0","https://app.prolific.com/","en-ZA,en-GB;q=0.9,en-US;q=0.8,en;q=0.7","61248a51eefb6797024ecb85","68764874ac79eee8c1d4cb03","68798ce8d6d02a946f9a1d30","2","0","61248a51eefb6797024ecb85","2","0","2025-07-18T00:04:07.361Z","","","","","","","","","","","","","","win-only","0","g1:NW,g2:SE","0.2","9","0","614500.1","1279.6","6285.4","33232.3","1","4","4","6","2","-4","-4","19","23","0.14393939393939395","1634.9","3000","-2200","[""down"",""right""]","{""num_key_presses"":7,""num_perfect"":0,""num_errors"":0,""num_randdir"":7,""num_randdir_good_moves"":2,""num_whilered"":0,""num_whileblue"":0,""num_blue"":1,""num_good_moves"":2}","[412.8214133126395,406.57142761775424,0.2,412.8214133126395,406.57142761775424,109.1,412.8214133126395,406.57142761775424,212.6,412.8214133126395,406.57142761775424,319.2,406.5714133126395,406.57142761775424,419.7,381.5714133126395,381.57142761775424,524.4,376.5714133126395,362.82142761775424,635.3,476.5714133126395,426.57142761775424,743.2,626.5714133126395,622.8214276177542,849,687.8214133126395,730.3214276177542,950.8,741.5714133126395,811.5714276177542,1051.4,791.5714133126395,847.8214276177542,1159,796.5714133126395,844.0714276177542,1268.6,796.5714133126395,844.0714276177542,1373,791.5714133126395,820.3214276177542,1480.8,772.8214133126395,759.0714276177542,1585.4,772.8214133126395,759.0714276177542,1690.9,772.8214133126395,759.0714276177542,1799.3,772.8214133126395,759.0714276177542,1907.1,772.8214133126395,759.0714276177542,2007.3,772.8214133126395,759.0714276177542,2107.6,772.8214133126395,759.0714276177542,2213.6,772.8214133126395,759.0714276177542,2314.1,772.8214133126395,759.0714276177542,2421.3,772.8214133126395,759.0714276177542,2523.8,772.8214133126395,759.0714276177542,2625.6,772.8214133126395,759.0714276177542,2728,772.8214133126395,759.0714276177542,2829.2,772.8214133126395,759.0714276177542,2930.1,772.8214133126395,759.0714276177542,3030.1,772.8214133126395,759.0714276177542,3132.5,772.8214133126395,759.0714276177542,3237.9,772.8214133126395,759.0714276177542,3341.1,772.8214133126395,759.0714276177542,3441.8,772.8214133126395,759.0714276177542,3551.1,772.8214133126395,759.0714276177542,3655.8,772.8214133126395,759.0714276177542,3756.7,772.8214133126395,759.0714276177542,3864.3,772.8214133126395,759.0714276177542,3969.3,772.8214133126395,759.0714276177542,4072.2,772.8214133126395,759.0714276177542,4172.6,772.8214133126395,759.0714276177542,4276.6,772.8214133126395,759.0714276177542,4379.1,772.8214133126395,759.0714276177542,4481.7,772.8214133126395,759.0714276177542,4585.5,772.8214133126395,759.0714276177542,4687.9,772.8214133126395,759.0714276177542,4789,772.8214133126395,759.0714276177542,4889.3,772.8214133126395,759.0714276177542,4989.5]","[1436,1436,1000,0,436,""oops"",""down"",""left"",""bad_move"",4838,3401.2,2957.1,1436.8,444.2,""oops"",""down"",""up"",""bad_move"",7963.4,3124.4,2779.5,4839.1,344.8,""oops"",""down"",""up"",""bad_move"",10600.7,2636.9,2280.9,7963.9,356,""oops"",""right"",""right"",""good_move"",13461.8,2860.6,2520.9,10601.2,339.7,""oops"",""right"",""down"",""good_move"",16746.6,3284.2,2977.4,13462.4,306.8,""oops"",""right"",""left"",""bad_move"",19395.8,2648.2,1970.1,16747.6,678.1,""oops"",""down"",""left"",""bad_move""]","",""
"5057","","<div style=""width:500px;"">
  <p>What determined the result of this run?</p>
  </div>","15","html-slider-response","50","652489","0.0-5.0-1.8","131","1","2025-07-17 23:53:17","1f75c3e559b7213887762d5229550c2b","102.182.169.207","Mozilla/5.0 (Windows NT 10.0; Win64; x64) AppleWebKit/537.36 (KHTML, like Gecko) Chrome/138.0.0.0 Safari/537.36","WebKit","Chrome","138.0.0.0","Windows","10.0","https://app.prolific.com/","en-ZA,en-GB;q=0.9,en-US;q=0.8,en;q=0.7","61248a51eefb6797024ecb85","68764874ac79eee8c1d4cb03","68798ce8d6d02a946f9a1d30","2","0","61248a51eefb6797024ecb85","2","0","2025-07-18T00:04:12.419Z","","","","","","","","","","","AttribQ","","50","","","","","","","","","","","","","","","","","","","","","","","","","","","","",""
"2778","","<div style=""width:500px;"">
  <p>How much control did you have over the ball?</p>
  </div>","0","html-slider-response","51","655269","0.0-5.0-2.8","131","1","2025-07-17 23:53:17","1f75c3e559b7213887762d5229550c2b","102.182.169.207","Mozilla/5.0 (Windows NT 10.0; Win64; x64) AppleWebKit/537.36 (KHTML, like Gecko) Chrome/138.0.0.0 Safari/537.36","WebKit","Chrome","138.0.0.0","Windows","10.0","https://app.prolific.com/","en-ZA,en-GB;q=0.9,en-US;q=0.8,en;q=0.7","61248a51eefb6797024ecb85","68764874ac79eee8c1d4cb03","68798ce8d6d02a946f9a1d30","2","0","61248a51eefb6797024ecb85","2","0","2025-07-18T00:04:15.199Z","","","","","","","","","","","ControlQ","","50","","","","","","","","","","","","","","","","","","","","","","","","","","","","",""
"2498","","<div style=""width:500px;"">
  <p>How would you describe your current emotional state?</p>
  </div>","70","html-slider-response","52","657769","0.0-5.0-3.8","131","1","2025-07-17 23:53:17","1f75c3e559b7213887762d5229550c2b","102.182.169.207","Mozilla/5.0 (Windows NT 10.0; Win64; x64) AppleWebKit/537.36 (KHTML, like Gecko) Chrome/138.0.0.0 Safari/537.36","WebKit","Chrome","138.0.0.0","Windows","10.0","https://app.prolific.com/","en-ZA,en-GB;q=0.9,en-US;q=0.8,en;q=0.7","61248a51eefb6797024ecb85","68764874ac79eee8c1d4cb03","68798ce8d6d02a946f9a1d30","2","0","61248a51eefb6797024ecb85","2","0","2025-07-18T00:04:17.700Z","","","","","","","","","","","StressQ","","50","","","","","","","","","","","","","","","","","","","","","","","","","","","","",""
"2751","","<div style=""width:500px;"">
  <p>What best describes how you currently feel?</p>
  </div>","32","html-slider-response","53","660524","0.0-5.0-4.8","131","1","2025-07-17 23:53:17","1f75c3e559b7213887762d5229550c2b","102.182.169.207","Mozilla/5.0 (Windows NT 10.0; Win64; x64) AppleWebKit/537.36 (KHTML, like Gecko) Chrome/138.0.0.0 Safari/537.36","WebKit","Chrome","138.0.0.0","Windows","10.0","https://app.prolific.com/","en-ZA,en-GB;q=0.9,en-US;q=0.8,en;q=0.7","61248a51eefb6797024ecb85","68764874ac79eee8c1d4cb03","68798ce8d6d02a946f9a1d30","2","0","61248a51eefb6797024ecb85","2","0","2025-07-18T00:04:20.454Z","","","","","","","","","","","MotivationQ","","50","","","","","","","","","","","","","","","","","","","","","","","","","","","","",""
"","","","","ctl-task-cpt","54","696562","0.0-5.0-0.9","131","1","2025-07-17 23:53:17","1f75c3e559b7213887762d5229550c2b","102.182.169.207","Mozilla/5.0 (Windows NT 10.0; Win64; x64) AppleWebKit/537.36 (KHTML, like Gecko) Chrome/138.0.0.0 Safari/537.36","WebKit","Chrome","138.0.0.0","Windows","10.0","https://app.prolific.com/","en-ZA,en-GB;q=0.9,en-US;q=0.8,en;q=0.7","61248a51eefb6797024ecb85","68764874ac79eee8c1d4cb03","68798ce8d6d02a946f9a1d30","2","0","61248a51eefb6797024ecb85","2","0","2025-07-18T00:04:56.492Z","","","","","","","","","","","","","","win-only","1","g1:NE,g2:SW","0.4","10","0","663839.7","1536","6538.3","33027.3","1","4","8","6","1","1","1","20","19","0.15151515151515152","1977.3","3000","1010","[""up"",""right""]","{""num_key_presses"":6,""num_perfect"":4,""num_errors"":0,""num_randdir"":2,""num_randdir_good_moves"":1,""num_whilered"":0,""num_whileblue"":0,""num_blue"":3,""num_good_moves"":5}","[429.0714133126395,415.32142761775424,0.2,429.0714133126395,415.32142761775424,116.1,429.0714133126395,415.32142761775424,216.6,429.0714133126395,415.32142761775424,323.9,429.0714133126395,415.32142761775424,425.7,429.0714133126395,415.32142761775424,534.5,429.0714133126395,415.32142761775424,640.2,442.8214133126395,406.57142761775424,741,466.5714133126395,392.82142761775424,842.1,492.8214133126395,372.82142761775424,950.9,526.5714133126395,326.57142761775424,1064.4,532.8214133126395,311.57142761775424,1174.6,501.5714133126395,331.57142761775424,1290.3,516.5714133126395,317.82142761775424,1394.2,674.0714133126395,182.82142761775424,1497.7,756.5714133126395,117.82142761775425,1600.4,765.3214133126395,111.57142761775425,1701.3,781.5714133126395,101.57142761775425,1812.1,781.5714133126395,101.57142761775425,1917,784.0714133126395,101.57142761775425,2021.9,784.0714133126395,101.57142761775425,2126.4,784.0714133126395,101.57142761775425,2229.2,784.0714133126395,101.57142761775425,2331,784.0714133126395,101.57142761775425,2437.1,784.0714133126395,101.57142761775425,2537.5,784.0714133126395,101.57142761775425,2640.6,784.0714133126395,101.57142761775425,2740.7,784.0714133126395,101.57142761775425,2846.3,784.0714133126395,101.57142761775425,2953.8,784.0714133126395,101.57142761775425,3062.1,784.0714133126395,101.57142761775425,3164.6,784.0714133126395,101.57142761775425,3271.6,784.0714133126395,101.57142761775425,3374.8,784.0714133126395,101.57142761775425,3477.1,784.0714133126395,101.57142761775425,3580.8,784.0714133126395,101.57142761775425,3680.9,784.0714133126395,101.57142761775425,3786.6,784.0714133126395,101.57142761775425,3891.6,784.0714133126395,101.57142761775425,3992,784.0714133126395,101.57142761775425,4099,784.0714133126395,101.57142761775425,4200.1,784.0714133126395,101.57142761775425,4307.3,784.0714133126395,101.57142761775425,4410.1,784.0714133126395,101.57142761775425,4512.7,784.0714133126395,101.57142761775425,4612.8,784.0714133126395,101.57142761775425,4720.1,784.0714133126395,101.57142761775425,4821.8,784.0714133126395,101.57142761775425,4928.4]","[1338.4,1338.4,1000,0,338.4,""smooth"",""up"",""up"",""good_move"",5137.7,3798.6,3397.7,1339.1,400.9,""smooth"",""up"",""up"",""good_move"",11107.3,5969.3,2518.4,8151.1,437.8,""smooth"",""right"",""right"",""good_move"",13798.2,2690.4,2176.9,11107.8,513.5,""oops"",""right"",""down"",""bad_move"",23483.6,9685,1729.3,21235,519.3,""oops"",""right"",""right"",""good_move"",26349.4,2865.4,2342.5,23484,522.9,""smooth"",""up"",""up"",""good_move""]","",""
"48972","","<div style=""width:500px;"">
  <p>What determined the result of this run?</p>
  </div>","28","html-slider-response","55","745537","0.0-5.0-1.9","131","1","2025-07-17 23:53:17","1f75c3e559b7213887762d5229550c2b","102.182.169.207","Mozilla/5.0 (Windows NT 10.0; Win64; x64) AppleWebKit/537.36 (KHTML, like Gecko) Chrome/138.0.0.0 Safari/537.36","WebKit","Chrome","138.0.0.0","Windows","10.0","https://app.prolific.com/","en-ZA,en-GB;q=0.9,en-US;q=0.8,en;q=0.7","61248a51eefb6797024ecb85","68764874ac79eee8c1d4cb03","68798ce8d6d02a946f9a1d30","2","0","61248a51eefb6797024ecb85","2","0","2025-07-18T00:05:45.467Z","","","","","","","","","","","AttribQ","","50","","","","","","","","","","","","","","","","","","","","","","","","","","","","",""
"2126","","<div style=""width:500px;"">
  <p>How much control did you have over the ball?</p>
  </div>","35","html-slider-response","56","747666","0.0-5.0-2.9","131","1","2025-07-17 23:53:17","1f75c3e559b7213887762d5229550c2b","102.182.169.207","Mozilla/5.0 (Windows NT 10.0; Win64; x64) AppleWebKit/537.36 (KHTML, like Gecko) Chrome/138.0.0.0 Safari/537.36","WebKit","Chrome","138.0.0.0","Windows","10.0","https://app.prolific.com/","en-ZA,en-GB;q=0.9,en-US;q=0.8,en;q=0.7","61248a51eefb6797024ecb85","68764874ac79eee8c1d4cb03","68798ce8d6d02a946f9a1d30","2","0","61248a51eefb6797024ecb85","2","0","2025-07-18T00:05:47.596Z","","","","","","","","","","","ControlQ","","50","","","","","","","","","","","","","","","","","","","","","","","","","","","","",""
"2682","","<div style=""width:500px;"">
  <p>How would you describe your current emotional state?</p>
  </div>","65","html-slider-response","57","750349","0.0-5.0-3.9","131","1","2025-07-17 23:53:17","1f75c3e559b7213887762d5229550c2b","102.182.169.207","Mozilla/5.0 (Windows NT 10.0; Win64; x64) AppleWebKit/537.36 (KHTML, like Gecko) Chrome/138.0.0.0 Safari/537.36","WebKit","Chrome","138.0.0.0","Windows","10.0","https://app.prolific.com/","en-ZA,en-GB;q=0.9,en-US;q=0.8,en;q=0.7","61248a51eefb6797024ecb85","68764874ac79eee8c1d4cb03","68798ce8d6d02a946f9a1d30","2","0","61248a51eefb6797024ecb85","2","0","2025-07-18T00:05:50.279Z","","","","","","","","","","","StressQ","","50","","","","","","","","","","","","","","","","","","","","","","","","","","","","",""
"178693","","<div style=""width:500px;"">
  <p>What best describes how you currently feel?</p>
  </div>","63","html-slider-response","58","929043","0.0-5.0-4.9","131","1","2025-07-17 23:53:17","1f75c3e559b7213887762d5229550c2b","102.182.169.207","Mozilla/5.0 (Windows NT 10.0; Win64; x64) AppleWebKit/537.36 (KHTML, like Gecko) Chrome/138.0.0.0 Safari/537.36","WebKit","Chrome","138.0.0.0","Windows","10.0","https://app.prolific.com/","en-ZA,en-GB;q=0.9,en-US;q=0.8,en;q=0.7","61248a51eefb6797024ecb85","68764874ac79eee8c1d4cb03","68798ce8d6d02a946f9a1d30","2","0","61248a51eefb6797024ecb85","2","0","2025-07-18T00:08:48.973Z","","","","","","","","","","","MotivationQ","","50","","","","","","","","","","","","","","","","","","","","","","","","","","","","",""
"","","","","ctl-task-cpt","59","975424","0.0-5.0-0.10","131","1","2025-07-17 23:53:17","1f75c3e559b7213887762d5229550c2b","102.182.169.207","Mozilla/5.0 (Windows NT 10.0; Win64; x64) AppleWebKit/537.36 (KHTML, like Gecko) Chrome/138.0.0.0 Safari/537.36","WebKit","Chrome","138.0.0.0","Windows","10.0","https://app.prolific.com/","en-ZA,en-GB;q=0.9,en-US;q=0.8,en;q=0.7","61248a51eefb6797024ecb85","68764874ac79eee8c1d4cb03","68798ce8d6d02a946f9a1d30","2","0","61248a51eefb6797024ecb85","2","0","2025-07-18T00:09:35.354Z","","","","","","","","","","","","","","win-only","1","g1:NE,g2:SW","0.5","11","0","932358.7","4540.6","9542.9","43355.4","1","4","4","6","2","-4","-4","16","20","0.12121212121212122","1955.8","3000","-1970","[""down"",""left""]","{""num_key_presses"":9,""num_perfect"":5,""num_errors"":0,""num_randdir"":4,""num_randdir_good_moves"":1,""num_whilered"":0,""num_whileblue"":0,""num_blue"":2,""num_good_moves"":6}","[416.5714133126395,417.82142761775424,0.4,416.5714133126395,417.82142761775424,106.3,416.5714133126395,417.82142761775424,213.6,416.5714133126395,417.82142761775424,327.3,416.5714133126395,417.82142761775424,435.1,416.5714133126395,417.82142761775424,535.1,436.5714133126395,396.57142761775424,636.6,487.8214133126395,344.07142761775424,740.1,490.3214133126395,342.82142761775424,842.8,456.5714133126395,385.32142761775424,956.7,371.5714133126395,470.32142761775424,1057.6,252.8214133126395,606.5714276177542,1174.1,149.0714133126395,680.3214276177542,1275.8,31.571413312639507,729.0714276177542,1378.4,-8.428586687360493,751.5714276177542,1480.4,5.321413312639507,751.5714276177542,1586.1,14.071413312639507,752.8214276177542,1686.6,14.071413312639507,752.8214276177542,1789.1,20.321413312639507,752.8214276177542,1892.4,30.321413312639507,752.8214276177542,1993.6,30.321413312639507,752.8214276177542,2097,30.321413312639507,752.8214276177542,2199,30.321413312639507,752.8214276177542,2304.2,30.321413312639507,752.8214276177542,2411.2,30.321413312639507,752.8214276177542,2511.7,30.321413312639507,752.8214276177542,2617.8,30.321413312639507,752.8214276177542,2718.1,30.321413312639507,752.8214276177542,2819.3,30.321413312639507,752.8214276177542,2921.7,30.321413312639507,752.8214276177542,3025,30.321413312639507,752.8214276177542,3133.6,30.321413312639507,752.8214276177542,3238.7,30.321413312639507,752.8214276177542,3340.4,30.321413312639507,752.8214276177542,3450.6,30.321413312639507,752.8214276177542,3551.5,30.321413312639507,752.8214276177542,3656.2,30.321413312639507,752.8214276177542,3757.5,30.321413312639507,752.8214276177542,3861.7,30.321413312639507,752.8214276177542,3967.3,30.321413312639507,752.8214276177542,4068.2,30.321413312639507,752.8214276177542,4173.9,30.321413312639507,752.8214276177542,4276.1,30.321413312639507,752.8214276177542,4384.7,30.321413312639507,752.8214276177542,4487.4,30.321413312639507,752.8214276177542,4591.5,30.321413312639507,752.8214276177542,4694.9,30.321413312639507,752.8214276177542,4801,30.321413312639507,752.8214276177542,4907.8]","[1448.8,1448.8,1000,0,448.8,""oops"",""down"",""right"",""bad_move"",7956.5,6507.1,2515.3,4985,456.2,""smooth"",""left"",""left"",""good_move"",10461.6,2504.3,2020.8,7957.3,483.5,""oops"",""left"",""right"",""bad_move"",17227.7,6765.7,2986,13694.3,547.4,""smooth"",""down"",""down"",""good_move"",20062.6,2834.5,2142.6,17228.1,691.9,""smooth"",""down"",""down"",""good_move"",23075.8,3012.9,2392.2,20062.9,620.7,""oops"",""left"",""left"",""good_move"",25402.1,2325.8,1905.9,23076.4,419.8,""smooth"",""left"",""left"",""good_move"",28377.9,2975.3,2459.8,25402.6,515.5,""smooth"",""left"",""left"",""good_move"",31436.5,3058.4,2697.5,28378.1,360.9,""oops"",""left"",""up"",""bad_move""]","",""
"20512","","<div style=""width:500px;"">
  <p>What determined the result of this run?</p>
  </div>","33","html-slider-response","60","995937","0.0-5.0-1.10","131","1","2025-07-17 23:53:17","1f75c3e559b7213887762d5229550c2b","102.182.169.207","Mozilla/5.0 (Windows NT 10.0; Win64; x64) AppleWebKit/537.36 (KHTML, like Gecko) Chrome/138.0.0.0 Safari/537.36","WebKit","Chrome","138.0.0.0","Windows","10.0","https://app.prolific.com/","en-ZA,en-GB;q=0.9,en-US;q=0.8,en;q=0.7","61248a51eefb6797024ecb85","68764874ac79eee8c1d4cb03","68798ce8d6d02a946f9a1d30","2","0","61248a51eefb6797024ecb85","2","0","2025-07-18T00:09:55.867Z","","","","","","","","","","","AttribQ","","50","","","","","","","","","","","","","","","","","","","","","","","","","","","","",""
"87098","","<div style=""width:500px;"">
  <p>How much control did you have over the ball?</p>
  </div>","37","html-slider-response","61","1083037","0.0-5.0-2.10","131","1","2025-07-17 23:53:17","1f75c3e559b7213887762d5229550c2b","102.182.169.207","Mozilla/5.0 (Windows NT 10.0; Win64; x64) AppleWebKit/537.36 (KHTML, like Gecko) Chrome/138.0.0.0 Safari/537.36","WebKit","Chrome","138.0.0.0","Windows","10.0","https://app.prolific.com/","en-ZA,en-GB;q=0.9,en-US;q=0.8,en;q=0.7","61248a51eefb6797024ecb85","68764874ac79eee8c1d4cb03","68798ce8d6d02a946f9a1d30","2","0","61248a51eefb6797024ecb85","2","0","2025-07-18T00:11:22.967Z","","","","","","","","","","","ControlQ","","50","","","","","","","","","","","","","","","","","","","","","","","","","","","","",""
"4196","","<div style=""width:500px;"">
  <p>How would you describe your current emotional state?</p>
  </div>","41","html-slider-response","62","1087235","0.0-5.0-3.10","131","1","2025-07-17 23:53:17","1f75c3e559b7213887762d5229550c2b","102.182.169.207","Mozilla/5.0 (Windows NT 10.0; Win64; x64) AppleWebKit/537.36 (KHTML, like Gecko) Chrome/138.0.0.0 Safari/537.36","WebKit","Chrome","138.0.0.0","Windows","10.0","https://app.prolific.com/","en-ZA,en-GB;q=0.9,en-US;q=0.8,en;q=0.7","61248a51eefb6797024ecb85","68764874ac79eee8c1d4cb03","68798ce8d6d02a946f9a1d30","2","0","61248a51eefb6797024ecb85","2","0","2025-07-18T00:11:27.165Z","","","","","","","","","","","StressQ","","50","","","","","","","","","","","","","","","","","","","","","","","","","","","","",""
"36270","","<div style=""width:500px;"">
  <p>What best describes how you currently feel?</p>
  </div>","37","html-slider-response","63","1123506","0.0-5.0-4.10","131","1","2025-07-17 23:53:17","1f75c3e559b7213887762d5229550c2b","102.182.169.207","Mozilla/5.0 (Windows NT 10.0; Win64; x64) AppleWebKit/537.36 (KHTML, like Gecko) Chrome/138.0.0.0 Safari/537.36","WebKit","Chrome","138.0.0.0","Windows","10.0","https://app.prolific.com/","en-ZA,en-GB;q=0.9,en-US;q=0.8,en;q=0.7","61248a51eefb6797024ecb85","68764874ac79eee8c1d4cb03","68798ce8d6d02a946f9a1d30","2","0","61248a51eefb6797024ecb85","2","0","2025-07-18T00:12:03.437Z","","","","","","","","","","","MotivationQ","","50","","","","","","","","","","","","","","","","","","","","","","","","","","","","",""
"","","","","ctl-task-cpt","64","1167861","0.0-5.0-0.11","131","1","2025-07-17 23:53:17","1f75c3e559b7213887762d5229550c2b","102.182.169.207","Mozilla/5.0 (Windows NT 10.0; Win64; x64) AppleWebKit/537.36 (KHTML, like Gecko) Chrome/138.0.0.0 Safari/537.36","WebKit","Chrome","138.0.0.0","Windows","10.0","https://app.prolific.com/","en-ZA,en-GB;q=0.9,en-US;q=0.8,en;q=0.7","61248a51eefb6797024ecb85","68764874ac79eee8c1d4cb03","68798ce8d6d02a946f9a1d30","2","0","61248a51eefb6797024ecb85","2","0","2025-07-18T00:12:47.791Z","","","","","","","","","","","","","","win-only","0","g1:NW,g2:SE","0.6","12","0","1126820.9","1697.8","6702.2","41331.3","1","4","8","6","2","8","7","23","16","0.17424242424242425","1686.6","3000","650","[""down"",""right""]","{""num_key_presses"":9,""num_perfect"":6,""num_errors"":1,""num_randdir"":2,""num_randdir_good_moves"":1,""num_whilered"":0,""num_whileblue"":0,""num_blue"":3,""num_good_moves"":7}","[415.3214133126395,420.32142761775424,0.4,415.3214133126395,420.32142761775424,104.9,415.3214133126395,420.32142761775424,206.9,415.3214133126395,420.32142761775424,315.9,416.5714133126395,417.82142761775424,418.3,407.8214133126395,407.82142761775424,524.3,350.3214133126395,364.07142761775424,628.5,321.5714133126395,322.82142761775424,738.7,385.3214133126395,347.82142761775424,839,571.5714133126395,467.82142761775424,948.1,696.5714133126395,606.5714276177542,1049.6,802.8214133126395,671.5714276177542,1150,801.5714133126395,679.0714276177542,1265.1,800.3214133126395,700.3214276177542,1366.8,799.0714133126395,720.3214276177542,1469.3,780.3214133126395,742.8214276177542,1569.4,772.8214133126395,747.8214276177542,1674.6,774.0714133126395,747.8214276177542,1784.5,774.0714133126395,747.8214276177542,1885.1,781.5714133126395,745.3214276177542,1986.9,905.3214133126395,681.5714276177542,2089.8,1061.5714133126396,571.5714276177542,2194.9,1061.5714133126396,571.5714276177542,2300.6,1061.5714133126396,571.5714276177542,2403.7,1061.5714133126396,571.5714276177542,2506.6,1061.5714133126396,571.5714276177542,2612,1061.5714133126396,571.5714276177542,2714.5,1061.5714133126396,571.5714276177542,2815.7,1061.5714133126396,571.5714276177542,2922.1,1061.5714133126396,571.5714276177542,3030,1061.5714133126396,571.5714276177542,3140.6,1061.5714133126396,571.5714276177542,3243.2,1061.5714133126396,571.5714276177542,3347.4,1061.5714133126396,571.5714276177542,3453.8,1061.5714133126396,571.5714276177542,3557.1,1061.5714133126396,571.5714276177542,3658.8,1061.5714133126396,571.5714276177542,3774.5,1061.5714133126396,571.5714276177542,3876.8,1061.5714133126396,571.5714276177542,3979.9,1061.5714133126396,571.5714276177542,4082.9,1061.5714133126396,571.5714276177542,4185.6,1061.5714133126396,571.5714276177542,4288.9,1061.5714133126396,571.5714276177542,4389.6,1061.5714133126396,571.5714276177542,4494.8,1061.5714133126396,571.5714276177542,4599.9,1061.5714133126396,571.5714276177542,4704.2,1061.5714133126396,571.5714276177542,4812.1,1061.5714133126396,571.5714276177542,4913.1]","[1490.4,1490.4,1000,0,490.4,""smooth"",""down"",""down"",""good_move"",8121.3,6630.4,2463.5,5248.1,409.7,""smooth"",""down"",""down"",""good_move"",13922.3,5800.6,1949.4,11463.3,509.6,""oops"",""down"",""left"",""bad_move"",16775.7,2852.8,2422.3,13922.9,430.5,""smooth"",""down"",""down"",""good_move"",24602.5,7826.3,3278.5,20857.9,466.1,""smooth"",""right"",""right"",""good_move"",24774.6,171.2,2666.3,24603.4,-2495.1,""error"",""-"",""-"",""no_move"",28332.3,3557.3,2039.8,25776.2,516.3,""smooth"",""right"",""right"",""good_move"",31469.5,3136.9,2682.1,28332.6,454.8,""smooth"",""right"",""right"",""good_move"",34489.2,3019.2,2561.1,31470,458.1,""oops"",""right"",""right"",""good_move""]","",""
"5141","","<div style=""width:500px;"">
  <p>What determined the result of this run?</p>
  </div>","21","html-slider-response","65","1173003","0.0-5.0-1.11","131","1","2025-07-17 23:53:17","1f75c3e559b7213887762d5229550c2b","102.182.169.207","Mozilla/5.0 (Windows NT 10.0; Win64; x64) AppleWebKit/537.36 (KHTML, like Gecko) Chrome/138.0.0.0 Safari/537.36","WebKit","Chrome","138.0.0.0","Windows","10.0","https://app.prolific.com/","en-ZA,en-GB;q=0.9,en-US;q=0.8,en;q=0.7","61248a51eefb6797024ecb85","68764874ac79eee8c1d4cb03","68798ce8d6d02a946f9a1d30","2","0","61248a51eefb6797024ecb85","2","0","2025-07-18T00:12:52.934Z","","","","","","","","","","","AttribQ","","50","","","","","","","","","","","","","","","","","","","","","","","","","","","","",""
"5343","","<div style=""width:500px;"">
  <p>How much control did you have over the ball?</p>
  </div>","22","html-slider-response","66","1178348","0.0-5.0-2.11","131","1","2025-07-17 23:53:17","1f75c3e559b7213887762d5229550c2b","102.182.169.207","Mozilla/5.0 (Windows NT 10.0; Win64; x64) AppleWebKit/537.36 (KHTML, like Gecko) Chrome/138.0.0.0 Safari/537.36","WebKit","Chrome","138.0.0.0","Windows","10.0","https://app.prolific.com/","en-ZA,en-GB;q=0.9,en-US;q=0.8,en;q=0.7","61248a51eefb6797024ecb85","68764874ac79eee8c1d4cb03","68798ce8d6d02a946f9a1d30","2","0","61248a51eefb6797024ecb85","2","0","2025-07-18T00:12:58.278Z","","","","","","","","","","","ControlQ","","50","","","","","","","","","","","","","","","","","","","","","","","","","","","","",""
"3434","","<div style=""width:500px;"">
  <p>How would you describe your current emotional state?</p>
  </div>","35","html-slider-response","67","1181783","0.0-5.0-3.11","131","1","2025-07-17 23:53:17","1f75c3e559b7213887762d5229550c2b","102.182.169.207","Mozilla/5.0 (Windows NT 10.0; Win64; x64) AppleWebKit/537.36 (KHTML, like Gecko) Chrome/138.0.0.0 Safari/537.36","WebKit","Chrome","138.0.0.0","Windows","10.0","https://app.prolific.com/","en-ZA,en-GB;q=0.9,en-US;q=0.8,en;q=0.7","61248a51eefb6797024ecb85","68764874ac79eee8c1d4cb03","68798ce8d6d02a946f9a1d30","2","0","61248a51eefb6797024ecb85","2","0","2025-07-18T00:13:01.713Z","","","","","","","","","","","StressQ","","50","","","","","","","","","","","","","","","","","","","","","","","","","","","","",""
"21736","","<div style=""width:500px;"">
  <p>What best describes how you currently feel?</p>
  </div>","34","html-slider-response","68","1203521","0.0-5.0-4.11","131","1","2025-07-17 23:53:17","1f75c3e559b7213887762d5229550c2b","102.182.169.207","Mozilla/5.0 (Windows NT 10.0; Win64; x64) AppleWebKit/537.36 (KHTML, like Gecko) Chrome/138.0.0.0 Safari/537.36","WebKit","Chrome","138.0.0.0","Windows","10.0","https://app.prolific.com/","en-ZA,en-GB;q=0.9,en-US;q=0.8,en;q=0.7","61248a51eefb6797024ecb85","68764874ac79eee8c1d4cb03","68798ce8d6d02a946f9a1d30","2","0","61248a51eefb6797024ecb85","2","0","2025-07-18T00:13:23.451Z","","","","","","","","","","","MotivationQ","","50","","","","","","","","","","","","","","","","","","","","","","","","","","","","",""
"","","","","ctl-task-cpt","69","1223983","0.0-5.0-0.12","131","1","2025-07-17 23:53:17","1f75c3e559b7213887762d5229550c2b","102.182.169.207","Mozilla/5.0 (Windows NT 10.0; Win64; x64) AppleWebKit/537.36 (KHTML, like Gecko) Chrome/138.0.0.0 Safari/537.36","WebKit","Chrome","138.0.0.0","Windows","10.0","https://app.prolific.com/","en-ZA,en-GB;q=0.9,en-US;q=0.8,en;q=0.7","61248a51eefb6797024ecb85","68764874ac79eee8c1d4cb03","68798ce8d6d02a946f9a1d30","2","0","61248a51eefb6797024ecb85","2","0","2025-07-18T00:13:43.913Z","","","","","","","","","","","","","","win-only","2","g1:SE,g2:NW","0.7","13","0","1206835.1","1118.9","6121.4","17448.7","1","4","4","6","1","1","1","24","23","0.18181818181818182","1916.3","3000","1930","[""down"",""right""]","{""num_key_presses"":4,""num_perfect"":3,""num_errors"":0,""num_randdir"":1,""num_randdir_good_moves"":1,""num_whilered"":0,""num_whileblue"":0,""num_blue"":0,""num_good_moves"":4}","[421.5714133126395,415.32142761775424,0.5,421.5714133126395,415.32142761775424,110.3,421.5714133126395,415.32142761775424,212.8,421.5714133126395,415.32142761775424,315.6,421.5714133126395,417.82142761775424,418.9,434.0714133126395,434.07142761775424,529.4,459.0714133126395,464.07142761775424,634.5,459.0714133126395,464.07142761775424,747.3,459.0714133126395,464.07142761775424,850.4,459.0714133126395,464.07142761775424,952.2,455.3214133126395,466.57142761775424,1053.1,405.3214133126395,456.57142761775424,1154.5,416.5714133126395,519.0714276177542,1258.2,530.3214133126395,651.5714276177542,1358.3,661.5714133126395,705.3214276177542,1459.5,709.0714133126395,721.5714276177542,1559.9,724.0714133126395,727.8214276177542,1673.3,746.5714133126395,740.3214276177542,1788,781.5714133126395,756.5714276177542,1893.9,781.5714133126395,756.5714276177542,1994.4,781.5714133126395,756.5714276177542,2100.8,787.8214133126395,751.5714276177542,2209.6,879.0714133126395,665.3214276177542,2318.8,1027.8214133126396,565.3214276177542,2427.9,1027.8214133126396,565.3214276177542,2535.2,1027.8214133126396,565.3214276177542,2635.8,1027.8214133126396,565.3214276177542,2744.3,1027.8214133126396,565.3214276177542,2844.3,1027.8214133126396,565.3214276177542,2948.7,1027.8214133126396,565.3214276177542,3051.7,1027.8214133126396,565.3214276177542,3154.3,1027.8214133126396,565.3214276177542,3267.8,1027.8214133126396,565.3214276177542,3368.8,1027.8214133126396,565.3214276177542,3476.6,1027.8214133126396,565.3214276177542,3579.1,1027.8214133126396,565.3214276177542,3684.1,1027.8214133126396,565.3214276177542,3793.2,1027.8214133126396,565.3214276177542,3903.2,1027.8214133126396,565.3214276177542,4007.9,1027.8214133126396,565.3214276177542,4110.5,1027.8214133126396,565.3214276177542,4212.1,1027.8214133126396,565.3214276177542,4318.4,1027.8214133126396,565.3214276177542,4419.2,1027.8214133126396,565.3214276177542,4524.4,1027.8214133126396,565.3214276177542,4626.9,1027.8214133126396,565.3214276177542,4727.1,1027.8214133126396,565.3214276177542,4831.2,1027.8214133126396,565.3214276177542,4935.4]","[1446.7,1446.7,1000,0,446.7,""smooth"",""down"",""down"",""good_move"",4821.4,3374.2,2932.7,1447.2,441.5,""smooth"",""down"",""down"",""good_move"",8150.8,3329,2866.2,4821.8,462.8,""smooth"",""right"",""right"",""good_move"",11154.9,3002.6,2510,8152.3,492.6,""oops"",""right"",""right"",""good_move""]","",""
"4613","","<div style=""width:500px;"">
  <p>What determined the result of this run?</p>
  </div>","72","html-slider-response","70","1228598","0.0-5.0-1.12","131","1","2025-07-17 23:53:17","1f75c3e559b7213887762d5229550c2b","102.182.169.207","Mozilla/5.0 (Windows NT 10.0; Win64; x64) AppleWebKit/537.36 (KHTML, like Gecko) Chrome/138.0.0.0 Safari/537.36","WebKit","Chrome","138.0.0.0","Windows","10.0","https://app.prolific.com/","en-ZA,en-GB;q=0.9,en-US;q=0.8,en;q=0.7","61248a51eefb6797024ecb85","68764874ac79eee8c1d4cb03","68798ce8d6d02a946f9a1d30","2","0","61248a51eefb6797024ecb85","2","0","2025-07-18T00:13:48.528Z","","","","","","","","","","","AttribQ","","50","","","","","","","","","","","","","","","","","","","","","","","","","","","","",""
"2762","","<div style=""width:500px;"">
  <p>How much control did you have over the ball?</p>
  </div>","76","html-slider-response","71","1231361","0.0-5.0-2.12","131","1","2025-07-17 23:53:17","1f75c3e559b7213887762d5229550c2b","102.182.169.207","Mozilla/5.0 (Windows NT 10.0; Win64; x64) AppleWebKit/537.36 (KHTML, like Gecko) Chrome/138.0.0.0 Safari/537.36","WebKit","Chrome","138.0.0.0","Windows","10.0","https://app.prolific.com/","en-ZA,en-GB;q=0.9,en-US;q=0.8,en;q=0.7","61248a51eefb6797024ecb85","68764874ac79eee8c1d4cb03","68798ce8d6d02a946f9a1d30","2","0","61248a51eefb6797024ecb85","2","0","2025-07-18T00:13:51.292Z","","","","","","","","","","","ControlQ","","50","","","","","","","","","","","","","","","","","","","","","","","","","","","","",""
"4758","","<div style=""width:500px;"">
  <p>How would you describe your current emotional state?</p>
  </div>","61","html-slider-response","72","1236121","0.0-5.0-3.12","131","1","2025-07-17 23:53:17","1f75c3e559b7213887762d5229550c2b","102.182.169.207","Mozilla/5.0 (Windows NT 10.0; Win64; x64) AppleWebKit/537.36 (KHTML, like Gecko) Chrome/138.0.0.0 Safari/537.36","WebKit","Chrome","138.0.0.0","Windows","10.0","https://app.prolific.com/","en-ZA,en-GB;q=0.9,en-US;q=0.8,en;q=0.7","61248a51eefb6797024ecb85","68764874ac79eee8c1d4cb03","68798ce8d6d02a946f9a1d30","2","0","61248a51eefb6797024ecb85","2","0","2025-07-18T00:13:56.051Z","","","","","","","","","","","StressQ","","50","","","","","","","","","","","","","","","","","","","","","","","","","","","","",""
"2657","","<div style=""width:500px;"">
  <p>What best describes how you currently feel?</p>
  </div>","26","html-slider-response","73","1238779","0.0-5.0-4.12","131","1","2025-07-17 23:53:17","1f75c3e559b7213887762d5229550c2b","102.182.169.207","Mozilla/5.0 (Windows NT 10.0; Win64; x64) AppleWebKit/537.36 (KHTML, like Gecko) Chrome/138.0.0.0 Safari/537.36","WebKit","Chrome","138.0.0.0","Windows","10.0","https://app.prolific.com/","en-ZA,en-GB;q=0.9,en-US;q=0.8,en;q=0.7","61248a51eefb6797024ecb85","68764874ac79eee8c1d4cb03","68798ce8d6d02a946f9a1d30","2","0","61248a51eefb6797024ecb85","2","0","2025-07-18T00:13:58.710Z","","","","","","","","","","","MotivationQ","","50","","","","","","","","","","","","","","","","","","","","","","","","","","","","",""
