"rt","response_timestamp","stimulus","response","trial_type","trial_index","time_elapsed","internal_node_id","run_id","condition","recorded_at","source_code_version","ip","user_agent","device","browser","browser_version","platform","platform_version","referer","accept_language","PROLIFIC_PID","STUDY_ID","SESSION_ID","WEEK","BATCH","prolific_id","week","batch","realtime","success","responses","item_order","radio_event_ids","radio_event_times","key_event_times","mouse_event_times","straightlining","zigzagging","honeypot","eventType","view_history","slider_start","which_type","canvas_config","goals_layout","control_level","trial_number","tutorial_trial_number","trial_start_time","phase1_start_time","phase2_start_time","phase3_start_time","goal_1_value","goal_1_distance","goal_2_value","goal_2_distance","goal_selected","outcome","outcome_total","participant_final_score","participant_initial_score","participant_final_score_prop","goal_choice_rt","allocated_time","allocated_time_remaining","goal_direction","counts","mouse_movements","key_presses","question_order","question_id"
"16919","1753252272571","<p style='font-size:40px;line-height:1.25'><strong>Welcome to the experiment!</strong></p><p style='font-size:1.1em;line-height:1.25'>Thank you for participanting in our experiment again! You will be asked to play the Dysfunctional Ball Game again. We will briefly recap the rules before we start.</p><p style='font-size:1.1em;line-height:1.25'>Press <strong>Next</strong> to continue.</p>","0","custom-html-button-response","0","16923","0.0-0.0","143","1","2025-07-23 06:30:50","1f75c3e559b7213887762d5229550c2b","194.152.129.18","Mozilla/5.0 (Windows NT 10.0; Win64; x64) AppleWebKit/537.36 (KHTML, like Gecko) Chrome/131.0.0.0 Safari/537.36","WebKit","Chrome","131.0.0.0","Windows","10.0","https://app.prolific.com/","en-GB,en;q=0.9","677fb45dee7e90f416b55aea","683db9eb0562dbf637994deb","6880818ce35a7fe77b2fffda","2","1","677fb45dee7e90f416b55aea","2","1","2025-07-23T06:31:12.572Z","","","","","","","","","","","","","","","","","","","","","","","","","","","","","","","","","","","","","","","","","",""
"10354","","","","fullscreen","1","28293","0.0-1.0","143","1","2025-07-23 06:30:50","1f75c3e559b7213887762d5229550c2b","194.152.129.18","Mozilla/5.0 (Windows NT 10.0; Win64; x64) AppleWebKit/537.36 (KHTML, like Gecko) Chrome/131.0.0.0 Safari/537.36","WebKit","Chrome","131.0.0.0","Windows","10.0","https://app.prolific.com/","en-GB,en;q=0.9","677fb45dee7e90f416b55aea","683db9eb0562dbf637994deb","6880818ce35a7fe77b2fffda","2","1","677fb45dee7e90f416b55aea","2","1","","true","","","","","","","","","","","","","","","","","","","","","","","","","","","","","","","","","","","","","","","","",""
"9841","1753252293786","<p style='font-size:1.1em;line-height:1.25'>In the following, we will ask you a few questions relating to your feelings in the last 24 hours.<br></p><p style='font-size:1.1em;line-height:1.25'>Press the <strong>Next</strong> button to continue.</p>","0","custom-html-button-response","2","38137","0.0-2.0-0.0","143","1","2025-07-23 06:30:50","1f75c3e559b7213887762d5229550c2b","194.152.129.18","Mozilla/5.0 (Windows NT 10.0; Win64; x64) AppleWebKit/537.36 (KHTML, like Gecko) Chrome/131.0.0.0 Safari/537.36","WebKit","Chrome","131.0.0.0","Windows","10.0","https://app.prolific.com/","en-GB,en;q=0.9","677fb45dee7e90f416b55aea","683db9eb0562dbf637994deb","6880818ce35a7fe77b2fffda","2","1","677fb45dee7e90f416b55aea","2","1","2025-07-23T06:31:33.786Z","","","","","","","","","","","","","","","","","","","","","","","","","","","","","","","","","","","","","","","","","",""
"200304.59999999404","","","","survey-template","3","238446","0.0-2.0-1.0","143","1","2025-07-23 06:30:50","1f75c3e559b7213887762d5229550c2b","194.152.129.18","Mozilla/5.0 (Windows NT 10.0; Win64; x64) AppleWebKit/537.36 (KHTML, like Gecko) Chrome/131.0.0.0 Safari/537.36","WebKit","Chrome","131.0.0.0","Windows","10.0","https://app.prolific.com/","en-GB,en;q=0.9","677fb45dee7e90f416b55aea","683db9eb0562dbf637994deb","6880818ce35a7fe77b2fffda","2","1","677fb45dee7e90f416b55aea","2","1","2025-07-23T06:34:54.095Z","","{""Q01"":""3"",""Q02"":""3"",""Q03"":""3"",""Q04"":""3"",""Q05"":""3"",""Q06"":""3"",""Q07"":""3"",""Q08"":""3"",""Q09"":""3"",""Q10"":""3"",""Q11"":""3"",""Q12"":""3"",""Q13"":""5"",""Q14"":""3"",""Q15"":""3"",""Q16"":""3"",""Q17"":""3"",""Q18"":""3"",""Q19"":""3"",""Q20"":""3"",""Q21"":""3"",""Q22"":""3""}","[0,1,2,3,4,5,6,7,8,9,10,11,12,13,14,15,16,17,18,19,20,21]","[""Q01"",""Q02"",""Q03"",""Q04"",""Q05"",""Q06"",""Q07"",""Q08"",""Q09"",""Q10"",""Q11"",""Q12"",""Q13"",""Q13"",""Q14"",""Q15"",""Q16"",""Q17"",""Q18"",""Q19"",""Q20"",""Q21"",""Q22""]","[29311.20000001788,31889.09999999404,33560.40000000596,36358.70000001788,41108,45045.20000001788,48733.5,52388.80000001192,59889.20000001788,62779.20000001788,65371.70000001788,71327.5,73405.90000000596,81390,95388.5,99810.5,102982.5,105679.5,113585.90000000596,117624.09999999404,122841.5,124920.5,127624.20000001788]","[]","[0.09999999403953552,29311.20000001788,31889.09999999404,33560.40000000596,36358.70000001788,41108,45045.20000001788,48733.5,52388.80000001192,59889.20000001788,62779.20000001788,65371.70000001788,71327.5,73405.90000000596,81390,95388.5,99810.5,102982.5,105679.5,113585.90000000596,117624.09999999404,122841.5,124920.5,127624.20000001788,180106.80000001192,186185.70000001788,200297.80000001192]","0.9545454545454546","0","0","drsp","","","","","","","","","","","","","","","","","","","","","","","","","","","","","","",""
"44536.90000000596","","","","survey-template","4","282985","0.0-2.0-2.0","143","1","2025-07-23 06:30:50","1f75c3e559b7213887762d5229550c2b","194.152.129.18","Mozilla/5.0 (Windows NT 10.0; Win64; x64) AppleWebKit/537.36 (KHTML, like Gecko) Chrome/131.0.0.0 Safari/537.36","WebKit","Chrome","131.0.0.0","Windows","10.0","https://app.prolific.com/","en-GB,en;q=0.9","677fb45dee7e90f416b55aea","683db9eb0562dbf637994deb","6880818ce35a7fe77b2fffda","2","1","677fb45dee7e90f416b55aea","2","1","2025-07-23T06:35:38.634Z","","{""Q01"":""3"",""Q02"":""2"",""Q03"":""3""}","[0,1,2]","[""Q01"",""Q02"",""Q03""]","[5909.700000017881,16785.100000023842,34815.20000001788]","[]","[5909.700000017881,16785.100000023842,32878.30000001192,34815.20000001788,44535]","1","0","0","stress","","","","","","","","","","","","","","","","","","","","","","","","","","","","","","",""
"48308","","","","instructions","5","331294","0.0-3.0-0.0","143","1","2025-07-23 06:30:50","1f75c3e559b7213887762d5229550c2b","194.152.129.18","Mozilla/5.0 (Windows NT 10.0; Win64; x64) AppleWebKit/537.36 (KHTML, like Gecko) Chrome/131.0.0.0 Safari/537.36","WebKit","Chrome","131.0.0.0","Windows","10.0","https://app.prolific.com/","en-GB,en;q=0.9","677fb45dee7e90f416b55aea","683db9eb0562dbf637994deb","6880818ce35a7fe77b2fffda","2","1","677fb45dee7e90f416b55aea","2","1","","","","","","","","","","","","","[{""page_index"":0,""viewing_time"":48307}]","","","","","","","","","","","","","","","","","","","","","","","","","","","","","",""
"29421","","<p>Before you start with this game please answer the following three questions yourself. </p>
  <p>Through this game, we measure several aspects of your cognitive performance, such as reaction times, multi-tasking capabilities </p>
  <p>and the ability to assess the situation you are in.</p>
  <p></p>
  <p><b>How good do you usually are in such tasks?</b></p>","62","html-slider-response","6","360717","0.0-4.0-0.0","143","1","2025-07-23 06:30:50","1f75c3e559b7213887762d5229550c2b","194.152.129.18","Mozilla/5.0 (Windows NT 10.0; Win64; x64) AppleWebKit/537.36 (KHTML, like Gecko) Chrome/131.0.0.0 Safari/537.36","WebKit","Chrome","131.0.0.0","Windows","10.0","https://app.prolific.com/","en-GB,en;q=0.9","677fb45dee7e90f416b55aea","683db9eb0562dbf637994deb","6880818ce35a7fe77b2fffda","2","1","677fb45dee7e90f416b55aea","2","1","2025-07-23T06:36:56.366Z","","","","","","","","","","","PreSkillQ","","50","","","","","","","","","","","","","","","","","","","","","","","","","","","","",""
"6763","","<div style=""width:500px;"">
  <p>How well do you think you will perform in this task compared to other participants?</p>
  </div>","65","html-slider-response","7","367483","0.0-4.0-1.0","143","1","2025-07-23 06:30:50","1f75c3e559b7213887762d5229550c2b","194.152.129.18","Mozilla/5.0 (Windows NT 10.0; Win64; x64) AppleWebKit/537.36 (KHTML, like Gecko) Chrome/131.0.0.0 Safari/537.36","WebKit","Chrome","131.0.0.0","Windows","10.0","https://app.prolific.com/","en-GB,en;q=0.9","677fb45dee7e90f416b55aea","683db9eb0562dbf637994deb","6880818ce35a7fe77b2fffda","2","1","677fb45dee7e90f416b55aea","2","1","2025-07-23T06:37:03.132Z","","","","","","","","","","","PrePerfQ","","50","","","","","","","","","","","","","","","","","","","","","","","","","","","","",""
"3796","","<div style=""width:500px;"">
  <p>What best describes how you currently feel?</p>
  </div>","66","html-slider-response","8","371281","0.0-4.0-2.0","143","1","2025-07-23 06:30:50","1f75c3e559b7213887762d5229550c2b","194.152.129.18","Mozilla/5.0 (Windows NT 10.0; Win64; x64) AppleWebKit/537.36 (KHTML, like Gecko) Chrome/131.0.0.0 Safari/537.36","WebKit","Chrome","131.0.0.0","Windows","10.0","https://app.prolific.com/","en-GB,en;q=0.9","677fb45dee7e90f416b55aea","683db9eb0562dbf637994deb","6880818ce35a7fe77b2fffda","2","1","677fb45dee7e90f416b55aea","2","1","2025-07-23T06:37:06.931Z","","","","","","","","","","","PreMotivationQ","","50","","","","","","","","","","","","","","","","","","","","","","","","","","","","",""
"","","","","ctl-task-cpt","9","388757","0.0-5.0-0.0","143","1","2025-07-23 06:30:50","1f75c3e559b7213887762d5229550c2b","194.152.129.18","Mozilla/5.0 (Windows NT 10.0; Win64; x64) AppleWebKit/537.36 (KHTML, like Gecko) Chrome/131.0.0.0 Safari/537.36","WebKit","Chrome","131.0.0.0","Windows","10.0","https://app.prolific.com/","en-GB,en;q=0.9","677fb45dee7e90f416b55aea","683db9eb0562dbf637994deb","6880818ce35a7fe77b2fffda","2","1","677fb45dee7e90f416b55aea","2","1","2025-07-23T06:37:24.406Z","","","","","","","","","","","","","","win-only","2","g1:SE,g2:NW","1","1","0","377901.1","3068.5","8071.2","14467.8","1","4","4","6","1","-1","-1","0","0","0","5002.7","3000","-3005","[""down"",""right""]","{""num_key_presses"":1,""num_perfect"":1,""num_errors"":0,""num_randdir"":0,""num_randdir_good_moves"":0,""num_whilered"":0,""num_whileblue"":0,""num_blue"":0,""num_good_moves"":1}","[414.57142857142856,416.47767857142856,0.5,414.57142857142856,416.47767857142856,102.6,414.57142857142856,416.47767857142856,207.1,414.57142857142856,416.47767857142856,312,414.57142857142856,416.47767857142856,412.2,414.57142857142856,416.47767857142856,512.6,414.57142857142856,416.47767857142856,617.6,414.57142857142856,416.47767857142856,718,414.57142857142856,416.47767857142856,822.7,414.57142857142856,416.47767857142856,928,429.57142857142856,455.47767857142856,1032.7,417.57142857142856,502.47767857142856,1134.1,366.57142857142856,567.4776785714286,1237.6,356.57142857142856,575.4776785714286,1342.8,354.57142857142856,575.4776785714286,1442.8,336.57142857142856,593.4776785714286,1547.7,324.57142857142856,597.4776785714286,1648,320.57142857142856,601.4776785714286,1753,320.57142857142856,601.4776785714286,1857.4,320.57142857142856,601.4776785714286,1957.9,320.57142857142856,601.4776785714286,2062.3,321.57142857142856,601.4776785714286,2162.3,368.57142857142856,586.4776785714286,2262.5,377.57142857142856,585.4776785714286,2362.5,382.57142857142856,585.4776785714286,2462.6,392.57142857142856,587.4776785714286,2562.6,394.57142857142856,587.4776785714286,2662.9,395.57142857142856,590.4776785714286,2762.9,396.57142857142856,590.4776785714286,2863.5,396.57142857142856,590.4776785714286,2967.6,396.57142857142856,590.4776785714286,3072.1,396.57142857142856,590.4776785714286,3172.1,396.57142857142856,590.4776785714286,3272.3,396.57142857142856,590.4776785714286,3372.9,396.57142857142856,590.4776785714286,3472.9,396.57142857142856,590.4776785714286,3578.2,396.57142857142856,590.4776785714286,3682.5,396.57142857142856,590.4776785714286,3782.9,396.57142857142856,590.4776785714286,3887.4,410.57142857142856,585.4776785714286,3987.6,466.57142857142856,558.4776785714286,4093.1,538.5714285714286,534.4776785714286,4198.3,556.5714285714286,527.4776785714286,4301.8,539.5714285714286,525.4776785714286,4402.2,511.57142857142856,517.4776785714286,4502.7,510.57142857142856,516.4776785714286,4607.4,508.57142857142856,515.4776785714286,4707.8,506.57142857142856,510.47767857142856,4808.6,501.57142857142856,501.47767857142856,4912.9]","[3192,3192,1000,0,2192,""smooth"",""down"",""down"",""good_move""]","",""
"9020","","<div style=""width:500px;"">
  <p>What determined the result of this run?</p>
  </div>","55","html-slider-response","10","397778","0.0-5.0-1.0","143","1","2025-07-23 06:30:50","1f75c3e559b7213887762d5229550c2b","194.152.129.18","Mozilla/5.0 (Windows NT 10.0; Win64; x64) AppleWebKit/537.36 (KHTML, like Gecko) Chrome/131.0.0.0 Safari/537.36","WebKit","Chrome","131.0.0.0","Windows","10.0","https://app.prolific.com/","en-GB,en;q=0.9","677fb45dee7e90f416b55aea","683db9eb0562dbf637994deb","6880818ce35a7fe77b2fffda","2","1","677fb45dee7e90f416b55aea","2","1","2025-07-23T06:37:33.427Z","","","","","","","","","","","AttribQ","","50","","","","","","","","","","","","","","","","","","","","","","","","","","","","",""
"3060","","<div style=""width:500px;"">
  <p>How much control did you have over the ball?</p>
  </div>","64","html-slider-response","11","400839","0.0-5.0-2.0","143","1","2025-07-23 06:30:50","1f75c3e559b7213887762d5229550c2b","194.152.129.18","Mozilla/5.0 (Windows NT 10.0; Win64; x64) AppleWebKit/537.36 (KHTML, like Gecko) Chrome/131.0.0.0 Safari/537.36","WebKit","Chrome","131.0.0.0","Windows","10.0","https://app.prolific.com/","en-GB,en;q=0.9","677fb45dee7e90f416b55aea","683db9eb0562dbf637994deb","6880818ce35a7fe77b2fffda","2","1","677fb45dee7e90f416b55aea","2","1","2025-07-23T06:37:36.488Z","","","","","","","","","","","ControlQ","","50","","","","","","","","","","","","","","","","","","","","","","","","","","","","",""
"3825","","<div style=""width:500px;"">
  <p>How would you describe your current emotional state?</p>
  </div>","63","html-slider-response","12","404666","0.0-5.0-3.0","143","1","2025-07-23 06:30:50","1f75c3e559b7213887762d5229550c2b","194.152.129.18","Mozilla/5.0 (Windows NT 10.0; Win64; x64) AppleWebKit/537.36 (KHTML, like Gecko) Chrome/131.0.0.0 Safari/537.36","WebKit","Chrome","131.0.0.0","Windows","10.0","https://app.prolific.com/","en-GB,en;q=0.9","677fb45dee7e90f416b55aea","683db9eb0562dbf637994deb","6880818ce35a7fe77b2fffda","2","1","677fb45dee7e90f416b55aea","2","1","2025-07-23T06:37:40.315Z","","","","","","","","","","","StressQ","","50","","","","","","","","","","","","","","","","","","","","","","","","","","","","",""
"5519","","<div style=""width:500px;"">
  <p>What best describes how you currently feel?</p>
  </div>","63","html-slider-response","13","410187","0.0-5.0-4.0","143","1","2025-07-23 06:30:50","1f75c3e559b7213887762d5229550c2b","194.152.129.18","Mozilla/5.0 (Windows NT 10.0; Win64; x64) AppleWebKit/537.36 (KHTML, like Gecko) Chrome/131.0.0.0 Safari/537.36","WebKit","Chrome","131.0.0.0","Windows","10.0","https://app.prolific.com/","en-GB,en;q=0.9","677fb45dee7e90f416b55aea","683db9eb0562dbf637994deb","6880818ce35a7fe77b2fffda","2","1","677fb45dee7e90f416b55aea","2","1","2025-07-23T06:37:45.836Z","","","","","","","","","","","MotivationQ","","50","","","","","","","","","","","","","","","","","","","","","","","","","","","","",""
"","","","","ctl-task-cpt","14","435677","0.0-5.0-0.1","143","1","2025-07-23 06:30:50","1f75c3e559b7213887762d5229550c2b","194.152.129.18","Mozilla/5.0 (Windows NT 10.0; Win64; x64) AppleWebKit/537.36 (KHTML, like Gecko) Chrome/131.0.0.0 Safari/537.36","WebKit","Chrome","131.0.0.0","Windows","10.0","https://app.prolific.com/","en-GB,en;q=0.9","677fb45dee7e90f416b55aea","683db9eb0562dbf637994deb","6880818ce35a7fe77b2fffda","2","1","677fb45dee7e90f416b55aea","2","1","2025-07-23T06:38:11.326Z","","","","","","","","","","","","","","win-only","3","g1:SW,g2:NE","0.9","2","0","416803.3","2024.5","7026.6","22471.9","1","4","8","6","2","-8","-9","0","0","0","5002.1","3000","-3010","[""up"",""right""]","{""num_key_presses"":4,""num_perfect"":3,""num_errors"":1,""num_randdir"":0,""num_randdir_good_moves"":0,""num_whilered"":0,""num_whileblue"":0,""num_blue"":0,""num_good_moves"":2}","[424.57142857142856,413.47767857142856,2.8,424.57142857142856,413.47767857142856,110,424.57142857142856,413.47767857142856,211.3,424.57142857142856,413.47767857142856,315.5,424.57142857142856,413.47767857142856,421.1,424.57142857142856,413.47767857142856,521.8,424.57142857142856,413.47767857142856,626.2,424.57142857142856,413.47767857142856,726.2,424.57142857142856,413.47767857142856,826.9,424.57142857142856,413.47767857142856,933.5,424.57142857142856,413.47767857142856,1041,424.57142857142856,413.47767857142856,1143,424.57142857142856,413.47767857142856,1253.1,424.57142857142856,413.47767857142856,1355.8,424.57142857142856,413.47767857142856,1456.7,424.57142857142856,413.47767857142856,1557,424.57142857142856,413.47767857142856,1662.1,424.57142857142856,413.47767857142856,1768.9,424.57142857142856,413.47767857142856,1872.1,424.57142857142856,413.47767857142856,1978.1,424.57142857142856,413.47767857142856,2085,424.57142857142856,413.47767857142856,2186.6,424.57142857142856,413.47767857142856,2286.7,424.57142857142856,413.47767857142856,2386.9,424.57142857142856,413.47767857142856,2492,424.57142857142856,413.47767857142856,2597.8,424.57142857142856,413.47767857142856,2705.7,424.57142857142856,413.47767857142856,2807.1,424.57142857142856,413.47767857142856,2911.8,424.57142857142856,413.47767857142856,3012.4,424.57142857142856,413.47767857142856,3117.3,424.57142857142856,413.47767857142856,3221,424.57142857142856,413.47767857142856,3322.7,424.57142857142856,413.47767857142856,3426.8,424.57142857142856,413.47767857142856,3531.5,424.57142857142856,413.47767857142856,3636.7,424.57142857142856,413.47767857142856,3741.8,424.57142857142856,413.47767857142856,3841.8,424.57142857142856,413.47767857142856,3946.1,424.57142857142856,413.47767857142856,4046.5,424.57142857142856,413.47767857142856,4146.7,424.57142857142856,413.47767857142856,4252.4,424.57142857142856,413.47767857142856,4355.1,424.57142857142856,413.47767857142856,4456.2,424.57142857142856,413.47767857142856,4561.7,424.57142857142856,413.47767857142856,4666.1,424.57142857142856,413.47767857142856,4766.4,424.57142857142856,413.47767857142856,4866.6,424.57142857142856,413.47767857142856,4971.7]","[529.4,529.4,1000,0,-470.6,""error"",""-"",""-"",""no_move"",5012.3,4481.8,2432.5,1535.4,1044.4,""smooth"",""down"",""down"",""bad_move"",9832.8,4819.2,3631.6,5013.7,1187.6,""smooth"",""right"",""right"",""good_move"",12408.2,2575,1738.5,9833.3,836.5,""smooth"",""right"",""right"",""good_move""]","",""
"3696","","<div style=""width:500px;"">
  <p>What determined the result of this run?</p>
  </div>","59","html-slider-response","15","439373","0.0-5.0-1.1","143","1","2025-07-23 06:30:50","1f75c3e559b7213887762d5229550c2b","194.152.129.18","Mozilla/5.0 (Windows NT 10.0; Win64; x64) AppleWebKit/537.36 (KHTML, like Gecko) Chrome/131.0.0.0 Safari/537.36","WebKit","Chrome","131.0.0.0","Windows","10.0","https://app.prolific.com/","en-GB,en;q=0.9","677fb45dee7e90f416b55aea","683db9eb0562dbf637994deb","6880818ce35a7fe77b2fffda","2","1","677fb45dee7e90f416b55aea","2","1","2025-07-23T06:38:15.022Z","","","","","","","","","","","AttribQ","","50","","","","","","","","","","","","","","","","","","","","","","","","","","","","",""
"7171","","<div style=""width:500px;"">
  <p>How much control did you have over the ball?</p>
  </div>","61","html-slider-response","16","446545","0.0-5.0-2.1","143","1","2025-07-23 06:30:50","1f75c3e559b7213887762d5229550c2b","194.152.129.18","Mozilla/5.0 (Windows NT 10.0; Win64; x64) AppleWebKit/537.36 (KHTML, like Gecko) Chrome/131.0.0.0 Safari/537.36","WebKit","Chrome","131.0.0.0","Windows","10.0","https://app.prolific.com/","en-GB,en;q=0.9","677fb45dee7e90f416b55aea","683db9eb0562dbf637994deb","6880818ce35a7fe77b2fffda","2","1","677fb45dee7e90f416b55aea","2","1","2025-07-23T06:38:22.194Z","","","","","","","","","","","ControlQ","","50","","","","","","","","","","","","","","","","","","","","","","","","","","","","",""
"3804","","<div style=""width:500px;"">
  <p>How would you describe your current emotional state?</p>
  </div>","64","html-slider-response","17","450350","0.0-5.0-3.1","143","1","2025-07-23 06:30:50","1f75c3e559b7213887762d5229550c2b","194.152.129.18","Mozilla/5.0 (Windows NT 10.0; Win64; x64) AppleWebKit/537.36 (KHTML, like Gecko) Chrome/131.0.0.0 Safari/537.36","WebKit","Chrome","131.0.0.0","Windows","10.0","https://app.prolific.com/","en-GB,en;q=0.9","677fb45dee7e90f416b55aea","683db9eb0562dbf637994deb","6880818ce35a7fe77b2fffda","2","1","677fb45dee7e90f416b55aea","2","1","2025-07-23T06:38:25.999Z","","","","","","","","","","","StressQ","","50","","","","","","","","","","","","","","","","","","","","","","","","","","","","",""
"4868","","<div style=""width:500px;"">
  <p>What best describes how you currently feel?</p>
  </div>","63","html-slider-response","18","455219","0.0-5.0-4.1","143","1","2025-07-23 06:30:50","1f75c3e559b7213887762d5229550c2b","194.152.129.18","Mozilla/5.0 (Windows NT 10.0; Win64; x64) AppleWebKit/537.36 (KHTML, like Gecko) Chrome/131.0.0.0 Safari/537.36","WebKit","Chrome","131.0.0.0","Windows","10.0","https://app.prolific.com/","en-GB,en;q=0.9","677fb45dee7e90f416b55aea","683db9eb0562dbf637994deb","6880818ce35a7fe77b2fffda","2","1","677fb45dee7e90f416b55aea","2","1","2025-07-23T06:38:30.868Z","","","","","","","","","","","MotivationQ","","50","","","","","","","","","","","","","","","","","","","","","","","","","","","","",""
"","","","","ctl-task-cpt","19","473569","0.0-5.0-0.2","143","1","2025-07-23 06:30:50","1f75c3e559b7213887762d5229550c2b","194.152.129.18","Mozilla/5.0 (Windows NT 10.0; Win64; x64) AppleWebKit/537.36 (KHTML, like Gecko) Chrome/131.0.0.0 Safari/537.36","WebKit","Chrome","131.0.0.0","Windows","10.0","https://app.prolific.com/","en-GB,en;q=0.9","677fb45dee7e90f416b55aea","683db9eb0562dbf637994deb","6880818ce35a7fe77b2fffda","2","1","677fb45dee7e90f416b55aea","2","1","2025-07-23T06:38:49.218Z","","","","","","","","","","","","","","win-only","1","g1:NE,g2:SW","0.8","3","0","461836.4","1715.4","6717.8","15331.4","1","4","4","6","2","-4","-4","0","0","0","5002.4","3000","-3015","[""down"",""left""]","{""num_key_presses"":2,""num_perfect"":2,""num_errors"":0,""num_randdir"":0,""num_randdir_good_moves"":0,""num_whilered"":0,""num_whileblue"":0,""num_blue"":0,""num_good_moves"":2}","[414.57142857142856,414.47767857142856,0.4,414.57142857142856,414.47767857142856,105,414.57142857142856,414.47767857142856,217.9,414.57142857142856,414.47767857142856,322.5,414.57142857142856,414.47767857142856,426,414.57142857142856,414.47767857142856,530.8,414.57142857142856,414.47767857142856,637,414.57142857142856,414.47767857142856,740.8,414.57142857142856,414.47767857142856,845.5,414.57142857142856,414.47767857142856,945.5,414.57142857142856,414.47767857142856,1045.6,414.57142857142856,414.47767857142856,1145.9,414.57142857142856,414.47767857142856,1246,414.57142857142856,414.47767857142856,1346.2,414.57142857142856,414.47767857142856,1451.3,414.57142857142856,414.47767857142856,1555.7,414.57142857142856,414.47767857142856,1656.5,414.57142857142856,414.47767857142856,1760.6,414.57142857142856,414.47767857142856,1861,414.57142857142856,414.47767857142856,1961.3,414.57142857142856,414.47767857142856,2065.7,414.57142857142856,414.47767857142856,2170.1,414.57142857142856,414.47767857142856,2270.5,414.57142857142856,414.47767857142856,2376,414.57142857142856,414.47767857142856,2476,414.57142857142856,414.47767857142856,2580.3,414.57142857142856,414.47767857142856,2680.9,414.57142857142856,414.47767857142856,2785.3,414.57142857142856,414.47767857142856,2885.3,414.57142857142856,414.47767857142856,2986,414.57142857142856,414.47767857142856,3091.3,414.57142857142856,414.47767857142856,3195.9,414.57142857142856,414.47767857142856,3300.9,414.57142857142856,414.47767857142856,3406.2,414.57142857142856,414.47767857142856,3511.2,414.57142857142856,414.47767857142856,3611.3,414.57142857142856,414.47767857142856,3711.3,414.57142857142856,414.47767857142856,3815.6,414.57142857142856,414.47767857142856,3920.1,414.57142857142856,414.47767857142856,4020.7,414.57142857142856,414.47767857142856,4125.4,414.57142857142856,414.47767857142856,4225.6,414.57142857142856,414.47767857142856,4325.7,414.57142857142856,414.47767857142856,4426,414.57142857142856,414.47767857142856,4527.1,414.57142857142856,414.47767857142856,4627.1,414.57142857142856,414.47767857142856,4731,414.57142857142856,414.47767857142856,4835.8,414.57142857142856,414.47767857142856,4940.5]","[2369.3,2369.3,1000,0,1369.3,""smooth"",""down"",""down"",""good_move"",5733.4,3363.4,2422,2370,941.4,""smooth"",""down"",""down"",""good_move""]","",""
"16038","","<div style=""width:500px;"">
  <p>What determined the result of this run?</p>
  </div>","57","html-slider-response","20","489609","0.0-5.0-1.2","143","1","2025-07-23 06:30:50","1f75c3e559b7213887762d5229550c2b","194.152.129.18","Mozilla/5.0 (Windows NT 10.0; Win64; x64) AppleWebKit/537.36 (KHTML, like Gecko) Chrome/131.0.0.0 Safari/537.36","WebKit","Chrome","131.0.0.0","Windows","10.0","https://app.prolific.com/","en-GB,en;q=0.9","677fb45dee7e90f416b55aea","683db9eb0562dbf637994deb","6880818ce35a7fe77b2fffda","2","1","677fb45dee7e90f416b55aea","2","1","2025-07-23T06:39:05.258Z","","","","","","","","","","","AttribQ","","50","","","","","","","","","","","","","","","","","","","","","","","","","","","","",""
"5054","","<div style=""width:500px;"">
  <p>How much control did you have over the ball?</p>
  </div>","61","html-slider-response","21","494664","0.0-5.0-2.2","143","1","2025-07-23 06:30:50","1f75c3e559b7213887762d5229550c2b","194.152.129.18","Mozilla/5.0 (Windows NT 10.0; Win64; x64) AppleWebKit/537.36 (KHTML, like Gecko) Chrome/131.0.0.0 Safari/537.36","WebKit","Chrome","131.0.0.0","Windows","10.0","https://app.prolific.com/","en-GB,en;q=0.9","677fb45dee7e90f416b55aea","683db9eb0562dbf637994deb","6880818ce35a7fe77b2fffda","2","1","677fb45dee7e90f416b55aea","2","1","2025-07-23T06:39:10.313Z","","","","","","","","","","","ControlQ","","50","","","","","","","","","","","","","","","","","","","","","","","","","","","","",""
"3727","","<div style=""width:500px;"">
  <p>How would you describe your current emotional state?</p>
  </div>","62","html-slider-response","22","498393","0.0-5.0-3.2","143","1","2025-07-23 06:30:50","1f75c3e559b7213887762d5229550c2b","194.152.129.18","Mozilla/5.0 (Windows NT 10.0; Win64; x64) AppleWebKit/537.36 (KHTML, like Gecko) Chrome/131.0.0.0 Safari/537.36","WebKit","Chrome","131.0.0.0","Windows","10.0","https://app.prolific.com/","en-GB,en;q=0.9","677fb45dee7e90f416b55aea","683db9eb0562dbf637994deb","6880818ce35a7fe77b2fffda","2","1","677fb45dee7e90f416b55aea","2","1","2025-07-23T06:39:14.042Z","","","","","","","","","","","StressQ","","50","","","","","","","","","","","","","","","","","","","","","","","","","","","","",""
"3702","","<div style=""width:500px;"">
  <p>What best describes how you currently feel?</p>
  </div>","61","html-slider-response","23","502096","0.0-5.0-4.2","143","1","2025-07-23 06:30:50","1f75c3e559b7213887762d5229550c2b","194.152.129.18","Mozilla/5.0 (Windows NT 10.0; Win64; x64) AppleWebKit/537.36 (KHTML, like Gecko) Chrome/131.0.0.0 Safari/537.36","WebKit","Chrome","131.0.0.0","Windows","10.0","https://app.prolific.com/","en-GB,en;q=0.9","677fb45dee7e90f416b55aea","683db9eb0562dbf637994deb","6880818ce35a7fe77b2fffda","2","1","677fb45dee7e90f416b55aea","2","1","2025-07-23T06:39:17.745Z","","","","","","","","","","","MotivationQ","","50","","","","","","","","","","","","","","","","","","","","","","","","","","","","",""
"","","","","ctl-task-cpt","24","526278","0.0-5.0-0.3","143","1","2025-07-23 06:30:50","1f75c3e559b7213887762d5229550c2b","194.152.129.18","Mozilla/5.0 (Windows NT 10.0; Win64; x64) AppleWebKit/537.36 (KHTML, like Gecko) Chrome/131.0.0.0 Safari/537.36","WebKit","Chrome","131.0.0.0","Windows","10.0","https://app.prolific.com/","en-GB,en;q=0.9","677fb45dee7e90f416b55aea","683db9eb0562dbf637994deb","6880818ce35a7fe77b2fffda","2","1","677fb45dee7e90f416b55aea","2","1","2025-07-23T06:39:41.927Z","","","","","","","","","","","","","","win-only","2","g1:SE,g2:NW","0.7","4","0","508713.5","1687.4","6691.8","21165.8","1","4","8","6","1","1","1","1","0","0.007575757575757576","5004.4","3000","1010","[""down"",""right""]","{""num_key_presses"":4,""num_perfect"":3,""num_errors"":0,""num_randdir"":1,""num_randdir_good_moves"":1,""num_whilered"":0,""num_whileblue"":0,""num_blue"":1,""num_good_moves"":4}","[410.57142857142856,418.47767857142856,0.4,410.57142857142856,418.47767857142856,104.3,410.57142857142856,418.47767857142856,207.6,410.57142857142856,418.47767857142856,308.4,410.57142857142856,418.47767857142856,409.9,410.57142857142856,418.47767857142856,514.1,410.57142857142856,418.47767857142856,614.7,410.57142857142856,418.47767857142856,720.6,410.57142857142856,418.47767857142856,823.8,410.57142857142856,418.47767857142856,924,410.57142857142856,418.47767857142856,1024.2,410.57142857142856,418.47767857142856,1128,410.57142857142856,418.47767857142856,1228.9,410.57142857142856,418.47767857142856,1333.8,410.57142857142856,418.47767857142856,1434,410.57142857142856,418.47767857142856,1540.5,410.57142857142856,418.47767857142856,1641.5,410.57142857142856,418.47767857142856,1744,410.57142857142856,418.47767857142856,1848.4,410.57142857142856,418.47767857142856,1949,410.57142857142856,418.47767857142856,2055.1,410.57142857142856,418.47767857142856,2160.9,410.57142857142856,418.47767857142856,2263.9,410.57142857142856,418.47767857142856,2368.6,410.57142857142856,418.47767857142856,2470.5,410.57142857142856,418.47767857142856,2570.8,410.57142857142856,418.47767857142856,2670.8,410.57142857142856,418.47767857142856,2774.5,410.57142857142856,418.47767857142856,2874.5,410.57142857142856,418.47767857142856,2977,410.57142857142856,418.47767857142856,3078.6,410.57142857142856,418.47767857142856,3184,410.57142857142856,418.47767857142856,3291.1,410.57142857142856,418.47767857142856,3391.5,410.57142857142856,418.47767857142856,3491.6,410.57142857142856,418.47767857142856,3593.6,410.57142857142856,418.47767857142856,3693.7,410.57142857142856,418.47767857142856,3794.3,410.57142857142856,418.47767857142856,3898.7,410.57142857142856,418.47767857142856,3999.2,410.57142857142856,418.47767857142856,4099.8,410.57142857142856,418.47767857142856,4203.9,410.57142857142856,418.47767857142856,4309.4,410.57142857142856,418.47767857142856,4411.3,410.57142857142856,418.47767857142856,4513.5,410.57142857142856,418.47767857142856,4614.2,410.57142857142856,418.47767857142856,4714.7,410.57142857142856,418.47767857142856,4818.5,410.57142857142856,418.47767857142856,4923.8]","[5012.4,5012.4,2373.1,2008.9,630.4,""smooth"",""down"",""down"",""good_move"",7974.7,2961.8,2387,5012.9,574.8,""oops"",""right"",""right"",""good_move"",11162.6,3187,2708.2,7975.6,478.8,""smooth"",""down"",""down"",""good_move"",14375.6,3212.8,2797.4,11162.8,415.4,""smooth"",""right"",""right"",""good_move""]","",""
"4894","","<div style=""width:500px;"">
  <p>What determined the result of this run?</p>
  </div>","65","html-slider-response","25","531173","0.0-5.0-1.3","143","1","2025-07-23 06:30:50","1f75c3e559b7213887762d5229550c2b","194.152.129.18","Mozilla/5.0 (Windows NT 10.0; Win64; x64) AppleWebKit/537.36 (KHTML, like Gecko) Chrome/131.0.0.0 Safari/537.36","WebKit","Chrome","131.0.0.0","Windows","10.0","https://app.prolific.com/","en-GB,en;q=0.9","677fb45dee7e90f416b55aea","683db9eb0562dbf637994deb","6880818ce35a7fe77b2fffda","2","1","677fb45dee7e90f416b55aea","2","1","2025-07-23T06:39:46.823Z","","","","","","","","","","","AttribQ","","50","","","","","","","","","","","","","","","","","","","","","","","","","","","","",""
"4314","","<div style=""width:500px;"">
  <p>How much control did you have over the ball?</p>
  </div>","66","html-slider-response","26","535489","0.0-5.0-2.3","143","1","2025-07-23 06:30:50","1f75c3e559b7213887762d5229550c2b","194.152.129.18","Mozilla/5.0 (Windows NT 10.0; Win64; x64) AppleWebKit/537.36 (KHTML, like Gecko) Chrome/131.0.0.0 Safari/537.36","WebKit","Chrome","131.0.0.0","Windows","10.0","https://app.prolific.com/","en-GB,en;q=0.9","677fb45dee7e90f416b55aea","683db9eb0562dbf637994deb","6880818ce35a7fe77b2fffda","2","1","677fb45dee7e90f416b55aea","2","1","2025-07-23T06:39:51.138Z","","","","","","","","","","","ControlQ","","50","","","","","","","","","","","","","","","","","","","","","","","","","","","","",""
"4795","","<div style=""width:500px;"">
  <p>How would you describe your current emotional state?</p>
  </div>","66","html-slider-response","27","540286","0.0-5.0-3.3","143","1","2025-07-23 06:30:50","1f75c3e559b7213887762d5229550c2b","194.152.129.18","Mozilla/5.0 (Windows NT 10.0; Win64; x64) AppleWebKit/537.36 (KHTML, like Gecko) Chrome/131.0.0.0 Safari/537.36","WebKit","Chrome","131.0.0.0","Windows","10.0","https://app.prolific.com/","en-GB,en;q=0.9","677fb45dee7e90f416b55aea","683db9eb0562dbf637994deb","6880818ce35a7fe77b2fffda","2","1","677fb45dee7e90f416b55aea","2","1","2025-07-23T06:39:55.935Z","","","","","","","","","","","StressQ","","50","","","","","","","","","","","","","","","","","","","","","","","","","","","","",""
"3806","","<div style=""width:500px;"">
  <p>What best describes how you currently feel?</p>
  </div>","67","html-slider-response","28","544093","0.0-5.0-4.3","143","1","2025-07-23 06:30:50","1f75c3e559b7213887762d5229550c2b","194.152.129.18","Mozilla/5.0 (Windows NT 10.0; Win64; x64) AppleWebKit/537.36 (KHTML, like Gecko) Chrome/131.0.0.0 Safari/537.36","WebKit","Chrome","131.0.0.0","Windows","10.0","https://app.prolific.com/","en-GB,en;q=0.9","677fb45dee7e90f416b55aea","683db9eb0562dbf637994deb","6880818ce35a7fe77b2fffda","2","1","677fb45dee7e90f416b55aea","2","1","2025-07-23T06:39:59.742Z","","","","","","","","","","","MotivationQ","","50","","","","","","","","","","","","","","","","","","","","","","","","","","","","",""
"","","","","ctl-task-cpt","29","571915","0.0-5.0-0.4","143","1","2025-07-23 06:30:50","1f75c3e559b7213887762d5229550c2b","194.152.129.18","Mozilla/5.0 (Windows NT 10.0; Win64; x64) AppleWebKit/537.36 (KHTML, like Gecko) Chrome/131.0.0.0 Safari/537.36","WebKit","Chrome","131.0.0.0","Windows","10.0","https://app.prolific.com/","en-GB,en;q=0.9","677fb45dee7e90f416b55aea","683db9eb0562dbf637994deb","6880818ce35a7fe77b2fffda","2","1","677fb45dee7e90f416b55aea","2","1","2025-07-23T06:40:27.564Z","","","","","","","","","","","","","","win-only","0","g1:NW,g2:SE","0.6","5","0","550711.5","2188.3","7193","24801.3","1","4","8","6","1","1","1","2","1","0.015151515151515152","5004.7","3000","360","[""left"",""up""]","{""num_key_presses"":6,""num_perfect"":4,""num_errors"":0,""num_randdir"":2,""num_randdir_good_moves"":1,""num_whilered"":0,""num_whileblue"":0,""num_blue"":0,""num_good_moves"":5}","[412.57142857142856,419.47767857142856,0.6,412.57142857142856,419.47767857142856,100.7,412.57142857142856,419.47767857142856,204.3,412.57142857142856,419.47767857142856,308,412.57142857142856,419.47767857142856,411.7,412.57142857142856,419.47767857142856,514.1,412.57142857142856,419.47767857142856,614.6,412.57142857142856,419.47767857142856,721.2,412.57142857142856,419.47767857142856,825.1,412.57142857142856,419.47767857142856,929.8,412.57142857142856,419.47767857142856,1034.1,412.57142857142856,419.47767857142856,1144.4,412.57142857142856,419.47767857142856,1248.8,412.57142857142856,419.47767857142856,1358.6,412.57142857142856,419.47767857142856,1459.4,412.57142857142856,419.47767857142856,1562,412.57142857142856,419.47767857142856,1664,412.57142857142856,419.47767857142856,1773,412.57142857142856,419.47767857142856,1874.4,412.57142857142856,419.47767857142856,1977.2,412.57142857142856,419.47767857142856,2078.9,412.57142857142856,419.47767857142856,2183.2,412.57142857142856,419.47767857142856,2291.5,412.57142857142856,419.47767857142856,2392.6,412.57142857142856,419.47767857142856,2493.4,412.57142857142856,419.47767857142856,2594.5,412.57142857142856,419.47767857142856,2698,412.57142857142856,419.47767857142856,2798,412.57142857142856,419.47767857142856,2899.3,412.57142857142856,419.47767857142856,3007,412.57142857142856,419.47767857142856,3108.8,412.57142857142856,419.47767857142856,3213.9,412.57142857142856,419.47767857142856,3318.6,412.57142857142856,419.47767857142856,3419.3,412.57142857142856,419.47767857142856,3521,412.57142857142856,419.47767857142856,3628.8,412.57142857142856,419.47767857142856,3733.1,412.57142857142856,419.47767857142856,3841.4,412.57142857142856,419.47767857142856,3942.5,412.57142857142856,419.47767857142856,4043.2,412.57142857142856,419.47767857142856,4147.7,412.57142857142856,419.47767857142856,4248.3,412.57142857142856,419.47767857142856,4354.5,412.57142857142856,419.47767857142856,4458.1,412.57142857142856,419.47767857142856,4564,412.57142857142856,419.47767857142856,4669.5,412.57142857142856,419.47767857142856,4774.6,412.57142857142856,419.47767857142856,4877.6,412.57142857142856,419.47767857142856,4983.6]","[1651.5,1651.5,1000,0,651.5,""oops"",""left"",""left"",""good_move"",5140.3,3488,3062.1,1652.4,425.8,""smooth"",""left"",""left"",""good_move"",7486.6,2345.4,1792.5,5141.2,552.9,""smooth"",""up"",""up"",""good_move"",10975.3,3487,2995.3,7488.4,491.6,""oops"",""up"",""down"",""bad_move"",14650.8,3674.8,3243.6,10976.1,431.1,""smooth"",""up"",""up"",""good_move"",17500.8,2849.6,2424.6,14651.3,424.9,""smooth"",""up"",""up"",""good_move""]","",""
"4841","","<div style=""width:500px;"">
  <p>What determined the result of this run?</p>
  </div>","59","html-slider-response","30","576757","0.0-5.0-1.4","143","1","2025-07-23 06:30:50","1f75c3e559b7213887762d5229550c2b","194.152.129.18","Mozilla/5.0 (Windows NT 10.0; Win64; x64) AppleWebKit/537.36 (KHTML, like Gecko) Chrome/131.0.0.0 Safari/537.36","WebKit","Chrome","131.0.0.0","Windows","10.0","https://app.prolific.com/","en-GB,en;q=0.9","677fb45dee7e90f416b55aea","683db9eb0562dbf637994deb","6880818ce35a7fe77b2fffda","2","1","677fb45dee7e90f416b55aea","2","1","2025-07-23T06:40:32.406Z","","","","","","","","","","","AttribQ","","50","","","","","","","","","","","","","","","","","","","","","","","","","","","","",""
"4885","","<div style=""width:500px;"">
  <p>How much control did you have over the ball?</p>
  </div>","71","html-slider-response","31","581644","0.0-5.0-2.4","143","1","2025-07-23 06:30:50","1f75c3e559b7213887762d5229550c2b","194.152.129.18","Mozilla/5.0 (Windows NT 10.0; Win64; x64) AppleWebKit/537.36 (KHTML, like Gecko) Chrome/131.0.0.0 Safari/537.36","WebKit","Chrome","131.0.0.0","Windows","10.0","https://app.prolific.com/","en-GB,en;q=0.9","677fb45dee7e90f416b55aea","683db9eb0562dbf637994deb","6880818ce35a7fe77b2fffda","2","1","677fb45dee7e90f416b55aea","2","1","2025-07-23T06:40:37.293Z","","","","","","","","","","","ControlQ","","50","","","","","","","","","","","","","","","","","","","","","","","","","","","","",""
"4141","","<div style=""width:500px;"">
  <p>How would you describe your current emotional state?</p>
  </div>","69","html-slider-response","32","585786","0.0-5.0-3.4","143","1","2025-07-23 06:30:50","1f75c3e559b7213887762d5229550c2b","194.152.129.18","Mozilla/5.0 (Windows NT 10.0; Win64; x64) AppleWebKit/537.36 (KHTML, like Gecko) Chrome/131.0.0.0 Safari/537.36","WebKit","Chrome","131.0.0.0","Windows","10.0","https://app.prolific.com/","en-GB,en;q=0.9","677fb45dee7e90f416b55aea","683db9eb0562dbf637994deb","6880818ce35a7fe77b2fffda","2","1","677fb45dee7e90f416b55aea","2","1","2025-07-23T06:40:41.435Z","","","","","","","","","","","StressQ","","50","","","","","","","","","","","","","","","","","","","","","","","","","","","","",""
"3224","","<div style=""width:500px;"">
  <p>What best describes how you currently feel?</p>
  </div>","70","html-slider-response","33","589012","0.0-5.0-4.4","143","1","2025-07-23 06:30:50","1f75c3e559b7213887762d5229550c2b","194.152.129.18","Mozilla/5.0 (Windows NT 10.0; Win64; x64) AppleWebKit/537.36 (KHTML, like Gecko) Chrome/131.0.0.0 Safari/537.36","WebKit","Chrome","131.0.0.0","Windows","10.0","https://app.prolific.com/","en-GB,en;q=0.9","677fb45dee7e90f416b55aea","683db9eb0562dbf637994deb","6880818ce35a7fe77b2fffda","2","1","677fb45dee7e90f416b55aea","2","1","2025-07-23T06:40:44.661Z","","","","","","","","","","","MotivationQ","","50","","","","","","","","","","","","","","","","","","","","","","","","","","","","",""
"","","","","ctl-task-cpt","34","625869","0.0-5.0-0.5","143","1","2025-07-23 06:30:50","1f75c3e559b7213887762d5229550c2b","194.152.129.18","Mozilla/5.0 (Windows NT 10.0; Win64; x64) AppleWebKit/537.36 (KHTML, like Gecko) Chrome/131.0.0.0 Safari/537.36","WebKit","Chrome","131.0.0.0","Windows","10.0","https://app.prolific.com/","en-GB,en;q=0.9","677fb45dee7e90f416b55aea","683db9eb0562dbf637994deb","6880818ce35a7fe77b2fffda","2","1","677fb45dee7e90f416b55aea","2","1","2025-07-23T06:41:21.518Z","","","","","","","","","","","","","","win-only","3","g1:SW,g2:NE","0.5","6","0","595630.7","19438.7","24441.6","33836.1","1","4","4","6","2","-4","-4","0","2","0","5002.9","3000","-2590","[""up"",""right""]","{""num_key_presses"":2,""num_perfect"":1,""num_errors"":0,""num_randdir"":1,""num_randdir_good_moves"":0,""num_whilered"":0,""num_whileblue"":0,""num_blue"":0,""num_good_moves"":1}","[421.57142857142856,416.47767857142856,0.8,421.57142857142856,416.47767857142856,102,421.57142857142856,416.47767857142856,204.5,421.57142857142856,416.47767857142856,304.9,421.57142857142856,416.47767857142856,406.9,421.57142857142856,416.47767857142856,507,421.57142857142856,416.47767857142856,607.1,421.57142857142856,416.47767857142856,712.8,421.57142857142856,416.47767857142856,817.6,421.57142857142856,416.47767857142856,917.6,421.57142857142856,416.47767857142856,1022,421.57142857142856,416.47767857142856,1126.2,421.57142857142856,416.47767857142856,1226.7,421.57142857142856,416.47767857142856,1331.6,421.57142857142856,416.47767857142856,1432.5,421.57142857142856,416.47767857142856,1536.9,421.57142857142856,416.47767857142856,1638.1,421.57142857142856,416.47767857142856,1738.1,421.57142857142856,416.47767857142856,1841.6,421.57142857142856,416.47767857142856,1942.5,421.57142857142856,416.47767857142856,2045.7,421.57142857142856,416.47767857142856,2147.2,421.57142857142856,416.47767857142856,2248.8,421.57142857142856,416.47767857142856,2352.1,421.57142857142856,416.47767857142856,2452.1,421.57142857142856,416.47767857142856,2557,421.57142857142856,416.47767857142856,2657,421.57142857142856,416.47767857142856,2757.1,421.57142857142856,416.47767857142856,2862,421.57142857142856,416.47767857142856,2967.6,421.57142857142856,416.47767857142856,3067.9,421.57142857142856,416.47767857142856,3168.4,421.57142857142856,416.47767857142856,3271.6,421.57142857142856,416.47767857142856,3372.1,421.57142857142856,416.47767857142856,3472.2,421.57142857142856,416.47767857142856,3582.9,421.57142857142856,416.47767857142856,3683.4,421.57142857142856,416.47767857142856,3787.3,421.57142857142856,416.47767857142856,3887.7,421.57142857142856,416.47767857142856,3992.3,421.57142857142856,416.47767857142856,4098,421.57142857142856,416.47767857142856,4202.2,421.57142857142856,416.47767857142856,4302.6,421.57142857142856,416.47767857142856,4407.1,421.57142857142856,416.47767857142856,4507.8,421.57142857142856,416.47767857142856,4610.7,421.57142857142856,416.47767857142856,4711.4,421.57142857142856,416.47767857142856,4811.4,421.57142857142856,416.47767857142856,4911.6]","[1981.7,1981.7,1000,0,981.7,""smooth"",""right"",""right"",""good_move"",6537.1,4554.7,2545.6,1982.6,2009,""oops"",""up"",""down"",""bad_move""]","",""
"7849","","<div style=""width:500px;"">
  <p>What determined the result of this run?</p>
  </div>","61","html-slider-response","35","633720","0.0-5.0-1.5","143","1","2025-07-23 06:30:50","1f75c3e559b7213887762d5229550c2b","194.152.129.18","Mozilla/5.0 (Windows NT 10.0; Win64; x64) AppleWebKit/537.36 (KHTML, like Gecko) Chrome/131.0.0.0 Safari/537.36","WebKit","Chrome","131.0.0.0","Windows","10.0","https://app.prolific.com/","en-GB,en;q=0.9","677fb45dee7e90f416b55aea","683db9eb0562dbf637994deb","6880818ce35a7fe77b2fffda","2","1","677fb45dee7e90f416b55aea","2","1","2025-07-23T06:41:29.369Z","","","","","","","","","","","AttribQ","","50","","","","","","","","","","","","","","","","","","","","","","","","","","","","",""
"7256","","<div style=""width:500px;"">
  <p>How much control did you have over the ball?</p>
  </div>","67","html-slider-response","36","640977","0.0-5.0-2.5","143","1","2025-07-23 06:30:50","1f75c3e559b7213887762d5229550c2b","194.152.129.18","Mozilla/5.0 (Windows NT 10.0; Win64; x64) AppleWebKit/537.36 (KHTML, like Gecko) Chrome/131.0.0.0 Safari/537.36","WebKit","Chrome","131.0.0.0","Windows","10.0","https://app.prolific.com/","en-GB,en;q=0.9","677fb45dee7e90f416b55aea","683db9eb0562dbf637994deb","6880818ce35a7fe77b2fffda","2","1","677fb45dee7e90f416b55aea","2","1","2025-07-23T06:41:36.626Z","","","","","","","","","","","ControlQ","","50","","","","","","","","","","","","","","","","","","","","","","","","","","","","",""
"3491","","<div style=""width:500px;"">
  <p>How would you describe your current emotional state?</p>
  </div>","68","html-slider-response","37","644469","0.0-5.0-3.5","143","1","2025-07-23 06:30:50","1f75c3e559b7213887762d5229550c2b","194.152.129.18","Mozilla/5.0 (Windows NT 10.0; Win64; x64) AppleWebKit/537.36 (KHTML, like Gecko) Chrome/131.0.0.0 Safari/537.36","WebKit","Chrome","131.0.0.0","Windows","10.0","https://app.prolific.com/","en-GB,en;q=0.9","677fb45dee7e90f416b55aea","683db9eb0562dbf637994deb","6880818ce35a7fe77b2fffda","2","1","677fb45dee7e90f416b55aea","2","1","2025-07-23T06:41:40.119Z","","","","","","","","","","","StressQ","","50","","","","","","","","","","","","","","","","","","","","","","","","","","","","",""
"5018","","<div style=""width:500px;"">
  <p>What best describes how you currently feel?</p>
  </div>","70","html-slider-response","38","649489","0.0-5.0-4.5","143","1","2025-07-23 06:30:50","1f75c3e559b7213887762d5229550c2b","194.152.129.18","Mozilla/5.0 (Windows NT 10.0; Win64; x64) AppleWebKit/537.36 (KHTML, like Gecko) Chrome/131.0.0.0 Safari/537.36","WebKit","Chrome","131.0.0.0","Windows","10.0","https://app.prolific.com/","en-GB,en;q=0.9","677fb45dee7e90f416b55aea","683db9eb0562dbf637994deb","6880818ce35a7fe77b2fffda","2","1","677fb45dee7e90f416b55aea","2","1","2025-07-23T06:41:45.138Z","","","","","","","","","","","MotivationQ","","50","","","","","","","","","","","","","","","","","","","","","","","","","","","","",""
"","","","","ctl-task-cpt","39","688978","0.0-5.0-0.6","143","1","2025-07-23 06:30:50","1f75c3e559b7213887762d5229550c2b","194.152.129.18","Mozilla/5.0 (Windows NT 10.0; Win64; x64) AppleWebKit/537.36 (KHTML, like Gecko) Chrome/131.0.0.0 Safari/537.36","WebKit","Chrome","131.0.0.0","Windows","10.0","https://app.prolific.com/","en-GB,en;q=0.9","677fb45dee7e90f416b55aea","683db9eb0562dbf637994deb","6880818ce35a7fe77b2fffda","2","1","677fb45dee7e90f416b55aea","2","1","2025-07-23T06:42:24.627Z","","","","","","","","","","","","","","win-only","1","g1:NE,g2:SW","0.4","7","0","656106.8","2585.7","7588.6","36464.6","1","4","8","6","2","-8","-9","0","0","0","5002.9","3000","-2205","[""down"",""left""]","{""num_key_presses"":8,""num_perfect"":4,""num_errors"":1,""num_randdir"":3,""num_randdir_good_moves"":0,""num_whilered"":0,""num_whileblue"":1,""num_blue"":2,""num_good_moves"":4}","[422.57142857142856,420.47767857142856,0.4,422.57142857142856,420.47767857142856,101.6,422.57142857142856,420.47767857142856,204.6,422.57142857142856,420.47767857142856,306.9,422.57142857142856,420.47767857142856,413.9,422.57142857142856,420.47767857142856,521.9,422.57142857142856,420.47767857142856,622.3,422.57142857142856,420.47767857142856,725.4,422.57142857142856,420.47767857142856,832.2,422.57142857142856,420.47767857142856,937.6,422.57142857142856,420.47767857142856,1041.5,422.57142857142856,420.47767857142856,1145.1,422.57142857142856,420.47767857142856,1248.4,422.57142857142856,420.47767857142856,1356.8,422.57142857142856,420.47767857142856,1457.2,422.57142857142856,420.47767857142856,1557.5,422.57142857142856,420.47767857142856,1660.3,422.57142857142856,420.47767857142856,1760.3,422.57142857142856,420.47767857142856,1862.2,422.57142857142856,420.47767857142856,1966.9,422.57142857142856,420.47767857142856,2072.9,422.57142857142856,420.47767857142856,2175.2,422.57142857142856,420.47767857142856,2286.6,422.57142857142856,420.47767857142856,2386.6,422.57142857142856,420.47767857142856,2492.7,422.57142857142856,420.47767857142856,2594.7,422.57142857142856,420.47767857142856,2695.6,422.57142857142856,420.47767857142856,2809.2,422.57142857142856,420.47767857142856,2911.6,422.57142857142856,420.47767857142856,3012.9,422.57142857142856,420.47767857142856,3123.9,422.57142857142856,420.47767857142856,3225.9,422.57142857142856,420.47767857142856,3326.7,422.57142857142856,420.47767857142856,3427.3,422.57142857142856,420.47767857142856,3531.1,422.57142857142856,420.47767857142856,3642.8,422.57142857142856,420.47767857142856,3745.8,422.57142857142856,420.47767857142856,3848,422.57142857142856,420.47767857142856,3956.6,422.57142857142856,420.47767857142856,4057.2,422.57142857142856,420.47767857142856,4158.1,422.57142857142856,420.47767857142856,4261.4,422.57142857142856,420.47767857142856,4372.7,422.57142857142856,420.47767857142856,4475.6,422.57142857142856,420.47767857142856,4579.8,422.57142857142856,420.47767857142856,4685,422.57142857142856,420.47767857142856,4792.9,422.57142857142856,420.47767857142856,4895.3,422.57142857142856,420.47767857142856,4996.1]","[1704.4,1704.4,1000,0,704.4,""smooth"",""down"",""down"",""good_move"",4225.3,2520.5,1989.6,1704.8,530.9,""smooth"",""down"",""down"",""good_move"",7838.1,3611.6,2968.6,4226.6,642.9,""smooth"",""down"",""down"",""good_move"",11494.6,3656.2,3261.3,7838.4,394.9,""smooth"",""left"",""left"",""good_move"",14527.7,3031.8,2646.1,11495.9,385.7,""while_blue"",""left"",""up"",""bad_move"",17399.5,2870.2,2390.8,14529.3,479.4,""oops"",""left"",""up"",""bad_move"",23119.5,5719.7,1862.6,20843.5,413.4,""oops"",""down"",""right"",""bad_move"",26670.3,3550,2685.5,23120.3,864.5,""oops"",""down"",""up"",""bad_move""]","",""
"4392","","<div style=""width:500px;"">
  <p>What determined the result of this run?</p>
  </div>","63","html-slider-response","40","693372","0.0-5.0-1.6","143","1","2025-07-23 06:30:50","1f75c3e559b7213887762d5229550c2b","194.152.129.18","Mozilla/5.0 (Windows NT 10.0; Win64; x64) AppleWebKit/537.36 (KHTML, like Gecko) Chrome/131.0.0.0 Safari/537.36","WebKit","Chrome","131.0.0.0","Windows","10.0","https://app.prolific.com/","en-GB,en;q=0.9","677fb45dee7e90f416b55aea","683db9eb0562dbf637994deb","6880818ce35a7fe77b2fffda","2","1","677fb45dee7e90f416b55aea","2","1","2025-07-23T06:42:29.021Z","","","","","","","","","","","AttribQ","","50","","","","","","","","","","","","","","","","","","","","","","","","","","","","",""
"2769","","<div style=""width:500px;"">
  <p>How much control did you have over the ball?</p>
  </div>","67","html-slider-response","41","696142","0.0-5.0-2.6","143","1","2025-07-23 06:30:50","1f75c3e559b7213887762d5229550c2b","194.152.129.18","Mozilla/5.0 (Windows NT 10.0; Win64; x64) AppleWebKit/537.36 (KHTML, like Gecko) Chrome/131.0.0.0 Safari/537.36","WebKit","Chrome","131.0.0.0","Windows","10.0","https://app.prolific.com/","en-GB,en;q=0.9","677fb45dee7e90f416b55aea","683db9eb0562dbf637994deb","6880818ce35a7fe77b2fffda","2","1","677fb45dee7e90f416b55aea","2","1","2025-07-23T06:42:31.792Z","","","","","","","","","","","ControlQ","","50","","","","","","","","","","","","","","","","","","","","","","","","","","","","",""
"3883","","<div style=""width:500px;"">
  <p>How would you describe your current emotional state?</p>
  </div>","70","html-slider-response","42","700027","0.0-5.0-3.6","143","1","2025-07-23 06:30:50","1f75c3e559b7213887762d5229550c2b","194.152.129.18","Mozilla/5.0 (Windows NT 10.0; Win64; x64) AppleWebKit/537.36 (KHTML, like Gecko) Chrome/131.0.0.0 Safari/537.36","WebKit","Chrome","131.0.0.0","Windows","10.0","https://app.prolific.com/","en-GB,en;q=0.9","677fb45dee7e90f416b55aea","683db9eb0562dbf637994deb","6880818ce35a7fe77b2fffda","2","1","677fb45dee7e90f416b55aea","2","1","2025-07-23T06:42:35.677Z","","","","","","","","","","","StressQ","","50","","","","","","","","","","","","","","","","","","","","","","","","","","","","",""
"4589","","<div style=""width:500px;"">
  <p>What best describes how you currently feel?</p>
  </div>","68","html-slider-response","43","704618","0.0-5.0-4.6","143","1","2025-07-23 06:30:50","1f75c3e559b7213887762d5229550c2b","194.152.129.18","Mozilla/5.0 (Windows NT 10.0; Win64; x64) AppleWebKit/537.36 (KHTML, like Gecko) Chrome/131.0.0.0 Safari/537.36","WebKit","Chrome","131.0.0.0","Windows","10.0","https://app.prolific.com/","en-GB,en;q=0.9","677fb45dee7e90f416b55aea","683db9eb0562dbf637994deb","6880818ce35a7fe77b2fffda","2","1","677fb45dee7e90f416b55aea","2","1","2025-07-23T06:42:40.267Z","","","","","","","","","","","MotivationQ","","50","","","","","","","","","","","","","","","","","","","","","","","","","","","","",""
"","","","","ctl-task-cpt","44","737763","0.0-5.0-0.7","143","1","2025-07-23 06:30:50","1f75c3e559b7213887762d5229550c2b","194.152.129.18","Mozilla/5.0 (Windows NT 10.0; Win64; x64) AppleWebKit/537.36 (KHTML, like Gecko) Chrome/131.0.0.0 Safari/537.36","WebKit","Chrome","131.0.0.0","Windows","10.0","https://app.prolific.com/","en-GB,en;q=0.9","677fb45dee7e90f416b55aea","683db9eb0562dbf637994deb","6880818ce35a7fe77b2fffda","2","1","677fb45dee7e90f416b55aea","2","1","2025-07-23T06:43:13.412Z","","","","","","","","","","","","","","win-only","2","g1:SE,g2:NW","0.3","8","0","711236.6","1909.4","6913","30123.1","1","4","4","6","1","-1","-1","0","0","0","5003.6","3000","-2060","[""down"",""right""]","{""num_key_presses"":6,""num_perfect"":1,""num_errors"":0,""num_randdir"":5,""num_randdir_good_moves"":2,""num_whilered"":0,""num_whileblue"":0,""num_blue"":1,""num_good_moves"":3}","[412.57142857142856,421.47767857142856,0.5,412.57142857142856,421.47767857142856,105.2,412.57142857142856,421.47767857142856,209.4,412.57142857142856,421.47767857142856,319.3,412.57142857142856,421.47767857142856,422.1,412.57142857142856,421.47767857142856,525.1,412.57142857142856,421.47767857142856,626.4,412.57142857142856,421.47767857142856,729.3,412.57142857142856,421.47767857142856,841.5,412.57142857142856,421.47767857142856,942.3,412.57142857142856,421.47767857142856,1051.4,412.57142857142856,421.47767857142856,1154.2,412.57142857142856,421.47767857142856,1259.1,412.57142857142856,421.47767857142856,1359.4,412.57142857142856,421.47767857142856,1463.5,412.57142857142856,421.47767857142856,1567.1,412.57142857142856,421.47767857142856,1675,412.57142857142856,421.47767857142856,1776.9,412.57142857142856,421.47767857142856,1878.6,412.57142857142856,421.47767857142856,1991.4,412.57142857142856,421.47767857142856,2091.9,412.57142857142856,421.47767857142856,2193.5,412.57142857142856,421.47767857142856,2298.8,412.57142857142856,421.47767857142856,2402.9,412.57142857142856,421.47767857142856,2503,412.57142857142856,421.47767857142856,2609.1,412.57142857142856,421.47767857142856,2712.1,412.57142857142856,421.47767857142856,2812.4,412.57142857142856,421.47767857142856,2913.4,412.57142857142856,421.47767857142856,3020.9,412.57142857142856,421.47767857142856,3123.8,412.57142857142856,421.47767857142856,3227.1,412.57142857142856,421.47767857142856,3332.6,412.57142857142856,421.47767857142856,3433.1,412.57142857142856,421.47767857142856,3533.4,412.57142857142856,421.47767857142856,3637.2,412.57142857142856,421.47767857142856,3737.5,412.57142857142856,421.47767857142856,3841.4,412.57142857142856,421.47767857142856,3943.3,412.57142857142856,421.47767857142856,4046.5,412.57142857142856,421.47767857142856,4146.6,412.57142857142856,421.47767857142856,4253.1,412.57142857142856,421.47767857142856,4359.5,412.57142857142856,421.47767857142856,4462.5,412.57142857142856,421.47767857142856,4572.8,412.57142857142856,421.47767857142856,4675.8,412.57142857142856,421.47767857142856,4776.8,412.57142857142856,421.47767857142856,4887,412.57142857142856,421.47767857142856,4993.3]","[2281.2,2281.2,1000,0,1281.2,""oops"",""down"",""left"",""bad_move"",5803.8,3521.4,2914.3,2282.4,607.1,""oops"",""down"",""left"",""bad_move"",8349.9,2545,2060,5804.9,485,""oops"",""down"",""right"",""good_move"",14819.7,6467.9,2951.5,11533.5,334.7,""smooth"",""down"",""down"",""good_move"",17239.1,2418.8,1997,14820.3,421.8,""oops"",""down"",""left"",""bad_move"",20511.9,3272.3,2748,17239.6,524.3,""oops"",""right"",""right"",""good_move""]","",""
"20134","","<div style=""width:500px;"">
  <p>What determined the result of this run?</p>
  </div>","62","html-slider-response","45","757899","0.0-5.0-1.7","143","1","2025-07-23 06:30:50","1f75c3e559b7213887762d5229550c2b","194.152.129.18","Mozilla/5.0 (Windows NT 10.0; Win64; x64) AppleWebKit/537.36 (KHTML, like Gecko) Chrome/131.0.0.0 Safari/537.36","WebKit","Chrome","131.0.0.0","Windows","10.0","https://app.prolific.com/","en-GB,en;q=0.9","677fb45dee7e90f416b55aea","683db9eb0562dbf637994deb","6880818ce35a7fe77b2fffda","2","1","677fb45dee7e90f416b55aea","2","1","2025-07-23T06:43:33.548Z","","","","","","","","","","","AttribQ","","50","","","","","","","","","","","","","","","","","","","","","","","","","","","","",""
"3255","","<div style=""width:500px;"">
  <p>How much control did you have over the ball?</p>
  </div>","66","html-slider-response","46","761156","0.0-5.0-2.7","143","1","2025-07-23 06:30:50","1f75c3e559b7213887762d5229550c2b","194.152.129.18","Mozilla/5.0 (Windows NT 10.0; Win64; x64) AppleWebKit/537.36 (KHTML, like Gecko) Chrome/131.0.0.0 Safari/537.36","WebKit","Chrome","131.0.0.0","Windows","10.0","https://app.prolific.com/","en-GB,en;q=0.9","677fb45dee7e90f416b55aea","683db9eb0562dbf637994deb","6880818ce35a7fe77b2fffda","2","1","677fb45dee7e90f416b55aea","2","1","2025-07-23T06:43:36.805Z","","","","","","","","","","","ControlQ","","50","","","","","","","","","","","","","","","","","","","","","","","","","","","","",""
"14373","","<div style=""width:500px;"">
  <p>How would you describe your current emotional state?</p>
  </div>","69","html-slider-response","47","775530","0.0-5.0-3.7","143","1","2025-07-23 06:30:50","1f75c3e559b7213887762d5229550c2b","194.152.129.18","Mozilla/5.0 (Windows NT 10.0; Win64; x64) AppleWebKit/537.36 (KHTML, like Gecko) Chrome/131.0.0.0 Safari/537.36","WebKit","Chrome","131.0.0.0","Windows","10.0","https://app.prolific.com/","en-GB,en;q=0.9","677fb45dee7e90f416b55aea","683db9eb0562dbf637994deb","6880818ce35a7fe77b2fffda","2","1","677fb45dee7e90f416b55aea","2","1","2025-07-23T06:43:51.179Z","","","","","","","","","","","StressQ","","50","","","","","","","","","","","","","","","","","","","","","","","","","","","","",""
"5543","","<div style=""width:500px;"">
  <p>What best describes how you currently feel?</p>
  </div>","70","html-slider-response","48","781074","0.0-5.0-4.7","143","1","2025-07-23 06:30:50","1f75c3e559b7213887762d5229550c2b","194.152.129.18","Mozilla/5.0 (Windows NT 10.0; Win64; x64) AppleWebKit/537.36 (KHTML, like Gecko) Chrome/131.0.0.0 Safari/537.36","WebKit","Chrome","131.0.0.0","Windows","10.0","https://app.prolific.com/","en-GB,en;q=0.9","677fb45dee7e90f416b55aea","683db9eb0562dbf637994deb","6880818ce35a7fe77b2fffda","2","1","677fb45dee7e90f416b55aea","2","1","2025-07-23T06:43:56.723Z","","","","","","","","","","","MotivationQ","","50","","","","","","","","","","","","","","","","","","","","","","","","","","","","",""
"","","","","ctl-task-cpt","49","804036","0.0-5.0-0.8","143","1","2025-07-23 06:30:50","1f75c3e559b7213887762d5229550c2b","194.152.129.18","Mozilla/5.0 (Windows NT 10.0; Win64; x64) AppleWebKit/537.36 (KHTML, like Gecko) Chrome/131.0.0.0 Safari/537.36","WebKit","Chrome","131.0.0.0","Windows","10.0","https://app.prolific.com/","en-GB,en;q=0.9","677fb45dee7e90f416b55aea","683db9eb0562dbf637994deb","6880818ce35a7fe77b2fffda","2","1","677fb45dee7e90f416b55aea","2","1","2025-07-23T06:44:19.685Z","","","","","","","","","","","","","","win-only","2","g1:SE,g2:NW","0.2","9","0","787695.1","3047.4","8051.6","19939.8","1","4","4","6","2","-4","-4","0","0","0","5004.2","3000","-2370","[""left"",""up""]","{""num_key_presses"":3,""num_perfect"":0,""num_errors"":0,""num_randdir"":3,""num_randdir_good_moves"":2,""num_whilered"":0,""num_whileblue"":0,""num_blue"":0,""num_good_moves"":2}","[416.57142857142856,418.47767857142856,0.8,416.57142857142856,418.47767857142856,103.2,416.57142857142856,418.47767857142856,212.9,416.57142857142856,418.47767857142856,313.8,416.57142857142856,418.47767857142856,415.3,416.57142857142856,418.47767857142856,518.6,416.57142857142856,418.47767857142856,618.6,416.57142857142856,418.47767857142856,720.4,416.57142857142856,418.47767857142856,830.1,416.57142857142856,418.47767857142856,934.1,416.57142857142856,418.47767857142856,1048,416.57142857142856,418.47767857142856,1153.5,416.57142857142856,418.47767857142856,1254.4,416.57142857142856,418.47767857142856,1358.7,416.57142857142856,418.47767857142856,1461.6,416.57142857142856,418.47767857142856,1568.2,416.57142857142856,418.47767857142856,1669.9,416.57142857142856,418.47767857142856,1773.8,416.57142857142856,418.47767857142856,1874.2,416.57142857142856,418.47767857142856,1976.8,416.57142857142856,418.47767857142856,2079.7,416.57142857142856,418.47767857142856,2183.9,416.57142857142856,418.47767857142856,2289.9,416.57142857142856,418.47767857142856,2393.9,416.57142857142856,418.47767857142856,2498.9,416.57142857142856,418.47767857142856,2607.6,416.57142857142856,418.47767857142856,2708.8,416.57142857142856,418.47767857142856,2809.9,416.57142857142856,418.47767857142856,2910.5,416.57142857142856,418.47767857142856,3014.4,416.57142857142856,418.47767857142856,3118.6,416.57142857142856,418.47767857142856,3227.4,416.57142857142856,418.47767857142856,3328.6,416.57142857142856,418.47767857142856,3433.2,416.57142857142856,418.47767857142856,3533.7,416.57142857142856,418.47767857142856,3639.6,416.57142857142856,418.47767857142856,3742.6,416.57142857142856,418.47767857142856,3846.3,416.57142857142856,418.47767857142856,3948.3,416.57142857142856,418.47767857142856,4049.8,416.57142857142856,418.47767857142856,4154,416.57142857142856,418.47767857142856,4254.3,416.57142857142856,418.47767857142856,4354.4,416.57142857142856,418.47767857142856,4460.2,416.57142857142856,418.47767857142856,4561.9,416.57142857142856,418.47767857142856,4663.4,416.57142857142856,418.47767857142856,4768,416.57142857142856,418.47767857142856,4868.7,416.57142857142856,418.47767857142856,4969.4]","[2711.8,2711.8,1000,0,1711.8,""oops"",""up"",""up"",""good_move"",6161,3448.7,2595.2,2712.3,853.5,""oops"",""up"",""left"",""good_move"",9343.1,3181.4,2682,6161.7,499.4,""oops"",""up"",""down"",""bad_move""]","",""
"3654","","<div style=""width:500px;"">
  <p>What determined the result of this run?</p>
  </div>","67","html-slider-response","50","807692","0.0-5.0-1.8","143","1","2025-07-23 06:30:50","1f75c3e559b7213887762d5229550c2b","194.152.129.18","Mozilla/5.0 (Windows NT 10.0; Win64; x64) AppleWebKit/537.36 (KHTML, like Gecko) Chrome/131.0.0.0 Safari/537.36","WebKit","Chrome","131.0.0.0","Windows","10.0","https://app.prolific.com/","en-GB,en;q=0.9","677fb45dee7e90f416b55aea","683db9eb0562dbf637994deb","6880818ce35a7fe77b2fffda","2","1","677fb45dee7e90f416b55aea","2","1","2025-07-23T06:44:23.341Z","","","","","","","","","","","AttribQ","","50","","","","","","","","","","","","","","","","","","","","","","","","","","","","",""
"5522","","<div style=""width:500px;"">
  <p>How much control did you have over the ball?</p>
  </div>","64","html-slider-response","51","813215","0.0-5.0-2.8","143","1","2025-07-23 06:30:50","1f75c3e559b7213887762d5229550c2b","194.152.129.18","Mozilla/5.0 (Windows NT 10.0; Win64; x64) AppleWebKit/537.36 (KHTML, like Gecko) Chrome/131.0.0.0 Safari/537.36","WebKit","Chrome","131.0.0.0","Windows","10.0","https://app.prolific.com/","en-GB,en;q=0.9","677fb45dee7e90f416b55aea","683db9eb0562dbf637994deb","6880818ce35a7fe77b2fffda","2","1","677fb45dee7e90f416b55aea","2","1","2025-07-23T06:44:28.864Z","","","","","","","","","","","ControlQ","","50","","","","","","","","","","","","","","","","","","","","","","","","","","","","",""
"12984","","<div style=""width:500px;"">
  <p>How would you describe your current emotional state?</p>
  </div>","63","html-slider-response","52","826200","0.0-5.0-3.8","143","1","2025-07-23 06:30:50","1f75c3e559b7213887762d5229550c2b","194.152.129.18","Mozilla/5.0 (Windows NT 10.0; Win64; x64) AppleWebKit/537.36 (KHTML, like Gecko) Chrome/131.0.0.0 Safari/537.36","WebKit","Chrome","131.0.0.0","Windows","10.0","https://app.prolific.com/","en-GB,en;q=0.9","677fb45dee7e90f416b55aea","683db9eb0562dbf637994deb","6880818ce35a7fe77b2fffda","2","1","677fb45dee7e90f416b55aea","2","1","2025-07-23T06:44:41.849Z","","","","","","","","","","","StressQ","","50","","","","","","","","","","","","","","","","","","","","","","","","","","","","",""
"4876","","<div style=""width:500px;"">
  <p>What best describes how you currently feel?</p>
  </div>","63","html-slider-response","53","831079","0.0-5.0-4.8","143","1","2025-07-23 06:30:50","1f75c3e559b7213887762d5229550c2b","194.152.129.18","Mozilla/5.0 (Windows NT 10.0; Win64; x64) AppleWebKit/537.36 (KHTML, like Gecko) Chrome/131.0.0.0 Safari/537.36","WebKit","Chrome","131.0.0.0","Windows","10.0","https://app.prolific.com/","en-GB,en;q=0.9","677fb45dee7e90f416b55aea","683db9eb0562dbf637994deb","6880818ce35a7fe77b2fffda","2","1","677fb45dee7e90f416b55aea","2","1","2025-07-23T06:44:46.728Z","","","","","","","","","","","MotivationQ","","50","","","","","","","","","","","","","","","","","","","","","","","","","","","","",""
"","","","","ctl-task-cpt","54","878590","0.0-5.0-0.9","143","1","2025-07-23 06:30:50","1f75c3e559b7213887762d5229550c2b","194.152.129.18","Mozilla/5.0 (Windows NT 10.0; Win64; x64) AppleWebKit/537.36 (KHTML, like Gecko) Chrome/131.0.0.0 Safari/537.36","WebKit","Chrome","131.0.0.0","Windows","10.0","https://app.prolific.com/","en-GB,en;q=0.9","677fb45dee7e90f416b55aea","683db9eb0562dbf637994deb","6880818ce35a7fe77b2fffda","2","1","677fb45dee7e90f416b55aea","2","1","2025-07-23T06:45:34.239Z","","","","","","","","","","","","","","win-only","2","g1:SE,g2:NW","0.4","10","0","837700.5","1480.9","6482.8","44500.7","1","4","8","6","1","-1","-2","0","0","0","5001.9","3000","-2280","[""down"",""right""]","{""num_key_presses"":7,""num_perfect"":2,""num_errors"":1,""num_randdir"":4,""num_randdir_good_moves"":0,""num_whilered"":0,""num_whileblue"":1,""num_blue"":5,""num_good_moves"":2}","[420.57142857142856,408.47767857142856,0.5,420.57142857142856,408.47767857142856,104.5,420.57142857142856,408.47767857142856,206.2,420.57142857142856,408.47767857142856,307.9,420.57142857142856,408.47767857142856,408.5,420.57142857142856,408.47767857142856,508.6,420.57142857142856,408.47767857142856,610.5,420.57142857142856,408.47767857142856,710.6,420.57142857142856,408.47767857142856,813.7,420.57142857142856,408.47767857142856,921.5,420.57142857142856,408.47767857142856,1025,420.57142857142856,408.47767857142856,1126.1,420.57142857142856,408.47767857142856,1236.9,420.57142857142856,408.47767857142856,1342,420.57142857142856,408.47767857142856,1444.8,420.57142857142856,408.47767857142856,1547.4,420.57142857142856,408.47767857142856,1651.2,420.57142857142856,408.47767857142856,1754.4,420.57142857142856,408.47767857142856,1856.9,420.57142857142856,408.47767857142856,1959.8,420.57142857142856,408.47767857142856,2061.6,420.57142857142856,408.47767857142856,2170.3,420.57142857142856,408.47767857142856,2276.6,420.57142857142856,408.47767857142856,2380.1,420.57142857142856,408.47767857142856,2480.5,420.57142857142856,408.47767857142856,2590.8,420.57142857142856,408.47767857142856,2696.6,420.57142857142856,408.47767857142856,2801.8,420.57142857142856,408.47767857142856,2907.2,420.57142857142856,408.47767857142856,3009.5,420.57142857142856,408.47767857142856,3110.7,420.57142857142856,408.47767857142856,3211,420.57142857142856,408.47767857142856,3311.1,420.57142857142856,408.47767857142856,3415.1,420.57142857142856,408.47767857142856,3522.2,420.57142857142856,408.47767857142856,3625.4,420.57142857142856,408.47767857142856,3725.9,420.57142857142856,408.47767857142856,3827,420.57142857142856,408.47767857142856,3930.1,420.57142857142856,408.47767857142856,4033.1,420.57142857142856,408.47767857142856,4141.4,420.57142857142856,408.47767857142856,4242.4,420.57142857142856,408.47767857142856,4345.3,420.57142857142856,408.47767857142856,4456.4,420.57142857142856,408.47767857142856,4557.5,420.57142857142856,408.47767857142856,4662.2,420.57142857142856,408.47767857142856,4764.4,420.57142857142856,408.47767857142856,4864.7,420.57142857142856,408.47767857142856,4967.3]","[1603.5,1603.5,1000,0,603.5,""oops"",""down"",""up"",""bad_move"",4253.8,2649.8,2143.6,1604,506.2,""smooth"",""right"",""right"",""good_move"",8039.1,3784.9,2836.5,4254.2,948.4,""oops"",""right"",""left"",""bad_move"",15912.6,7872.4,3061.5,11943.7,907.4,""oops"",""down"",""left"",""bad_move"",21464.8,5552,1921.1,19077.8,465.9,""smooth"",""down"",""down"",""good_move"",24271,2805,2336.9,21466,468.1,""oops"",""down"",""left"",""bad_move"",31742.7,7470.8,3090.1,28178.8,473.9,""while_blue"",""down"",""up"",""bad_move""]","",""
"5982","","<div style=""width:500px;"">
  <p>What determined the result of this run?</p>
  </div>","68","html-slider-response","55","884573","0.0-5.0-1.9","143","1","2025-07-23 06:30:50","1f75c3e559b7213887762d5229550c2b","194.152.129.18","Mozilla/5.0 (Windows NT 10.0; Win64; x64) AppleWebKit/537.36 (KHTML, like Gecko) Chrome/131.0.0.0 Safari/537.36","WebKit","Chrome","131.0.0.0","Windows","10.0","https://app.prolific.com/","en-GB,en;q=0.9","677fb45dee7e90f416b55aea","683db9eb0562dbf637994deb","6880818ce35a7fe77b2fffda","2","1","677fb45dee7e90f416b55aea","2","1","2025-07-23T06:45:40.222Z","","","","","","","","","","","AttribQ","","50","","","","","","","","","","","","","","","","","","","","","","","","","","","","",""
"5476","","<div style=""width:500px;"">
  <p>How much control did you have over the ball?</p>
  </div>","68","html-slider-response","56","890051","0.0-5.0-2.9","143","1","2025-07-23 06:30:50","1f75c3e559b7213887762d5229550c2b","194.152.129.18","Mozilla/5.0 (Windows NT 10.0; Win64; x64) AppleWebKit/537.36 (KHTML, like Gecko) Chrome/131.0.0.0 Safari/537.36","WebKit","Chrome","131.0.0.0","Windows","10.0","https://app.prolific.com/","en-GB,en;q=0.9","677fb45dee7e90f416b55aea","683db9eb0562dbf637994deb","6880818ce35a7fe77b2fffda","2","1","677fb45dee7e90f416b55aea","2","1","2025-07-23T06:45:45.701Z","","","","","","","","","","","ControlQ","","50","","","","","","","","","","","","","","","","","","","","","","","","","","","","",""
"4237","","<div style=""width:500px;"">
  <p>How would you describe your current emotional state?</p>
  </div>","72","html-slider-response","57","894292","0.0-5.0-3.9","143","1","2025-07-23 06:30:50","1f75c3e559b7213887762d5229550c2b","194.152.129.18","Mozilla/5.0 (Windows NT 10.0; Win64; x64) AppleWebKit/537.36 (KHTML, like Gecko) Chrome/131.0.0.0 Safari/537.36","WebKit","Chrome","131.0.0.0","Windows","10.0","https://app.prolific.com/","en-GB,en;q=0.9","677fb45dee7e90f416b55aea","683db9eb0562dbf637994deb","6880818ce35a7fe77b2fffda","2","1","677fb45dee7e90f416b55aea","2","1","2025-07-23T06:45:49.941Z","","","","","","","","","","","StressQ","","50","","","","","","","","","","","","","","","","","","","","","","","","","","","","",""
"5472","","<div style=""width:500px;"">
  <p>What best describes how you currently feel?</p>
  </div>","67","html-slider-response","58","899766","0.0-5.0-4.9","143","1","2025-07-23 06:30:50","1f75c3e559b7213887762d5229550c2b","194.152.129.18","Mozilla/5.0 (Windows NT 10.0; Win64; x64) AppleWebKit/537.36 (KHTML, like Gecko) Chrome/131.0.0.0 Safari/537.36","WebKit","Chrome","131.0.0.0","Windows","10.0","https://app.prolific.com/","en-GB,en;q=0.9","677fb45dee7e90f416b55aea","683db9eb0562dbf637994deb","6880818ce35a7fe77b2fffda","2","1","677fb45dee7e90f416b55aea","2","1","2025-07-23T06:45:55.415Z","","","","","","","","","","","MotivationQ","","50","","","","","","","","","","","","","","","","","","","","","","","","","","","","",""
"","","","","ctl-task-cpt","59","948350","0.0-5.0-0.10","143","1","2025-07-23 06:30:50","1f75c3e559b7213887762d5229550c2b","194.152.129.18","Mozilla/5.0 (Windows NT 10.0; Win64; x64) AppleWebKit/537.36 (KHTML, like Gecko) Chrome/131.0.0.0 Safari/537.36","WebKit","Chrome","131.0.0.0","Windows","10.0","https://app.prolific.com/","en-GB,en;q=0.9","677fb45dee7e90f416b55aea","683db9eb0562dbf637994deb","6880818ce35a7fe77b2fffda","2","1","677fb45dee7e90f416b55aea","2","1","2025-07-23T06:46:43.999Z","","","","","","","","","","","","","","win-only","0","g1:NW,g2:SE","0.5","11","0","906383.1","1862.1","6869.9","45556.6","1","4","4","6","2","-4","-4","0","0","0","5007.8","3000","-2215","[""down"",""right""]","{""num_key_presses"":7,""num_perfect"":3,""num_errors"":0,""num_randdir"":4,""num_randdir_good_moves"":1,""num_whilered"":0,""num_whileblue"":0,""num_blue"":4,""num_good_moves"":4}","[412.57142857142856,422.47767857142856,0.7,412.57142857142856,422.47767857142856,103,412.57142857142856,422.47767857142856,206.3,412.57142857142856,422.47767857142856,309.7,412.57142857142856,422.47767857142856,409.8,412.57142857142856,422.47767857142856,510.2,412.57142857142856,422.47767857142856,611.7,412.57142857142856,422.47767857142856,717.3,412.57142857142856,422.47767857142856,822.1,412.57142857142856,422.47767857142856,926.4,412.57142857142856,422.47767857142856,1030,412.57142857142856,422.47767857142856,1131.7,412.57142857142856,422.47767857142856,1233.9,412.57142857142856,422.47767857142856,1335.6,412.57142857142856,422.47767857142856,1438.2,412.57142857142856,422.47767857142856,1540.7,412.57142857142856,422.47767857142856,1640.7,412.57142857142856,422.47767857142856,1742.4,412.57142857142856,422.47767857142856,1843.3,412.57142857142856,422.47767857142856,1943.7,412.57142857142856,422.47767857142856,2046.8,412.57142857142856,422.47767857142856,2149,412.57142857142856,422.47767857142856,2250.9,412.57142857142856,422.47767857142856,2357.4,412.57142857142856,422.47767857142856,2461.1,412.57142857142856,422.47767857142856,2564.5,412.57142857142856,422.47767857142856,2669.7,412.57142857142856,422.47767857142856,2779.6,412.57142857142856,422.47767857142856,2887.6,412.57142857142856,422.47767857142856,2989.1,412.57142857142856,422.47767857142856,3092.8,412.57142857142856,422.47767857142856,3197.4,412.57142857142856,422.47767857142856,3299.9,412.57142857142856,422.47767857142856,3407,412.57142857142856,422.47767857142856,3512.7,412.57142857142856,422.47767857142856,3614.2,412.57142857142856,422.47767857142856,3722.1,412.57142857142856,422.47767857142856,3827,412.57142857142856,422.47767857142856,3929.6,412.57142857142856,422.47767857142856,4035.6,412.57142857142856,422.47767857142856,4135.6,412.57142857142856,422.47767857142856,4241.8,412.57142857142856,422.47767857142856,4345.4,412.57142857142856,422.47767857142856,4451.4,412.57142857142856,422.47767857142856,4556.4,412.57142857142856,422.47767857142856,4658.3,412.57142857142856,422.47767857142856,4759.8,412.57142857142856,422.47767857142856,4860.1,412.57142857142856,422.47767857142856,4962.4]","[5983,5983,3437.6,2006.7,538.7,""oops"",""right"",""right"",""good_move"",13076.5,7093,2749.7,9674.4,652.4,""smooth"",""right"",""right"",""good_move"",16497.9,3421,2717.3,13076.9,703.7,""smooth"",""right"",""right"",""good_move"",20195.7,3697.6,3160.3,16498.2,537.3,""oops"",""down"",""up"",""bad_move"",23267.1,3070.1,2384.2,20197,685.9,""smooth"",""down"",""down"",""good_move"",30185,6917.2,2952.7,26607.2,625.1,""oops"",""down"",""left"",""bad_move"",36027.4,5841.3,1729.7,33742.6,555.1,""oops"",""down"",""left"",""bad_move""]","",""
"3571","","<div style=""width:500px;"">
  <p>What determined the result of this run?</p>
  </div>","64","html-slider-response","60","951922","0.0-5.0-1.10","143","1","2025-07-23 06:30:50","1f75c3e559b7213887762d5229550c2b","194.152.129.18","Mozilla/5.0 (Windows NT 10.0; Win64; x64) AppleWebKit/537.36 (KHTML, like Gecko) Chrome/131.0.0.0 Safari/537.36","WebKit","Chrome","131.0.0.0","Windows","10.0","https://app.prolific.com/","en-GB,en;q=0.9","677fb45dee7e90f416b55aea","683db9eb0562dbf637994deb","6880818ce35a7fe77b2fffda","2","1","677fb45dee7e90f416b55aea","2","1","2025-07-23T06:46:47.571Z","","","","","","","","","","","AttribQ","","50","","","","","","","","","","","","","","","","","","","","","","","","","","","","",""
"3115","","<div style=""width:500px;"">
  <p>How much control did you have over the ball?</p>
  </div>","68","html-slider-response","61","955040","0.0-5.0-2.10","143","1","2025-07-23 06:30:50","1f75c3e559b7213887762d5229550c2b","194.152.129.18","Mozilla/5.0 (Windows NT 10.0; Win64; x64) AppleWebKit/537.36 (KHTML, like Gecko) Chrome/131.0.0.0 Safari/537.36","WebKit","Chrome","131.0.0.0","Windows","10.0","https://app.prolific.com/","en-GB,en;q=0.9","677fb45dee7e90f416b55aea","683db9eb0562dbf637994deb","6880818ce35a7fe77b2fffda","2","1","677fb45dee7e90f416b55aea","2","1","2025-07-23T06:46:50.689Z","","","","","","","","","","","ControlQ","","50","","","","","","","","","","","","","","","","","","","","","","","","","","","","",""
"7847","","<div style=""width:500px;"">
  <p>How would you describe your current emotional state?</p>
  </div>","67","html-slider-response","62","962887","0.0-5.0-3.10","143","1","2025-07-23 06:30:50","1f75c3e559b7213887762d5229550c2b","194.152.129.18","Mozilla/5.0 (Windows NT 10.0; Win64; x64) AppleWebKit/537.36 (KHTML, like Gecko) Chrome/131.0.0.0 Safari/537.36","WebKit","Chrome","131.0.0.0","Windows","10.0","https://app.prolific.com/","en-GB,en;q=0.9","677fb45dee7e90f416b55aea","683db9eb0562dbf637994deb","6880818ce35a7fe77b2fffda","2","1","677fb45dee7e90f416b55aea","2","1","2025-07-23T06:46:58.537Z","","","","","","","","","","","StressQ","","50","","","","","","","","","","","","","","","","","","","","","","","","","","","","",""
"8589","","<div style=""width:500px;"">
  <p>What best describes how you currently feel?</p>
  </div>","69","html-slider-response","63","971478","0.0-5.0-4.10","143","1","2025-07-23 06:30:50","1f75c3e559b7213887762d5229550c2b","194.152.129.18","Mozilla/5.0 (Windows NT 10.0; Win64; x64) AppleWebKit/537.36 (KHTML, like Gecko) Chrome/131.0.0.0 Safari/537.36","WebKit","Chrome","131.0.0.0","Windows","10.0","https://app.prolific.com/","en-GB,en;q=0.9","677fb45dee7e90f416b55aea","683db9eb0562dbf637994deb","6880818ce35a7fe77b2fffda","2","1","677fb45dee7e90f416b55aea","2","1","2025-07-23T06:47:07.127Z","","","","","","","","","","","MotivationQ","","50","","","","","","","","","","","","","","","","","","","","","","","","","","","","",""
"","","","","ctl-task-cpt","64","1013051","0.0-5.0-0.11","143","1","2025-07-23 06:30:50","1f75c3e559b7213887762d5229550c2b","194.152.129.18","Mozilla/5.0 (Windows NT 10.0; Win64; x64) AppleWebKit/537.36 (KHTML, like Gecko) Chrome/131.0.0.0 Safari/537.36","WebKit","Chrome","131.0.0.0","Windows","10.0","https://app.prolific.com/","en-GB,en;q=0.9","677fb45dee7e90f416b55aea","683db9eb0562dbf637994deb","6880818ce35a7fe77b2fffda","2","1","677fb45dee7e90f416b55aea","2","1","2025-07-23T06:47:48.700Z","","","","","","","","","","","","","","win-only","3","g1:SW,g2:NE","0.6","12","0","978095.3","4087.9","9093.5","38551.9","1","4","8","6","2","-8","-8","0","0","0","5005.6","3000","-1910","[""up"",""right""]","{""num_key_presses"":4,""num_perfect"":2,""num_errors"":0,""num_randdir"":2,""num_randdir_good_moves"":1,""num_whilered"":0,""num_whileblue"":0,""num_blue"":4,""num_good_moves"":3}","[422.57142857142856,418.47767857142856,0.7,422.57142857142856,418.47767857142856,103.5,422.57142857142856,418.47767857142856,207.7,422.57142857142856,418.47767857142856,307.8,422.57142857142856,418.47767857142856,408.6,422.57142857142856,418.47767857142856,521.7,422.57142857142856,418.47767857142856,625.3,422.57142857142856,418.47767857142856,730.6,422.57142857142856,418.47767857142856,834.2,422.57142857142856,418.47767857142856,937.4,422.57142857142856,418.47767857142856,1039.9,422.57142857142856,418.47767857142856,1140.4,422.57142857142856,418.47767857142856,1247.8,422.57142857142856,418.47767857142856,1352.3,422.57142857142856,418.47767857142856,1455.8,422.57142857142856,418.47767857142856,1561.2,422.57142857142856,418.47767857142856,1665.8,422.57142857142856,418.47767857142856,1769.5,422.57142857142856,418.47767857142856,1874.8,422.57142857142856,418.47767857142856,1978.3,422.57142857142856,418.47767857142856,2087.3,422.57142857142856,418.47767857142856,2188.4,422.57142857142856,418.47767857142856,2289.9,422.57142857142856,418.47767857142856,2390.1,422.57142857142856,418.47767857142856,2493.7,422.57142857142856,418.47767857142856,2600.4,422.57142857142856,418.47767857142856,2706.8,422.57142857142856,418.47767857142856,2808.9,422.57142857142856,418.47767857142856,2910.5,422.57142857142856,418.47767857142856,3021.1,422.57142857142856,418.47767857142856,3124.9,422.57142857142856,418.47767857142856,3228.2,422.57142857142856,418.47767857142856,3338.1,422.57142857142856,418.47767857142856,3442.2,422.57142857142856,418.47767857142856,3550.3,422.57142857142856,418.47767857142856,3652.7,422.57142857142856,418.47767857142856,3754.2,422.57142857142856,418.47767857142856,3854.7,422.57142857142856,418.47767857142856,3957.9,422.57142857142856,418.47767857142856,4059.9,422.57142857142856,418.47767857142856,4172.5,422.57142857142856,418.47767857142856,4273.8,422.57142857142856,418.47767857142856,4376.5,422.57142857142856,418.47767857142856,4476.6,422.57142857142856,418.47767857142856,4580,422.57142857142856,418.47767857142856,4690.7,422.57142857142856,418.47767857142856,4790.8,422.57142857142856,418.47767857142856,4893.6,422.57142857142856,418.47767857142856,4997.9]","[2701.4,2701.4,1000,0,1701.4,""oops"",""right"",""right"",""good_move"",5296.2,2594.2,1641.3,2702,952.9,""smooth"",""right"",""right"",""good_move"",8142,2844.4,2240.7,5297.6,603.7,""oops"",""right"",""down"",""bad_move"",19295.4,11152.9,2925.4,15863,507,""smooth"",""up"",""up"",""good_move""]","",""
"4211","","<div style=""width:500px;"">
  <p>What determined the result of this run?</p>
  </div>","67","html-slider-response","65","1017264","0.0-5.0-1.11","143","1","2025-07-23 06:30:50","1f75c3e559b7213887762d5229550c2b","194.152.129.18","Mozilla/5.0 (Windows NT 10.0; Win64; x64) AppleWebKit/537.36 (KHTML, like Gecko) Chrome/131.0.0.0 Safari/537.36","WebKit","Chrome","131.0.0.0","Windows","10.0","https://app.prolific.com/","en-GB,en;q=0.9","677fb45dee7e90f416b55aea","683db9eb0562dbf637994deb","6880818ce35a7fe77b2fffda","2","1","677fb45dee7e90f416b55aea","2","1","2025-07-23T06:47:52.913Z","","","","","","","","","","","AttribQ","","50","","","","","","","","","","","","","","","","","","","","","","","","","","","","",""
"4850","","<div style=""width:500px;"">
  <p>How much control did you have over the ball?</p>
  </div>","65","html-slider-response","66","1022115","0.0-5.0-2.11","143","1","2025-07-23 06:30:50","1f75c3e559b7213887762d5229550c2b","194.152.129.18","Mozilla/5.0 (Windows NT 10.0; Win64; x64) AppleWebKit/537.36 (KHTML, like Gecko) Chrome/131.0.0.0 Safari/537.36","WebKit","Chrome","131.0.0.0","Windows","10.0","https://app.prolific.com/","en-GB,en;q=0.9","677fb45dee7e90f416b55aea","683db9eb0562dbf637994deb","6880818ce35a7fe77b2fffda","2","1","677fb45dee7e90f416b55aea","2","1","2025-07-23T06:47:57.764Z","","","","","","","","","","","ControlQ","","50","","","","","","","","","","","","","","","","","","","","","","","","","","","","",""
"4926","","<div style=""width:500px;"">
  <p>How would you describe your current emotional state?</p>
  </div>","69","html-slider-response","67","1027043","0.0-5.0-3.11","143","1","2025-07-23 06:30:50","1f75c3e559b7213887762d5229550c2b","194.152.129.18","Mozilla/5.0 (Windows NT 10.0; Win64; x64) AppleWebKit/537.36 (KHTML, like Gecko) Chrome/131.0.0.0 Safari/537.36","WebKit","Chrome","131.0.0.0","Windows","10.0","https://app.prolific.com/","en-GB,en;q=0.9","677fb45dee7e90f416b55aea","683db9eb0562dbf637994deb","6880818ce35a7fe77b2fffda","2","1","677fb45dee7e90f416b55aea","2","1","2025-07-23T06:48:02.692Z","","","","","","","","","","","StressQ","","50","","","","","","","","","","","","","","","","","","","","","","","","","","","","",""
"3557","","<div style=""width:500px;"">
  <p>What best describes how you currently feel?</p>
  </div>","73","html-slider-response","68","1030601","0.0-5.0-4.11","143","1","2025-07-23 06:30:50","1f75c3e559b7213887762d5229550c2b","194.152.129.18","Mozilla/5.0 (Windows NT 10.0; Win64; x64) AppleWebKit/537.36 (KHTML, like Gecko) Chrome/131.0.0.0 Safari/537.36","WebKit","Chrome","131.0.0.0","Windows","10.0","https://app.prolific.com/","en-GB,en;q=0.9","677fb45dee7e90f416b55aea","683db9eb0562dbf637994deb","6880818ce35a7fe77b2fffda","2","1","677fb45dee7e90f416b55aea","2","1","2025-07-23T06:48:06.250Z","","","","","","","","","","","MotivationQ","","50","","","","","","","","","","","","","","","","","","","","","","","","","","","","",""
"","","","","ctl-task-cpt","69","1059915","0.0-5.0-0.12","143","1","2025-07-23 06:30:50","1f75c3e559b7213887762d5229550c2b","194.152.129.18","Mozilla/5.0 (Windows NT 10.0; Win64; x64) AppleWebKit/537.36 (KHTML, like Gecko) Chrome/131.0.0.0 Safari/537.36","WebKit","Chrome","131.0.0.0","Windows","10.0","https://app.prolific.com/","en-GB,en;q=0.9","677fb45dee7e90f416b55aea","683db9eb0562dbf637994deb","6880818ce35a7fe77b2fffda","2","1","677fb45dee7e90f416b55aea","2","1","2025-07-23T06:48:35.565Z","","","","","","","","","","","","","","win-only","1","g1:NE,g2:SW","0.7","13","0","1037218.8","1950.3","6952.6","26294.6","1","4","8","6","1","1","1","1","0","0.007575757575757576","5002.3","3000","1670","[""up"",""right""]","{""num_key_presses"":4,""num_perfect"":2,""num_errors"":0,""num_randdir"":2,""num_randdir_good_moves"":2,""num_whilered"":0,""num_whileblue"":0,""num_blue"":2,""num_good_moves"":4}","[420.57142857142856,412.47767857142856,0.5,420.57142857142856,412.47767857142856,105.1,420.57142857142856,412.47767857142856,210,420.57142857142856,412.47767857142856,313.1,420.57142857142856,412.47767857142856,419.2,420.57142857142856,412.47767857142856,519.4,420.57142857142856,412.47767857142856,621.8,420.57142857142856,412.47767857142856,728,420.57142857142856,412.47767857142856,836.2,420.57142857142856,412.47767857142856,942.6,420.57142857142856,412.47767857142856,1046.1,420.57142857142856,412.47767857142856,1146.8,420.57142857142856,412.47767857142856,1249.7,420.57142857142856,412.47767857142856,1351.7,420.57142857142856,412.47767857142856,1453.5,420.57142857142856,412.47767857142856,1555.1,420.57142857142856,412.47767857142856,1656.1,420.57142857142856,412.47767857142856,1760,420.57142857142856,412.47767857142856,1861,420.57142857142856,412.47767857142856,1966.8,420.57142857142856,412.47767857142856,2074.3,420.57142857142856,412.47767857142856,2178.5,420.57142857142856,412.47767857142856,2281.7,420.57142857142856,412.47767857142856,2392.2,420.57142857142856,412.47767857142856,2495.8,420.57142857142856,412.47767857142856,2597.9,420.57142857142856,412.47767857142856,2701.7,420.57142857142856,412.47767857142856,2813.4,420.57142857142856,412.47767857142856,2920,420.57142857142856,412.47767857142856,3023,420.57142857142856,412.47767857142856,3125.9,420.57142857142856,412.47767857142856,3226.3,420.57142857142856,412.47767857142856,3330,420.57142857142856,412.47767857142856,3435,420.57142857142856,412.47767857142856,3543.5,420.57142857142856,412.47767857142856,3649,420.57142857142856,412.47767857142856,3754.5,420.57142857142856,412.47767857142856,3857.6,420.57142857142856,412.47767857142856,3960.8,420.57142857142856,412.47767857142856,4066.8,420.57142857142856,412.47767857142856,4170.1,420.57142857142856,412.47767857142856,4275.1,420.57142857142856,412.47767857142856,4380.5,420.57142857142856,412.47767857142856,4483.9,420.57142857142856,412.47767857142856,4587.1,420.57142857142856,412.47767857142856,4700.2,420.57142857142856,412.47767857142856,4803.1,420.57142857142856,412.47767857142856,4905.9]","[1943.9,1943.9,1000,0,943.9,""smooth"",""right"",""right"",""good_move"",5552.9,3607.6,3113.3,1945.3,494.3,""oops"",""right"",""up"",""good_move"",12157.2,6603.6,2212.2,9399.1,545.9,""smooth"",""up"",""up"",""good_move"",19141.3,6983.8,2507,16239.3,395,""oops"",""right"",""right"",""good_move""]","",""
"4206","","<div style=""width:500px;"">
  <p>What determined the result of this run?</p>
  </div>","63","html-slider-response","70","1064123","0.0-5.0-1.12","143","1","2025-07-23 06:30:50","1f75c3e559b7213887762d5229550c2b","194.152.129.18","Mozilla/5.0 (Windows NT 10.0; Win64; x64) AppleWebKit/537.36 (KHTML, like Gecko) Chrome/131.0.0.0 Safari/537.36","WebKit","Chrome","131.0.0.0","Windows","10.0","https://app.prolific.com/","en-GB,en;q=0.9","677fb45dee7e90f416b55aea","683db9eb0562dbf637994deb","6880818ce35a7fe77b2fffda","2","1","677fb45dee7e90f416b55aea","2","1","2025-07-23T06:48:39.772Z","","","","","","","","","","","AttribQ","","50","","","","","","","","","","","","","","","","","","","","","","","","","","","","",""
"2889","","<div style=""width:500px;"">
  <p>How much control did you have over the ball?</p>
  </div>","66","html-slider-response","71","1067013","0.0-5.0-2.12","143","1","2025-07-23 06:30:50","1f75c3e559b7213887762d5229550c2b","194.152.129.18","Mozilla/5.0 (Windows NT 10.0; Win64; x64) AppleWebKit/537.36 (KHTML, like Gecko) Chrome/131.0.0.0 Safari/537.36","WebKit","Chrome","131.0.0.0","Windows","10.0","https://app.prolific.com/","en-GB,en;q=0.9","677fb45dee7e90f416b55aea","683db9eb0562dbf637994deb","6880818ce35a7fe77b2fffda","2","1","677fb45dee7e90f416b55aea","2","1","2025-07-23T06:48:42.662Z","","","","","","","","","","","ControlQ","","50","","","","","","","","","","","","","","","","","","","","","","","","","","","","",""
"4890","","<div style=""width:500px;"">
  <p>How would you describe your current emotional state?</p>
  </div>","63","html-slider-response","72","1071905","0.0-5.0-3.12","143","1","2025-07-23 06:30:50","1f75c3e559b7213887762d5229550c2b","194.152.129.18","Mozilla/5.0 (Windows NT 10.0; Win64; x64) AppleWebKit/537.36 (KHTML, like Gecko) Chrome/131.0.0.0 Safari/537.36","WebKit","Chrome","131.0.0.0","Windows","10.0","https://app.prolific.com/","en-GB,en;q=0.9","677fb45dee7e90f416b55aea","683db9eb0562dbf637994deb","6880818ce35a7fe77b2fffda","2","1","677fb45dee7e90f416b55aea","2","1","2025-07-23T06:48:47.554Z","","","","","","","","","","","StressQ","","50","","","","","","","","","","","","","","","","","","","","","","","","","","","","",""
"3684","","<div style=""width:500px;"">
  <p>What best describes how you currently feel?</p>
  </div>","65","html-slider-response","73","1075590","0.0-5.0-4.12","143","1","2025-07-23 06:30:50","1f75c3e559b7213887762d5229550c2b","194.152.129.18","Mozilla/5.0 (Windows NT 10.0; Win64; x64) AppleWebKit/537.36 (KHTML, like Gecko) Chrome/131.0.0.0 Safari/537.36","WebKit","Chrome","131.0.0.0","Windows","10.0","https://app.prolific.com/","en-GB,en;q=0.9","677fb45dee7e90f416b55aea","683db9eb0562dbf637994deb","6880818ce35a7fe77b2fffda","2","1","677fb45dee7e90f416b55aea","2","1","2025-07-23T06:48:51.239Z","","","","","","","","","","","MotivationQ","","50","","","","","","","","","","","","","","","","","","","","","","","","","","","","",""
"","","","","ctl-task-cpt","74","1097229","0.0-5.0-0.13","143","1","2025-07-23 06:30:50","1f75c3e559b7213887762d5229550c2b","194.152.129.18","Mozilla/5.0 (Windows NT 10.0; Win64; x64) AppleWebKit/537.36 (KHTML, like Gecko) Chrome/131.0.0.0 Safari/537.36","WebKit","Chrome","131.0.0.0","Windows","10.0","https://app.prolific.com/","en-GB,en;q=0.9","677fb45dee7e90f416b55aea","683db9eb0562dbf637994deb","6880818ce35a7fe77b2fffda","2","1","677fb45dee7e90f416b55aea","2","1","2025-07-23T06:49:12.878Z","","","","","","","","","","","","","","win-only","3","g1:SW,g2:NE","0.8","14","0","1082209.1","1890.2","6900.2","18608.4","1","4","4","6","1","1","1","2","1","0.015151515151515152","5010","3000","1445","[""down"",""left""]","{""num_key_presses"":4,""num_perfect"":4,""num_errors"":0,""num_randdir"":0,""num_randdir_good_moves"":0,""num_whilered"":0,""num_whileblue"":0,""num_blue"":0,""num_good_moves"":4}","[412.57142857142856,421.47767857142856,0.8,412.57142857142856,421.47767857142856,104.5,412.57142857142856,421.47767857142856,205.6,412.57142857142856,421.47767857142856,306.5,412.57142857142856,421.47767857142856,408.5,412.57142857142856,421.47767857142856,510.9,412.57142857142856,421.47767857142856,611.4,412.57142857142856,421.47767857142856,712.7,412.57142857142856,421.47767857142856,818.6,412.57142857142856,421.47767857142856,920.5,412.57142857142856,421.47767857142856,1023.9,412.57142857142856,421.47767857142856,1129.4,412.57142857142856,421.47767857142856,1234.2,412.57142857142856,421.47767857142856,1341.9,412.57142857142856,421.47767857142856,1445.7,412.57142857142856,421.47767857142856,1547.3,412.57142857142856,421.47767857142856,1649.9,412.57142857142856,421.47767857142856,1755.2,412.57142857142856,421.47767857142856,1861,412.57142857142856,421.47767857142856,1962.9,412.57142857142856,421.47767857142856,2071,412.57142857142856,421.47767857142856,2175.9,412.57142857142856,421.47767857142856,2279,412.57142857142856,421.47767857142856,2379.5,412.57142857142856,421.47767857142856,2485.7,412.57142857142856,421.47767857142856,2588.3,412.57142857142856,421.47767857142856,2689.5,412.57142857142856,421.47767857142856,2794.6,412.57142857142856,421.47767857142856,2895.5,412.57142857142856,421.47767857142856,2999.1,412.57142857142856,421.47767857142856,3104.8,412.57142857142856,421.47767857142856,3209.6,412.57142857142856,421.47767857142856,3314.3,412.57142857142856,421.47767857142856,3421.3,412.57142857142856,421.47767857142856,3526.7,412.57142857142856,421.47767857142856,3627,412.57142857142856,421.47767857142856,3730.7,412.57142857142856,421.47767857142856,3831.1,412.57142857142856,421.47767857142856,3931.7,412.57142857142856,421.47767857142856,4037.1,412.57142857142856,421.47767857142856,4143.8,412.57142857142856,421.47767857142856,4244.1,412.57142857142856,421.47767857142856,4346,412.57142857142856,421.47767857142856,4450.9,412.57142857142856,421.47767857142856,4556.2,412.57142857142856,421.47767857142856,4664.1,412.57142857142856,421.47767857142856,4771.6,412.57142857142856,421.47767857142856,4878.4,412.57142857142856,421.47767857142856,4983]","[1931.8,1931.8,1000,0,931.8,""smooth"",""down"",""down"",""good_move"",4990.6,3058.1,2444.3,1932.6,613.8,""smooth"",""down"",""down"",""good_move"",8138.3,3146.8,2655,4991.5,491.8,""smooth"",""left"",""left"",""good_move"",11497,3357.9,2708.7,8139.1,649.2,""smooth"",""left"",""left"",""good_move""]","",""
"9967","","<div style=""width:500px;"">
  <p>What determined the result of this run?</p>
  </div>","66","html-slider-response","75","1107198","0.0-5.0-1.13","143","1","2025-07-23 06:30:50","1f75c3e559b7213887762d5229550c2b","194.152.129.18","Mozilla/5.0 (Windows NT 10.0; Win64; x64) AppleWebKit/537.36 (KHTML, like Gecko) Chrome/131.0.0.0 Safari/537.36","WebKit","Chrome","131.0.0.0","Windows","10.0","https://app.prolific.com/","en-GB,en;q=0.9","677fb45dee7e90f416b55aea","683db9eb0562dbf637994deb","6880818ce35a7fe77b2fffda","2","1","677fb45dee7e90f416b55aea","2","1","2025-07-23T06:49:22.847Z","","","","","","","","","","","AttribQ","","50","","","","","","","","","","","","","","","","","","","","","","","","","","","","",""
"5611","","<div style=""width:500px;"">
  <p>How much control did you have over the ball?</p>
  </div>","67","html-slider-response","76","1112811","0.0-5.0-2.13","143","1","2025-07-23 06:30:50","1f75c3e559b7213887762d5229550c2b","194.152.129.18","Mozilla/5.0 (Windows NT 10.0; Win64; x64) AppleWebKit/537.36 (KHTML, like Gecko) Chrome/131.0.0.0 Safari/537.36","WebKit","Chrome","131.0.0.0","Windows","10.0","https://app.prolific.com/","en-GB,en;q=0.9","677fb45dee7e90f416b55aea","683db9eb0562dbf637994deb","6880818ce35a7fe77b2fffda","2","1","677fb45dee7e90f416b55aea","2","1","2025-07-23T06:49:28.460Z","","","","","","","","","","","ControlQ","","50","","","","","","","","","","","","","","","","","","","","","","","","","","","","",""
"4498","","<div style=""width:500px;"">
  <p>How would you describe your current emotional state?</p>
  </div>","74","html-slider-response","77","1117311","0.0-5.0-3.13","143","1","2025-07-23 06:30:50","1f75c3e559b7213887762d5229550c2b","194.152.129.18","Mozilla/5.0 (Windows NT 10.0; Win64; x64) AppleWebKit/537.36 (KHTML, like Gecko) Chrome/131.0.0.0 Safari/537.36","WebKit","Chrome","131.0.0.0","Windows","10.0","https://app.prolific.com/","en-GB,en;q=0.9","677fb45dee7e90f416b55aea","683db9eb0562dbf637994deb","6880818ce35a7fe77b2fffda","2","1","677fb45dee7e90f416b55aea","2","1","2025-07-23T06:49:32.960Z","","","","","","","","","","","StressQ","","50","","","","","","","","","","","","","","","","","","","","","","","","","","","","",""
"3529","","<div style=""width:500px;"">
  <p>What best describes how you currently feel?</p>
  </div>","72","html-slider-response","78","1120841","0.0-5.0-4.13","143","1","2025-07-23 06:30:50","1f75c3e559b7213887762d5229550c2b","194.152.129.18","Mozilla/5.0 (Windows NT 10.0; Win64; x64) AppleWebKit/537.36 (KHTML, like Gecko) Chrome/131.0.0.0 Safari/537.36","WebKit","Chrome","131.0.0.0","Windows","10.0","https://app.prolific.com/","en-GB,en;q=0.9","677fb45dee7e90f416b55aea","683db9eb0562dbf637994deb","6880818ce35a7fe77b2fffda","2","1","677fb45dee7e90f416b55aea","2","1","2025-07-23T06:49:36.490Z","","","","","","","","","","","MotivationQ","","50","","","","","","","","","","","","","","","","","","","","","","","","","","","","",""
