"rt","response_timestamp","stimulus","response","trial_type","trial_index","time_elapsed","internal_node_id","run_id","condition","recorded_at","source_code_version","ip","user_agent","device","browser","browser_version","platform","platform_version","referer","accept_language","PROLIFIC_PID","STUDY_ID","SESSION_ID","WEEK","BATCH","prolific_id","week","batch","realtime","success","responses","item_order","radio_event_ids","radio_event_times","key_event_times","mouse_event_times","straightlining","zigzagging","honeypot","eventType","view_history","slider_start","which_type","canvas_config","goals_layout","control_level","trial_number","tutorial_trial_number","trial_start_time","phase1_start_time","phase2_start_time","phase3_start_time","goal_1_value","goal_1_distance","goal_2_value","goal_2_distance","goal_selected","outcome","outcome_total","participant_final_score","participant_initial_score","participant_final_score_prop","goal_choice_rt","allocated_time","allocated_time_remaining","goal_direction","counts","mouse_movements","key_presses","question_order","question_id"
"4834","1753083253714","<p style='font-size:40px;line-height:1.25'><strong>Welcome to the experiment!</strong></p><p style='font-size:1.1em;line-height:1.25'>Thank you for participanting in our experiment again! You will be asked to play the Dysfunctional Ball Game again. We will briefly recap the rules before we start.</p><p style='font-size:1.1em;line-height:1.25'>Press <strong>Next</strong> to continue.</p>","0","custom-html-button-response","0","4855","0.0-0.0","134","1","2025-07-21 07:34:11","1f75c3e559b7213887762d5229550c2b","87.123.247.152","Mozilla/5.0 (Windows NT 10.0; Win64; x64; rv:140.0) Gecko/20100101 Firefox/140.0","","Firefox","140.0","Windows","10.0","https://app.prolific.com/","de,en-US;q=0.7,en;q=0.3","66ebc8c5e5b772065830754d","686e379bc37a29ffa5cdc956","687ded6b0127edc7b02c37be","1","1","66ebc8c5e5b772065830754d","1","1","2025-07-21T07:34:13.714Z","","","","","","","","","","","","","","","","","","","","","","","","","","","","","","","","","","","","","","","","","",""
"83580","","","","fullscreen","1","89444","0.0-1.0","134","1","2025-07-21 07:34:11","1f75c3e559b7213887762d5229550c2b","87.123.247.152","Mozilla/5.0 (Windows NT 10.0; Win64; x64; rv:140.0) Gecko/20100101 Firefox/140.0","","Firefox","140.0","Windows","10.0","https://app.prolific.com/","de,en-US;q=0.7,en;q=0.3","66ebc8c5e5b772065830754d","686e379bc37a29ffa5cdc956","687ded6b0127edc7b02c37be","1","1","66ebc8c5e5b772065830754d","1","1","","true","","","","","","","","","","","","","","","","","","","","","","","","","","","","","","","","","","","","","","","","",""
"2024","1753083340334","<p style='font-size:1.1em;line-height:1.25'>In the following, we will ask you a few questions relating to your feelings in the last 24 hours.<br></p><p style='font-size:1.1em;line-height:1.25'>Press the <strong>Next</strong> button to continue.</p>","0","custom-html-button-response","2","91475","0.0-2.0-0.0","134","1","2025-07-21 07:34:11","1f75c3e559b7213887762d5229550c2b","87.123.247.152","Mozilla/5.0 (Windows NT 10.0; Win64; x64; rv:140.0) Gecko/20100101 Firefox/140.0","","Firefox","140.0","Windows","10.0","https://app.prolific.com/","de,en-US;q=0.7,en;q=0.3","66ebc8c5e5b772065830754d","686e379bc37a29ffa5cdc956","687ded6b0127edc7b02c37be","1","1","66ebc8c5e5b772065830754d","1","1","2025-07-21T07:35:40.334Z","","","","","","","","","","","","","","","","","","","","","","","","","","","","","","","","","","","","","","","","","",""
"62865","","","","survey-template","3","154345","0.0-2.0-1.0","134","1","2025-07-21 07:34:11","1f75c3e559b7213887762d5229550c2b","87.123.247.152","Mozilla/5.0 (Windows NT 10.0; Win64; x64; rv:140.0) Gecko/20100101 Firefox/140.0","","Firefox","140.0","Windows","10.0","https://app.prolific.com/","de,en-US;q=0.7,en;q=0.3","66ebc8c5e5b772065830754d","686e379bc37a29ffa5cdc956","687ded6b0127edc7b02c37be","1","1","66ebc8c5e5b772065830754d","1","1","2025-07-21T07:36:43.204Z","","{""Q01"":""2"",""Q02"":""3"",""Q03"":""3"",""Q04"":""3"",""Q05"":""4"",""Q06"":""4"",""Q07"":""4"",""Q08"":""3"",""Q09"":""3"",""Q10"":""3"",""Q11"":""2"",""Q12"":""2"",""Q13"":""5"",""Q14"":""3"",""Q15"":""3"",""Q16"":""2"",""Q17"":""4"",""Q18"":""2"",""Q19"":""2"",""Q20"":""2"",""Q21"":""2"",""Q22"":""2""}","[0,1,2,3,4,5,6,7,8,9,10,11,12,13,14,15,16,17,18,19,20,21]","[""Q02"",""Q01"",""Q03"",""Q04"",""Q05"",""Q06"",""Q07"",""Q08"",""Q08"",""Q09"",""Q10"",""Q12"",""Q13"",""Q14"",""Q15"",""Q17"",""Q16"",""Q18"",""Q19"",""Q20"",""Q21"",""Q22"",""Q11""]","[2854,5097,6266,7437,9003,10932,12694,13436,14456,19345,20014,24783,26217,27553,28721,31758,33521,43294,45326,46048,50263,55817,60537]","[]","[0,1908,2854,3475,4767,5097,5876,6266,7437,9003,10932,12192,12694,13436,14112,14456,18086,19345,20014,21454,23225,23591,24783,25782,26217,27553,28721,29501,31332,31758,33072,33521,43294,44298,44907,45326,46048,49147,50263,54393,55361,55817,57215,59591,60537,62862]","0.4090909090909091","0.23809523809523808","0","drsp","","","","","","","","","","","","","","","","","","","","","","","","","","","","","","",""
"8310","","","","survey-template","4","162659","0.0-2.0-2.0","134","1","2025-07-21 07:34:11","1f75c3e559b7213887762d5229550c2b","87.123.247.152","Mozilla/5.0 (Windows NT 10.0; Win64; x64; rv:140.0) Gecko/20100101 Firefox/140.0","","Firefox","140.0","Windows","10.0","https://app.prolific.com/","de,en-US;q=0.7,en;q=0.3","66ebc8c5e5b772065830754d","686e379bc37a29ffa5cdc956","687ded6b0127edc7b02c37be","1","1","66ebc8c5e5b772065830754d","1","1","2025-07-21T07:36:51.518Z","","{""Q01"":""2"",""Q02"":""5"",""Q03"":""2""}","[0,1,2]","[""Q01"",""Q02"",""Q02"",""Q03""]","[1650,4162,7003,7800]","[]","[1650,3068,3653,4162,5078,5947,6661,7003,7800,8310]","0.6666666666666666","0","0","stress","","","","","","","","","","","","","","","","","","","","","","","","","","","","","","",""
"13085","","","","instructions","5","175746","0.0-3.0-0.0","134","1","2025-07-21 07:34:11","1f75c3e559b7213887762d5229550c2b","87.123.247.152","Mozilla/5.0 (Windows NT 10.0; Win64; x64; rv:140.0) Gecko/20100101 Firefox/140.0","","Firefox","140.0","Windows","10.0","https://app.prolific.com/","de,en-US;q=0.7,en;q=0.3","66ebc8c5e5b772065830754d","686e379bc37a29ffa5cdc956","687ded6b0127edc7b02c37be","1","1","66ebc8c5e5b772065830754d","1","1","","","","","","","","","","","","","[{""page_index"":0,""viewing_time"":13085}]","","","","","","","","","","","","","","","","","","","","","","","","","","","","","",""
"4543","","<p>Before you start with this game please answer the following three questions yourself. </p>
  <p>Through this game, we measure several aspects of your cognitive performance, such as reaction times, multi-tasking capabilities </p>
  <p>and the ability to assess the situation you are in.</p>
  <p></p>
  <p><b>How good do you usually are in such tasks?</b></p>","61","html-slider-response","6","180290","0.0-4.0-0.0","134","1","2025-07-21 07:34:11","1f75c3e559b7213887762d5229550c2b","87.123.247.152","Mozilla/5.0 (Windows NT 10.0; Win64; x64; rv:140.0) Gecko/20100101 Firefox/140.0","","Firefox","140.0","Windows","10.0","https://app.prolific.com/","de,en-US;q=0.7,en;q=0.3","66ebc8c5e5b772065830754d","686e379bc37a29ffa5cdc956","687ded6b0127edc7b02c37be","1","1","66ebc8c5e5b772065830754d","1","1","2025-07-21T07:37:09.149Z","","","","","","","","","","","PreSkillQ","","50","","","","","","","","","","","","","","","","","","","","","","","","","","","","",""
"2300","","<div style=""width:500px;"">
  <p>How well do you think you will perform in this task compared to other participants?</p>
  </div>","58","html-slider-response","7","182593","0.0-4.0-1.0","134","1","2025-07-21 07:34:11","1f75c3e559b7213887762d5229550c2b","87.123.247.152","Mozilla/5.0 (Windows NT 10.0; Win64; x64; rv:140.0) Gecko/20100101 Firefox/140.0","","Firefox","140.0","Windows","10.0","https://app.prolific.com/","de,en-US;q=0.7,en;q=0.3","66ebc8c5e5b772065830754d","686e379bc37a29ffa5cdc956","687ded6b0127edc7b02c37be","1","1","66ebc8c5e5b772065830754d","1","1","2025-07-21T07:37:11.452Z","","","","","","","","","","","PrePerfQ","","50","","","","","","","","","","","","","","","","","","","","","","","","","","","","",""
"2991","","<div style=""width:500px;"">
  <p>What best describes how you currently feel?</p>
  </div>","73","html-slider-response","8","185586","0.0-4.0-2.0","134","1","2025-07-21 07:34:11","1f75c3e559b7213887762d5229550c2b","87.123.247.152","Mozilla/5.0 (Windows NT 10.0; Win64; x64; rv:140.0) Gecko/20100101 Firefox/140.0","","Firefox","140.0","Windows","10.0","https://app.prolific.com/","de,en-US;q=0.7,en;q=0.3","66ebc8c5e5b772065830754d","686e379bc37a29ffa5cdc956","687ded6b0127edc7b02c37be","1","1","66ebc8c5e5b772065830754d","1","1","2025-07-21T07:37:14.445Z","","","","","","","","","","","PreMotivationQ","","50","","","","","","","","","","","","","","","","","","","","","","","","","","","","",""
"","","","","ctl-task-cpt","9","213105","0.0-5.0-0.0","134","1","2025-07-21 07:34:11","1f75c3e559b7213887762d5229550c2b","87.123.247.152","Mozilla/5.0 (Windows NT 10.0; Win64; x64; rv:140.0) Gecko/20100101 Firefox/140.0","","Firefox","140.0","Windows","10.0","https://app.prolific.com/","de,en-US;q=0.7,en;q=0.3","66ebc8c5e5b772065830754d","686e379bc37a29ffa5cdc956","687ded6b0127edc7b02c37be","1","1","66ebc8c5e5b772065830754d","1","1","2025-07-21T07:37:41.964Z","","","","","","","","","","","","","","win-only","1","g1:NE,g2:SW","1","1","0","187060","2000","7012","24502","1","4","4","6","2","4","4","4","0","0.030303030303030304","1348","3000","2010","[""down"",""left""]","{""num_key_presses"":6,""num_perfect"":6,""num_errors"":0,""num_randdir"":0,""num_randdir_good_moves"":0,""num_whilered"":0,""num_whileblue"":0,""num_blue"":0,""num_good_moves"":6}","[424.07142857142856,417.62142399379184,1,424.07142857142856,417.62142399379184,105,424.07142857142856,417.62142399379184,214,424.07142857142856,417.62142399379184,321,436.07142857142856,411.62142399379184,428,463.07142857142856,396.62142399379184,538,490.07142857142856,354.62142399379184,645,164.57142857142856,671.1214239937918,750,92.57142857142857,758.1214239937918,857,85.07142857142857,776.1214239937918,965,85.07142857142857,776.1214239937918,1074,85.07142857142857,776.1214239937918,1183,85.07142857142857,776.1214239937918,1291,85.07142857142857,776.1214239937918,1401,85.07142857142857,776.1214239937918,1510,85.07142857142857,776.1214239937918,1618,131.57142857142856,762.6214239937918,1726,589.0714285714286,750.6214239937918,1835,611.5714285714286,750.6214239937918,1943,613.0714285714286,747.6214239937918,2051,613.0714285714286,744.6214239937918,2160,613.0714285714286,744.6214239937918,2268,613.0714285714286,744.6214239937918,2377,613.0714285714286,744.6214239937918,2483,613.0714285714286,744.6214239937918,2593,613.0714285714286,744.6214239937918,2699,613.0714285714286,744.6214239937918,2807,613.0714285714286,744.6214239937918,2916,613.0714285714286,744.6214239937918,3024,613.0714285714286,744.6214239937918,3133,613.0714285714286,744.6214239937918,3241,613.0714285714286,744.6214239937918,3349,613.0714285714286,744.6214239937918,3457,613.0714285714286,744.6214239937918,3564,613.0714285714286,744.6214239937918,3672,613.0714285714286,744.6214239937918,3781,613.0714285714286,744.6214239937918,3892,613.0714285714286,744.6214239937918,4001,613.0714285714286,744.6214239937918,4109,613.0714285714286,744.6214239937918,4218,613.0714285714286,744.6214239937918,4326,613.0714285714286,744.6214239937918,4437,613.0714285714286,744.6214239937918,4544,613.0714285714286,744.6214239937918,4652,613.0714285714286,744.6214239937918,4762,613.0714285714286,744.6214239937918,4869,613.0714285714286,744.6214239937918,4981]","[2269,2269,1000,0,1269,""smooth"",""left"",""left"",""good_move"",5297,3028,1702.8,2270,1324.2,""smooth"",""down"",""down"",""good_move"",8358,3061,2653.7,5297,407.3,""smooth"",""left"",""left"",""good_move"",11398,3040,2065.6,8359,973.4,""smooth"",""down"",""down"",""good_move"",13918,2519,2162,11399,357,""smooth"",""left"",""left"",""good_move"",17207,3289,2925.7,13918,363.3,""smooth"",""down"",""down"",""good_move""]","",""
"14036","","<div style=""width:500px;"">
  <p>What determined the result of this run?</p>
  </div>","93","html-slider-response","10","227143","0.0-5.0-1.0","134","1","2025-07-21 07:34:11","1f75c3e559b7213887762d5229550c2b","87.123.247.152","Mozilla/5.0 (Windows NT 10.0; Win64; x64; rv:140.0) Gecko/20100101 Firefox/140.0","","Firefox","140.0","Windows","10.0","https://app.prolific.com/","de,en-US;q=0.7,en;q=0.3","66ebc8c5e5b772065830754d","686e379bc37a29ffa5cdc956","687ded6b0127edc7b02c37be","1","1","66ebc8c5e5b772065830754d","1","1","2025-07-21T07:37:56.003Z","","","","","","","","","","","AttribQ","","50","","","","","","","","","","","","","","","","","","","","","","","","","","","","",""
"2136","","<div style=""width:500px;"">
  <p>How much control did you have over the ball?</p>
  </div>","100","html-slider-response","11","229281","0.0-5.0-2.0","134","1","2025-07-21 07:34:11","1f75c3e559b7213887762d5229550c2b","87.123.247.152","Mozilla/5.0 (Windows NT 10.0; Win64; x64; rv:140.0) Gecko/20100101 Firefox/140.0","","Firefox","140.0","Windows","10.0","https://app.prolific.com/","de,en-US;q=0.7,en;q=0.3","66ebc8c5e5b772065830754d","686e379bc37a29ffa5cdc956","687ded6b0127edc7b02c37be","1","1","66ebc8c5e5b772065830754d","1","1","2025-07-21T07:37:58.140Z","","","","","","","","","","","ControlQ","","50","","","","","","","","","","","","","","","","","","","","","","","","","","","","",""
"2992","","<div style=""width:500px;"">
  <p>How would you describe your current emotional state?</p>
  </div>","25","html-slider-response","12","232273","0.0-5.0-3.0","134","1","2025-07-21 07:34:11","1f75c3e559b7213887762d5229550c2b","87.123.247.152","Mozilla/5.0 (Windows NT 10.0; Win64; x64; rv:140.0) Gecko/20100101 Firefox/140.0","","Firefox","140.0","Windows","10.0","https://app.prolific.com/","de,en-US;q=0.7,en;q=0.3","66ebc8c5e5b772065830754d","686e379bc37a29ffa5cdc956","687ded6b0127edc7b02c37be","1","1","66ebc8c5e5b772065830754d","1","1","2025-07-21T07:38:01.132Z","","","","","","","","","","","StressQ","","50","","","","","","","","","","","","","","","","","","","","","","","","","","","","",""
"18148","","<div style=""width:500px;"">
  <p>What best describes how you currently feel?</p>
  </div>","68","html-slider-response","13","250423","0.0-5.0-4.0","134","1","2025-07-21 07:34:11","1f75c3e559b7213887762d5229550c2b","87.123.247.152","Mozilla/5.0 (Windows NT 10.0; Win64; x64; rv:140.0) Gecko/20100101 Firefox/140.0","","Firefox","140.0","Windows","10.0","https://app.prolific.com/","de,en-US;q=0.7,en;q=0.3","66ebc8c5e5b772065830754d","686e379bc37a29ffa5cdc956","687ded6b0127edc7b02c37be","1","1","66ebc8c5e5b772065830754d","1","1","2025-07-21T07:38:19.282Z","","","","","","","","","","","MotivationQ","","50","","","","","","","","","","","","","","","","","","","","","","","","","","","","",""
"","","","","ctl-task-cpt","14","301171","0.0-5.0-0.1","134","1","2025-07-21 07:34:11","1f75c3e559b7213887762d5229550c2b","87.123.247.152","Mozilla/5.0 (Windows NT 10.0; Win64; x64; rv:140.0) Gecko/20100101 Firefox/140.0","","Firefox","140.0","Windows","10.0","https://app.prolific.com/","de,en-US;q=0.7,en;q=0.3","66ebc8c5e5b772065830754d","686e379bc37a29ffa5cdc956","687ded6b0127edc7b02c37be","1","1","66ebc8c5e5b772065830754d","1","1","2025-07-21T07:39:10.030Z","","","","","","","","","","","","","","win-only","3","g1:SW,g2:NE","0.9","2","0","251887","1312","6319","47737","1","4","8","6","2","8","8","12","4","0.09090909090909091","770","3000","1995","[""up"",""right""]","{""num_key_presses"":8,""num_perfect"":7,""num_errors"":0,""num_randdir"":1,""num_randdir_good_moves"":0,""num_whilered"":0,""num_whileblue"":0,""num_blue"":6,""num_good_moves"":7}","[409.07142857142856,420.62142399379184,0,409.07142857142856,420.62142399379184,101,409.07142857142856,420.62142399379184,209,431.57142857142856,422.12142399379184,318,694.0714285714286,134.12142399379184,426,710.5714285714286,59.12142399379185,536,710.5714285714286,59.12142399379185,643,770.5714285714286,66.62142399379185,752,770.5714285714286,66.62142399379185,862,1015.0714285714286,126.62142399379185,970,1250.5714285714287,174.62142399379184,1080,1250.5714285714287,174.62142399379184,1191,1250.5714285714287,174.62142399379184,1299,1250.5714285714287,174.62142399379184,1406,1250.5714285714287,174.62142399379184,1513,1250.5714285714287,174.62142399379184,1620,1250.5714285714287,174.62142399379184,1730,1250.5714285714287,174.62142399379184,1839,1250.5714285714287,174.62142399379184,1949,1250.5714285714287,174.62142399379184,2058,1250.5714285714287,174.62142399379184,2169,1250.5714285714287,174.62142399379184,2280,1250.5714285714287,174.62142399379184,2388,1250.5714285714287,174.62142399379184,2498,1250.5714285714287,174.62142399379184,2611,1250.5714285714287,174.62142399379184,2720,1250.5714285714287,174.62142399379184,2831,1250.5714285714287,174.62142399379184,2940,1250.5714285714287,174.62142399379184,3049,1250.5714285714287,174.62142399379184,3159,1250.5714285714287,174.62142399379184,3268,1250.5714285714287,174.62142399379184,3376,1250.5714285714287,174.62142399379184,3483,1250.5714285714287,174.62142399379184,3595,1250.5714285714287,174.62142399379184,3705,1250.5714285714287,174.62142399379184,3814,1250.5714285714287,174.62142399379184,3920,1250.5714285714287,174.62142399379184,4029,1250.5714285714287,174.62142399379184,4139,1250.5714285714287,174.62142399379184,4248,1250.5714285714287,174.62142399379184,4354,1250.5714285714287,174.62142399379184,4462,1250.5714285714287,174.62142399379184,4572,1250.5714285714287,174.62142399379184,4680,1250.5714285714287,174.62142399379184,4789,1250.5714285714287,174.62142399379184,4899]","[4440,4440,2008.4,2026,405.6,""oops"",""up"",""left"",""bad_move"",21388,16948,2815.2,18237,335.8,""smooth"",""up"",""up"",""good_move"",27768,6380,2190.7,25120,457.3,""smooth"",""right"",""right"",""good_move"",29830,2062,1635.8,27768,426.2,""smooth"",""up"",""up"",""good_move"",32826,2996,2538.3,29830,457.7,""smooth"",""right"",""right"",""good_move"",35742,2916,2507.4,32826,408.6,""smooth"",""up"",""up"",""good_move"",38824,3082,2216.5,35742,865.5,""smooth"",""right"",""right"",""good_move"",41121,2297,1900.2,38824,396.8,""smooth"",""right"",""right"",""good_move""]","",""
"13706","","<div style=""width:500px;"">
  <p>What determined the result of this run?</p>
  </div>","75","html-slider-response","15","314878","0.0-5.0-1.1","134","1","2025-07-21 07:34:11","1f75c3e559b7213887762d5229550c2b","87.123.247.152","Mozilla/5.0 (Windows NT 10.0; Win64; x64; rv:140.0) Gecko/20100101 Firefox/140.0","","Firefox","140.0","Windows","10.0","https://app.prolific.com/","de,en-US;q=0.7,en;q=0.3","66ebc8c5e5b772065830754d","686e379bc37a29ffa5cdc956","687ded6b0127edc7b02c37be","1","1","66ebc8c5e5b772065830754d","1","1","2025-07-21T07:39:23.738Z","","","","","","","","","","","AttribQ","","50","","","","","","","","","","","","","","","","","","","","","","","","","","","","",""
"1485","","<div style=""width:500px;"">
  <p>How much control did you have over the ball?</p>
  </div>","67","html-slider-response","16","316365","0.0-5.0-2.1","134","1","2025-07-21 07:34:11","1f75c3e559b7213887762d5229550c2b","87.123.247.152","Mozilla/5.0 (Windows NT 10.0; Win64; x64; rv:140.0) Gecko/20100101 Firefox/140.0","","Firefox","140.0","Windows","10.0","https://app.prolific.com/","de,en-US;q=0.7,en;q=0.3","66ebc8c5e5b772065830754d","686e379bc37a29ffa5cdc956","687ded6b0127edc7b02c37be","1","1","66ebc8c5e5b772065830754d","1","1","2025-07-21T07:39:25.224Z","","","","","","","","","","","ControlQ","","50","","","","","","","","","","","","","","","","","","","","","","","","","","","","",""
"2399","","<div style=""width:500px;"">
  <p>How would you describe your current emotional state?</p>
  </div>","45","html-slider-response","17","318765","0.0-5.0-3.1","134","1","2025-07-21 07:34:11","1f75c3e559b7213887762d5229550c2b","87.123.247.152","Mozilla/5.0 (Windows NT 10.0; Win64; x64; rv:140.0) Gecko/20100101 Firefox/140.0","","Firefox","140.0","Windows","10.0","https://app.prolific.com/","de,en-US;q=0.7,en;q=0.3","66ebc8c5e5b772065830754d","686e379bc37a29ffa5cdc956","687ded6b0127edc7b02c37be","1","1","66ebc8c5e5b772065830754d","1","1","2025-07-21T07:39:27.624Z","","","","","","","","","","","StressQ","","50","","","","","","","","","","","","","","","","","","","","","","","","","","","","",""
"2360","","<div style=""width:500px;"">
  <p>What best describes how you currently feel?</p>
  </div>","64","html-slider-response","18","321127","0.0-5.0-4.1","134","1","2025-07-21 07:34:11","1f75c3e559b7213887762d5229550c2b","87.123.247.152","Mozilla/5.0 (Windows NT 10.0; Win64; x64; rv:140.0) Gecko/20100101 Firefox/140.0","","Firefox","140.0","Windows","10.0","https://app.prolific.com/","de,en-US;q=0.7,en;q=0.3","66ebc8c5e5b772065830754d","686e379bc37a29ffa5cdc956","687ded6b0127edc7b02c37be","1","1","66ebc8c5e5b772065830754d","1","1","2025-07-21T07:39:29.986Z","","","","","","","","","","","MotivationQ","","50","","","","","","","","","","","","","","","","","","","","","","","","","","","","",""
"","","","","ctl-task-cpt","19","346603","0.0-5.0-0.2","134","1","2025-07-21 07:34:11","1f75c3e559b7213887762d5229550c2b","87.123.247.152","Mozilla/5.0 (Windows NT 10.0; Win64; x64; rv:140.0) Gecko/20100101 Firefox/140.0","","Firefox","140.0","Windows","10.0","https://app.prolific.com/","de,en-US;q=0.7,en;q=0.3","66ebc8c5e5b772065830754d","686e379bc37a29ffa5cdc956","687ded6b0127edc7b02c37be","1","1","66ebc8c5e5b772065830754d","1","1","2025-07-21T07:39:55.462Z","","","","","","","","","","","","","","win-only","3","g1:SW,g2:NE","0.8","3","0","322591","1138","6143","22472","1","4","4","6","2","4","4","16","12","0.12121212121212122","1050","3000","2320","[""up"",""right""]","{""num_key_presses"":6,""num_perfect"":6,""num_errors"":0,""num_randdir"":0,""num_randdir_good_moves"":0,""num_whilered"":0,""num_whileblue"":0,""num_blue"":0,""num_good_moves"":6}","[412.07142857142856,414.62142399379184,0,412.07142857142856,414.62142399379184,107,412.07142857142856,414.62142399379184,216,449.57142857142856,366.62142399379184,324,620.5714285714286,198.62142399379184,433,646.0714285714286,171.62142399379184,542,730.0714285714286,101.12142399379185,650,740.5714285714286,89.12142399379185,759,740.5714285714286,87.62142399379185,867,740.5714285714286,87.62142399379185,975,740.5714285714286,87.62142399379185,1084,740.5714285714286,87.62142399379185,1193,1127.5714285714287,194.12142399379184,1301,1352.5714285714287,273.62142399379184,1411,1352.5714285714287,273.62142399379184,1519,1352.5714285714287,273.62142399379184,1626,1352.5714285714287,273.62142399379184,1735,1352.5714285714287,273.62142399379184,1844,1352.5714285714287,273.62142399379184,1952,1352.5714285714287,273.62142399379184,2061,1352.5714285714287,273.62142399379184,2173,1352.5714285714287,273.62142399379184,2282,1352.5714285714287,273.62142399379184,2391,1352.5714285714287,273.62142399379184,2499,1352.5714285714287,273.62142399379184,2611,1352.5714285714287,273.62142399379184,2720,1352.5714285714287,273.62142399379184,2826,1352.5714285714287,273.62142399379184,2935,1352.5714285714287,273.62142399379184,3046,1352.5714285714287,273.62142399379184,3156,1352.5714285714287,273.62142399379184,3264,1352.5714285714287,273.62142399379184,3372,1352.5714285714287,273.62142399379184,3480,1352.5714285714287,273.62142399379184,3590,1352.5714285714287,273.62142399379184,3699,1352.5714285714287,273.62142399379184,3808,1352.5714285714287,273.62142399379184,3916,1352.5714285714287,273.62142399379184,4025,1352.5714285714287,273.62142399379184,4134,1352.5714285714287,273.62142399379184,4242,1352.5714285714287,273.62142399379184,4351,1352.5714285714287,273.62142399379184,4460,1352.5714285714287,273.62142399379184,4569,1352.5714285714287,273.62142399379184,4678,1352.5714285714287,273.62142399379184,4787,1352.5714285714287,273.62142399379184,4896]","[1387,1387,1000,0,387,""smooth"",""up"",""up"",""good_move"",4479,3092,2193.2,1387,898.8,""smooth"",""right"",""right"",""good_move"",7264,2784,2419.3,4480,364.7,""smooth"",""up"",""up"",""good_move"",10286,3022,2716.1,7264,305.9,""smooth"",""right"",""right"",""good_move"",13086,2800,2450.9,10286,349.1,""smooth"",""up"",""up"",""good_move"",16037,2951,2463.9,13086,487.1,""smooth"",""right"",""right"",""good_move""]","",""
"5459","","<div style=""width:500px;"">
  <p>What determined the result of this run?</p>
  </div>","59","html-slider-response","20","352065","0.0-5.0-1.2","134","1","2025-07-21 07:34:11","1f75c3e559b7213887762d5229550c2b","87.123.247.152","Mozilla/5.0 (Windows NT 10.0; Win64; x64; rv:140.0) Gecko/20100101 Firefox/140.0","","Firefox","140.0","Windows","10.0","https://app.prolific.com/","de,en-US;q=0.7,en;q=0.3","66ebc8c5e5b772065830754d","686e379bc37a29ffa5cdc956","687ded6b0127edc7b02c37be","1","1","66ebc8c5e5b772065830754d","1","1","2025-07-21T07:40:00.924Z","","","","","","","","","","","AttribQ","","50","","","","","","","","","","","","","","","","","","","","","","","","","","","","",""
"5654","","<div style=""width:500px;"">
  <p>How much control did you have over the ball?</p>
  </div>","62","html-slider-response","21","357720","0.0-5.0-2.2","134","1","2025-07-21 07:34:11","1f75c3e559b7213887762d5229550c2b","87.123.247.152","Mozilla/5.0 (Windows NT 10.0; Win64; x64; rv:140.0) Gecko/20100101 Firefox/140.0","","Firefox","140.0","Windows","10.0","https://app.prolific.com/","de,en-US;q=0.7,en;q=0.3","66ebc8c5e5b772065830754d","686e379bc37a29ffa5cdc956","687ded6b0127edc7b02c37be","1","1","66ebc8c5e5b772065830754d","1","1","2025-07-21T07:40:06.579Z","","","","","","","","","","","ControlQ","","50","","","","","","","","","","","","","","","","","","","","","","","","","","","","",""
"3621","","<div style=""width:500px;"">
  <p>How would you describe your current emotional state?</p>
  </div>","61","html-slider-response","22","361343","0.0-5.0-3.2","134","1","2025-07-21 07:34:11","1f75c3e559b7213887762d5229550c2b","87.123.247.152","Mozilla/5.0 (Windows NT 10.0; Win64; x64; rv:140.0) Gecko/20100101 Firefox/140.0","","Firefox","140.0","Windows","10.0","https://app.prolific.com/","de,en-US;q=0.7,en;q=0.3","66ebc8c5e5b772065830754d","686e379bc37a29ffa5cdc956","687ded6b0127edc7b02c37be","1","1","66ebc8c5e5b772065830754d","1","1","2025-07-21T07:40:10.202Z","","","","","","","","","","","StressQ","","50","","","","","","","","","","","","","","","","","","","","","","","","","","","","",""
"40546","","<div style=""width:500px;"">
  <p>What best describes how you currently feel?</p>
  </div>","56","html-slider-response","23","401890","0.0-5.0-4.2","134","1","2025-07-21 07:34:11","1f75c3e559b7213887762d5229550c2b","87.123.247.152","Mozilla/5.0 (Windows NT 10.0; Win64; x64; rv:140.0) Gecko/20100101 Firefox/140.0","","Firefox","140.0","Windows","10.0","https://app.prolific.com/","de,en-US;q=0.7,en;q=0.3","66ebc8c5e5b772065830754d","686e379bc37a29ffa5cdc956","687ded6b0127edc7b02c37be","1","1","66ebc8c5e5b772065830754d","1","1","2025-07-21T07:40:50.749Z","","","","","","","","","","","MotivationQ","","50","","","","","","","","","","","","","","","","","","","","","","","","","","","","",""
"","","","","ctl-task-cpt","24","438420","0.0-5.0-0.3","134","1","2025-07-21 07:34:11","1f75c3e559b7213887762d5229550c2b","87.123.247.152","Mozilla/5.0 (Windows NT 10.0; Win64; x64; rv:140.0) Gecko/20100101 Firefox/140.0","","Firefox","140.0","Windows","10.0","https://app.prolific.com/","de,en-US;q=0.7,en;q=0.3","66ebc8c5e5b772065830754d","686e379bc37a29ffa5cdc956","687ded6b0127edc7b02c37be","1","1","66ebc8c5e5b772065830754d","1","1","2025-07-21T07:41:27.279Z","","","","","","","","","","","","","","win-only","1","g1:NE,g2:SW","0.7","4","0","403354","1128","6138","33519","1","4","8","6","2","8","7","23","16","0.17424242424242425","1041","3000","2175","[""down"",""left""]","{""num_key_presses"":7,""num_perfect"":6,""num_errors"":1,""num_randdir"":0,""num_randdir_good_moves"":0,""num_whilered"":0,""num_whileblue"":0,""num_blue"":2,""num_good_moves"":6}","[421.07142857142856,410.12142399379184,0,421.07142857142856,410.12142399379184,108,421.07142857142856,410.12142399379184,216,490.07142857142856,270.62142399379184,323,640.0714285714286,-32.37857600620815,432,382.07142857142856,153.62142399379184,540,16.07142857142857,750.6214239937918,648,10.07142857142857,759.6214239937918,757,19.07142857142857,765.6214239937918,868,35.57142857142857,767.1214239937918,975,35.57142857142857,767.1214239937918,1086,35.57142857142857,767.1214239937918,1197,220.07142857142856,501.62142399379184,1304,221.57142857142856,492.62142399379184,1414,221.57142857142856,492.62142399379184,1523,221.57142857142856,492.62142399379184,1632,221.57142857142856,492.62142399379184,1741,221.57142857142856,492.62142399379184,1851,221.57142857142856,492.62142399379184,1960,221.57142857142856,492.62142399379184,2071,221.57142857142856,492.62142399379184,2182,221.57142857142856,492.62142399379184,2291,236.57142857142856,483.62142399379184,2401,236.57142857142856,483.62142399379184,2510,236.57142857142856,483.62142399379184,2620,236.57142857142856,483.62142399379184,2730,236.57142857142856,483.62142399379184,2840,236.57142857142856,483.62142399379184,2950,236.57142857142856,483.62142399379184,3058,236.57142857142856,483.62142399379184,3168,236.57142857142856,483.62142399379184,3277,236.57142857142856,483.62142399379184,3387,236.57142857142856,483.62142399379184,3495,236.57142857142856,483.62142399379184,3603,236.57142857142856,483.62142399379184,3714,236.57142857142856,483.62142399379184,3825,236.57142857142856,483.62142399379184,3933,236.57142857142856,483.62142399379184,4044,236.57142857142856,483.62142399379184,4153,236.57142857142856,483.62142399379184,4262,236.57142857142856,483.62142399379184,4369,236.57142857142856,483.62142399379184,4480,236.57142857142856,483.62142399379184,4589,236.57142857142856,483.62142399379184,4697,236.57142857142856,483.62142399379184,4806,236.57142857142856,483.62142399379184,4917]","[338,338,1000,0,-662,""error"",""-"",""-"",""no_move"",8607,8268,2991,5068,548,""smooth"",""left"",""left"",""good_move"",11776,3169,2273.9,8607,895.1,""smooth"",""down"",""down"",""good_move"",17647,5871,2678.2,14565,403.8,""smooth"",""left"",""left"",""good_move"",21177,3530,3118.1,17647,411.9,""smooth"",""down"",""down"",""good_move"",24058,2881,2454.7,21177,426.3,""smooth"",""left"",""left"",""good_move"",27084,3026,2682,24058,344,""smooth"",""down"",""down"",""good_move""]","",""
"15173","","<div style=""width:500px;"">
  <p>What determined the result of this run?</p>
  </div>","59","html-slider-response","25","453594","0.0-5.0-1.3","134","1","2025-07-21 07:34:11","1f75c3e559b7213887762d5229550c2b","87.123.247.152","Mozilla/5.0 (Windows NT 10.0; Win64; x64; rv:140.0) Gecko/20100101 Firefox/140.0","","Firefox","140.0","Windows","10.0","https://app.prolific.com/","de,en-US;q=0.7,en;q=0.3","66ebc8c5e5b772065830754d","686e379bc37a29ffa5cdc956","687ded6b0127edc7b02c37be","1","1","66ebc8c5e5b772065830754d","1","1","2025-07-21T07:41:42.453Z","","","","","","","","","","","AttribQ","","50","","","","","","","","","","","","","","","","","","","","","","","","","","","","",""
"2167","","<div style=""width:500px;"">
  <p>How much control did you have over the ball?</p>
  </div>","71","html-slider-response","26","455762","0.0-5.0-2.3","134","1","2025-07-21 07:34:11","1f75c3e559b7213887762d5229550c2b","87.123.247.152","Mozilla/5.0 (Windows NT 10.0; Win64; x64; rv:140.0) Gecko/20100101 Firefox/140.0","","Firefox","140.0","Windows","10.0","https://app.prolific.com/","de,en-US;q=0.7,en;q=0.3","66ebc8c5e5b772065830754d","686e379bc37a29ffa5cdc956","687ded6b0127edc7b02c37be","1","1","66ebc8c5e5b772065830754d","1","1","2025-07-21T07:41:44.621Z","","","","","","","","","","","ControlQ","","50","","","","","","","","","","","","","","","","","","","","","","","","","","","","",""
"1717","","<div style=""width:500px;"">
  <p>How would you describe your current emotional state?</p>
  </div>","68","html-slider-response","27","457479","0.0-5.0-3.3","134","1","2025-07-21 07:34:11","1f75c3e559b7213887762d5229550c2b","87.123.247.152","Mozilla/5.0 (Windows NT 10.0; Win64; x64; rv:140.0) Gecko/20100101 Firefox/140.0","","Firefox","140.0","Windows","10.0","https://app.prolific.com/","de,en-US;q=0.7,en;q=0.3","66ebc8c5e5b772065830754d","686e379bc37a29ffa5cdc956","687ded6b0127edc7b02c37be","1","1","66ebc8c5e5b772065830754d","1","1","2025-07-21T07:41:46.338Z","","","","","","","","","","","StressQ","","50","","","","","","","","","","","","","","","","","","","","","","","","","","","","",""
"1783","","<div style=""width:500px;"">
  <p>What best describes how you currently feel?</p>
  </div>","70","html-slider-response","28","459265","0.0-5.0-4.3","134","1","2025-07-21 07:34:11","1f75c3e559b7213887762d5229550c2b","87.123.247.152","Mozilla/5.0 (Windows NT 10.0; Win64; x64; rv:140.0) Gecko/20100101 Firefox/140.0","","Firefox","140.0","Windows","10.0","https://app.prolific.com/","de,en-US;q=0.7,en;q=0.3","66ebc8c5e5b772065830754d","686e379bc37a29ffa5cdc956","687ded6b0127edc7b02c37be","1","1","66ebc8c5e5b772065830754d","1","1","2025-07-21T07:41:48.124Z","","","","","","","","","","","MotivationQ","","50","","","","","","","","","","","","","","","","","","","","","","","","","","","","",""
"","","","","ctl-task-cpt","29","485263","0.0-5.0-0.4","134","1","2025-07-21 07:34:11","1f75c3e559b7213887762d5229550c2b","87.123.247.152","Mozilla/5.0 (Windows NT 10.0; Win64; x64; rv:140.0) Gecko/20100101 Firefox/140.0","","Firefox","140.0","Windows","10.0","https://app.prolific.com/","de,en-US;q=0.7,en;q=0.3","66ebc8c5e5b772065830754d","686e379bc37a29ffa5cdc956","687ded6b0127edc7b02c37be","1","1","66ebc8c5e5b772065830754d","1","1","2025-07-21T07:42:14.122Z","","","","","","","","","","","","","","win-only","1","g1:NE,g2:SW","0.6","5","0","460728","964","5977","22991","1","4","8","6","2","8","8","31","23","0.23484848484848486","965","3000","2310","[""down"",""left""]","{""num_key_presses"":6,""num_perfect"":6,""num_errors"":0,""num_randdir"":0,""num_randdir_good_moves"":0,""num_whilered"":0,""num_whileblue"":0,""num_blue"":0,""num_good_moves"":6}","[422.57142857142856,414.62142399379184,0,422.57142857142856,414.62142399379184,113,424.07142857142856,405.62142399379184,224,424.07142857142856,405.62142399379184,333,400.07142857142856,426.62142399379184,441,91.07142857142857,614.1214239937918,549,14.57142857142857,684.6214239937918,659,11.57142857142857,753.6214239937918,765,34.07142857142857,777.6214239937918,873,52.07142857142857,765.6214239937918,983,52.07142857142857,765.6214239937918,1092,479.57142857142856,774.6214239937918,1202,713.5714285714286,774.6214239937918,1311,722.5714285714286,765.6214239937918,1417,722.5714285714286,765.6214239937918,1527,722.5714285714286,765.6214239937918,1636,722.5714285714286,765.6214239937918,1744,722.5714285714286,765.6214239937918,1856,722.5714285714286,765.6214239937918,1963,722.5714285714286,765.6214239937918,2071,722.5714285714286,765.6214239937918,2180,722.5714285714286,765.6214239937918,2290,722.5714285714286,765.6214239937918,2399,722.5714285714286,765.6214239937918,2508,722.5714285714286,765.6214239937918,2617,722.5714285714286,765.6214239937918,2726,722.5714285714286,765.6214239937918,2835,722.5714285714286,765.6214239937918,2945,722.5714285714286,765.6214239937918,3054,722.5714285714286,765.6214239937918,3163,722.5714285714286,765.6214239937918,3275,722.5714285714286,765.6214239937918,3383,722.5714285714286,765.6214239937918,3492,722.5714285714286,765.6214239937918,3603,722.5714285714286,765.6214239937918,3712,722.5714285714286,765.6214239937918,3822,722.5714285714286,765.6214239937918,3933,722.5714285714286,765.6214239937918,4043,722.5714285714286,765.6214239937918,4152,722.5714285714286,765.6214239937918,4262,722.5714285714286,765.6214239937918,4371,722.5714285714286,765.6214239937918,4481,722.5714285714286,765.6214239937918,4590,722.5714285714286,765.6214239937918,4700,722.5714285714286,765.6214239937918,4810,722.5714285714286,765.6214239937918,4918]","[1379,1379,1000,0,379,""smooth"",""left"",""left"",""good_move"",4375,2996,2257,1379,739,""smooth"",""down"",""down"",""good_move"",7559,3183,2806.4,4376,376.6,""smooth"",""left"",""left"",""good_move"",10567,3008,2182.7,7559,825.3,""smooth"",""down"",""down"",""good_move"",13310,2743,2403.1,10567,339.9,""smooth"",""left"",""left"",""good_move"",16729,3419,2980.8,13310,438.2,""smooth"",""down"",""down"",""good_move""]","",""
"2336","","<div style=""width:500px;"">
  <p>What determined the result of this run?</p>
  </div>","72","html-slider-response","30","487600","0.0-5.0-1.4","134","1","2025-07-21 07:34:11","1f75c3e559b7213887762d5229550c2b","87.123.247.152","Mozilla/5.0 (Windows NT 10.0; Win64; x64; rv:140.0) Gecko/20100101 Firefox/140.0","","Firefox","140.0","Windows","10.0","https://app.prolific.com/","de,en-US;q=0.7,en;q=0.3","66ebc8c5e5b772065830754d","686e379bc37a29ffa5cdc956","687ded6b0127edc7b02c37be","1","1","66ebc8c5e5b772065830754d","1","1","2025-07-21T07:42:16.459Z","","","","","","","","","","","AttribQ","","50","","","","","","","","","","","","","","","","","","","","","","","","","","","","",""
"1408","","<div style=""width:500px;"">
  <p>How much control did you have over the ball?</p>
  </div>","70","html-slider-response","31","489009","0.0-5.0-2.4","134","1","2025-07-21 07:34:11","1f75c3e559b7213887762d5229550c2b","87.123.247.152","Mozilla/5.0 (Windows NT 10.0; Win64; x64; rv:140.0) Gecko/20100101 Firefox/140.0","","Firefox","140.0","Windows","10.0","https://app.prolific.com/","de,en-US;q=0.7,en;q=0.3","66ebc8c5e5b772065830754d","686e379bc37a29ffa5cdc956","687ded6b0127edc7b02c37be","1","1","66ebc8c5e5b772065830754d","1","1","2025-07-21T07:42:17.869Z","","","","","","","","","","","ControlQ","","50","","","","","","","","","","","","","","","","","","","","","","","","","","","","",""
"1866","","<div style=""width:500px;"">
  <p>How would you describe your current emotional state?</p>
  </div>","72","html-slider-response","32","490876","0.0-5.0-3.4","134","1","2025-07-21 07:34:11","1f75c3e559b7213887762d5229550c2b","87.123.247.152","Mozilla/5.0 (Windows NT 10.0; Win64; x64; rv:140.0) Gecko/20100101 Firefox/140.0","","Firefox","140.0","Windows","10.0","https://app.prolific.com/","de,en-US;q=0.7,en;q=0.3","66ebc8c5e5b772065830754d","686e379bc37a29ffa5cdc956","687ded6b0127edc7b02c37be","1","1","66ebc8c5e5b772065830754d","1","1","2025-07-21T07:42:19.735Z","","","","","","","","","","","StressQ","","50","","","","","","","","","","","","","","","","","","","","","","","","","","","","",""
"1334","","<div style=""width:500px;"">
  <p>What best describes how you currently feel?</p>
  </div>","72","html-slider-response","33","492211","0.0-5.0-4.4","134","1","2025-07-21 07:34:11","1f75c3e559b7213887762d5229550c2b","87.123.247.152","Mozilla/5.0 (Windows NT 10.0; Win64; x64; rv:140.0) Gecko/20100101 Firefox/140.0","","Firefox","140.0","Windows","10.0","https://app.prolific.com/","de,en-US;q=0.7,en;q=0.3","66ebc8c5e5b772065830754d","686e379bc37a29ffa5cdc956","687ded6b0127edc7b02c37be","1","1","66ebc8c5e5b772065830754d","1","1","2025-07-21T07:42:21.070Z","","","","","","","","","","","MotivationQ","","50","","","","","","","","","","","","","","","","","","","","","","","","","","","","",""
"","","","","ctl-task-cpt","34","572000","0.0-5.0-0.5","134","1","2025-07-21 07:34:11","1f75c3e559b7213887762d5229550c2b","87.123.247.152","Mozilla/5.0 (Windows NT 10.0; Win64; x64; rv:140.0) Gecko/20100101 Firefox/140.0","","Firefox","140.0","Windows","10.0","https://app.prolific.com/","de,en-US;q=0.7,en;q=0.3","66ebc8c5e5b772065830754d","686e379bc37a29ffa5cdc956","687ded6b0127edc7b02c37be","1","1","66ebc8c5e5b772065830754d","1","1","2025-07-21T07:43:40.859Z","","","","","","","","","","","","","","win-only","2","g1:SE,g2:NW","0.5","6","0","493676","1227","6235","76771","1","4","4","6","2","4","3","34","31","0.25757575757575757","923","3000","865","[""left"",""up""]","{""num_key_presses"":15,""num_perfect"":9,""num_errors"":1,""num_randdir"":5,""num_randdir_good_moves"":1,""num_whilered"":0,""num_whileblue"":0,""num_blue"":7,""num_good_moves"":10}","[421.07142857142856,420.62142399379184,0,421.07142857142856,420.62142399379184,108,425.57142857142856,417.62142399379184,219,470.57142857142856,389.12142399379184,328,470.57142857142856,389.12142399379184,438,281.57142857142856,234.62142399379184,548,143.57142857142856,120.62142399379185,658,139.07142857142856,113.12142399379185,766,101.57142857142857,101.12142399379185,875,82.07142857142857,95.12142399379185,983,85.07142857142857,93.62142399379185,1096,394.07142857142856,183.62142399379184,1205,847.0714285714286,273.62142399379184,1313,928.0714285714286,294.62142399379184,1421,928.0714285714286,294.62142399379184,1532,928.0714285714286,294.62142399379184,1640,928.0714285714286,294.62142399379184,1749,928.0714285714286,294.62142399379184,1858,928.0714285714286,294.62142399379184,1969,928.0714285714286,294.62142399379184,2077,928.0714285714286,294.62142399379184,2187,928.0714285714286,294.62142399379184,2296,928.0714285714286,294.62142399379184,2404,928.0714285714286,294.62142399379184,2513,928.0714285714286,294.62142399379184,2622,928.0714285714286,294.62142399379184,2732,928.0714285714286,294.62142399379184,2840,928.0714285714286,294.62142399379184,2949,928.0714285714286,294.62142399379184,3059,928.0714285714286,294.62142399379184,3168,928.0714285714286,294.62142399379184,3279,928.0714285714286,294.62142399379184,3387,928.0714285714286,294.62142399379184,3498,928.0714285714286,294.62142399379184,3605,928.0714285714286,294.62142399379184,3715,928.0714285714286,294.62142399379184,3822,928.0714285714286,294.62142399379184,3931,928.0714285714286,294.62142399379184,4041,928.0714285714286,294.62142399379184,4149,928.0714285714286,294.62142399379184,4259,928.0714285714286,294.62142399379184,4368,928.0714285714286,294.62142399379184,4477,928.0714285714286,294.62142399379184,4586,928.0714285714286,294.62142399379184,4696,928.0714285714286,294.62142399379184,4805,928.0714285714286,294.62142399379184,4915]","[456,456,1000,0,-544,""error"",""-"",""-"",""no_move"",9008,8552,2866.6,5229,912.4,""oops"",""up"",""down"",""bad_move"",17043,8035,3214.9,13064,764.1,""smooth"",""up"",""up"",""good_move"",20260,3217,2689.1,17043,527.9,""oops"",""up"",""up"",""good_move"",23343,3082,1508.3,20261,1573.7,""smooth"",""up"",""up"",""good_move"",27052,3709,3070.1,23343,638.9,""smooth"",""left"",""left"",""good_move"",30300,3248,2202.8,27052,1045.2,""smooth"",""up"",""up"",""good_move"",36485,6185,2155.4,33976,353.6,""smooth"",""left"",""left"",""good_move"",39491,3006,2096.3,36485,909.7,""oops"",""left"",""right"",""bad_move"",45569,6078,2376.1,42829,363.9,""oops"",""left"",""right"",""bad_move"",55670,10101,2374.4,52918,377.6,""oops"",""left"",""right"",""bad_move"",61277,5607,1783.4,59017,476.6,""smooth"",""left"",""left"",""good_move"",64247,2970,2100,61277,870,""smooth"",""left"",""left"",""good_move"",67259,3012,2427.6,64247,584.4,""smooth"",""left"",""left"",""good_move"",70245,2986,2584.9,67259,401.1,""smooth"",""left"",""left"",""good_move""]","",""
"2750","","<div style=""width:500px;"">
  <p>What determined the result of this run?</p>
  </div>","69","html-slider-response","35","574752","0.0-5.0-1.5","134","1","2025-07-21 07:34:11","1f75c3e559b7213887762d5229550c2b","87.123.247.152","Mozilla/5.0 (Windows NT 10.0; Win64; x64; rv:140.0) Gecko/20100101 Firefox/140.0","","Firefox","140.0","Windows","10.0","https://app.prolific.com/","de,en-US;q=0.7,en;q=0.3","66ebc8c5e5b772065830754d","686e379bc37a29ffa5cdc956","687ded6b0127edc7b02c37be","1","1","66ebc8c5e5b772065830754d","1","1","2025-07-21T07:43:43.611Z","","","","","","","","","","","AttribQ","","50","","","","","","","","","","","","","","","","","","","","","","","","","","","","",""
"8818","","<div style=""width:500px;"">
  <p>How much control did you have over the ball?</p>
  </div>","42","html-slider-response","36","583572","0.0-5.0-2.5","134","1","2025-07-21 07:34:11","1f75c3e559b7213887762d5229550c2b","87.123.247.152","Mozilla/5.0 (Windows NT 10.0; Win64; x64; rv:140.0) Gecko/20100101 Firefox/140.0","","Firefox","140.0","Windows","10.0","https://app.prolific.com/","de,en-US;q=0.7,en;q=0.3","66ebc8c5e5b772065830754d","686e379bc37a29ffa5cdc956","687ded6b0127edc7b02c37be","1","1","66ebc8c5e5b772065830754d","1","1","2025-07-21T07:43:52.431Z","","","","","","","","","","","ControlQ","","50","","","","","","","","","","","","","","","","","","","","","","","","","","","","",""
"2541","","<div style=""width:500px;"">
  <p>How would you describe your current emotional state?</p>
  </div>","72","html-slider-response","37","586114","0.0-5.0-3.5","134","1","2025-07-21 07:34:11","1f75c3e559b7213887762d5229550c2b","87.123.247.152","Mozilla/5.0 (Windows NT 10.0; Win64; x64; rv:140.0) Gecko/20100101 Firefox/140.0","","Firefox","140.0","Windows","10.0","https://app.prolific.com/","de,en-US;q=0.7,en;q=0.3","66ebc8c5e5b772065830754d","686e379bc37a29ffa5cdc956","687ded6b0127edc7b02c37be","1","1","66ebc8c5e5b772065830754d","1","1","2025-07-21T07:43:54.973Z","","","","","","","","","","","StressQ","","50","","","","","","","","","","","","","","","","","","","","","","","","","","","","",""
"1468","","<div style=""width:500px;"">
  <p>What best describes how you currently feel?</p>
  </div>","68","html-slider-response","38","587584","0.0-5.0-4.5","134","1","2025-07-21 07:34:11","1f75c3e559b7213887762d5229550c2b","87.123.247.152","Mozilla/5.0 (Windows NT 10.0; Win64; x64; rv:140.0) Gecko/20100101 Firefox/140.0","","Firefox","140.0","Windows","10.0","https://app.prolific.com/","de,en-US;q=0.7,en;q=0.3","66ebc8c5e5b772065830754d","686e379bc37a29ffa5cdc956","687ded6b0127edc7b02c37be","1","1","66ebc8c5e5b772065830754d","1","1","2025-07-21T07:43:56.443Z","","","","","","","","","","","MotivationQ","","50","","","","","","","","","","","","","","","","","","","","","","","","","","","","",""
"","","","","ctl-task-cpt","39","641254","0.0-5.0-0.6","134","1","2025-07-21 07:34:11","1f75c3e559b7213887762d5229550c2b","87.123.247.152","Mozilla/5.0 (Windows NT 10.0; Win64; x64; rv:140.0) Gecko/20100101 Firefox/140.0","","Firefox","140.0","Windows","10.0","https://app.prolific.com/","de,en-US;q=0.7,en;q=0.3","66ebc8c5e5b772065830754d","686e379bc37a29ffa5cdc956","687ded6b0127edc7b02c37be","1","1","66ebc8c5e5b772065830754d","1","1","2025-07-21T07:44:50.113Z","","","","","","","","","","","","","","win-only","3","g1:SW,g2:NE","0.4","7","0","589047","1101","6111","50668","1","4","8","6","2","8","8","42","34","0.3181818181818182","816","3000","1510","[""up"",""right""]","{""num_key_presses"":12,""num_perfect"":6,""num_errors"":0,""num_randdir"":6,""num_randdir_good_moves"":3,""num_whilered"":0,""num_whileblue"":0,""num_blue"":3,""num_good_moves"":9}","[424.07142857142856,420.62142399379184,0,424.07142857142856,420.62142399379184,100,424.07142857142856,420.62142399379184,209,424.07142857142856,420.62142399379184,319,469.07142857142856,390.62142399379184,429,632.5714285714286,189.62142399379184,537,704.5714285714286,125.12142399379185,647,767.5714285714286,99.62142399379185,755,769.0714285714286,99.62142399379185,865,784.0714285714286,104.12142399379185,975,1375.0714285714287,347.12142399379184,1083,1375.0714285714287,363.62142399379184,1192,1375.0714285714287,363.62142399379184,1301,1375.0714285714287,363.62142399379184,1411,1375.0714285714287,363.62142399379184,1519,1375.0714285714287,363.62142399379184,1629,1375.0714285714287,363.62142399379184,1738,1375.0714285714287,363.62142399379184,1849,1375.0714285714287,363.62142399379184,1957,1375.0714285714287,363.62142399379184,2066,1375.0714285714287,363.62142399379184,2175,1375.0714285714287,363.62142399379184,2284,1375.0714285714287,363.62142399379184,2393,1375.0714285714287,363.62142399379184,2502,1375.0714285714287,363.62142399379184,2611,1375.0714285714287,363.62142399379184,2720,1375.0714285714287,363.62142399379184,2830,1375.0714285714287,363.62142399379184,2938,1375.0714285714287,363.62142399379184,3047,1375.0714285714287,363.62142399379184,3156,1375.0714285714287,363.62142399379184,3266,1375.0714285714287,363.62142399379184,3375,1375.0714285714287,363.62142399379184,3484,1375.0714285714287,363.62142399379184,3593,1375.0714285714287,363.62142399379184,3703,1375.0714285714287,363.62142399379184,3812,1375.0714285714287,363.62142399379184,3921,1375.0714285714287,363.62142399379184,4030,1375.0714285714287,363.62142399379184,4139,1375.0714285714287,363.62142399379184,4251,1375.0714285714287,363.62142399379184,4359,1375.0714285714287,363.62142399379184,4466,1375.0714285714287,363.62142399379184,4576,1375.0714285714287,363.62142399379184,4684,1375.0714285714287,363.62142399379184,4794,1375.0714285714287,363.62142399379184,4902]","[1406,1406,1000,0,406,""smooth"",""up"",""up"",""good_move"",4440,3034,2184.1,1406,849.9,""smooth"",""right"",""right"",""good_move"",7181,2740,2390.6,4441,349.4,""oops"",""up"",""down"",""bad_move"",14003,6822,3031.9,10517,454.1,""smooth"",""up"",""up"",""good_move"",17805,3802,3420,14003,382,""smooth"",""right"",""right"",""good_move"",21162,3357,3007.1,17805,349.9,""oops"",""up"",""right"",""good_move"",23474,2312,1799.4,21162,512.6,""oops"",""up"",""up"",""good_move"",26440,2966,2234.4,23474,731.6,""oops"",""up"",""left"",""bad_move"",33026,6586,2543.2,30102,380.8,""oops"",""up"",""left"",""bad_move"",39321,6295,2250.7,36680,390.3,""oops"",""up"",""right"",""good_move"",41257,1936,1363.1,39321,572.9,""smooth"",""up"",""up"",""good_move"",44293,3036,2677.1,41257,358.9,""smooth"",""right"",""right"",""good_move""]","",""
"29932","","<div style=""width:500px;"">
  <p>What determined the result of this run?</p>
  </div>","67","html-slider-response","40","671187","0.0-5.0-1.6","134","1","2025-07-21 07:34:11","1f75c3e559b7213887762d5229550c2b","87.123.247.152","Mozilla/5.0 (Windows NT 10.0; Win64; x64; rv:140.0) Gecko/20100101 Firefox/140.0","","Firefox","140.0","Windows","10.0","https://app.prolific.com/","de,en-US;q=0.7,en;q=0.3","66ebc8c5e5b772065830754d","686e379bc37a29ffa5cdc956","687ded6b0127edc7b02c37be","1","1","66ebc8c5e5b772065830754d","1","1","2025-07-21T07:45:20.046Z","","","","","","","","","","","AttribQ","","50","","","","","","","","","","","","","","","","","","","","","","","","","","","","",""
"1852","","<div style=""width:500px;"">
  <p>How much control did you have over the ball?</p>
  </div>","65","html-slider-response","41","673040","0.0-5.0-2.6","134","1","2025-07-21 07:34:11","1f75c3e559b7213887762d5229550c2b","87.123.247.152","Mozilla/5.0 (Windows NT 10.0; Win64; x64; rv:140.0) Gecko/20100101 Firefox/140.0","","Firefox","140.0","Windows","10.0","https://app.prolific.com/","de,en-US;q=0.7,en;q=0.3","66ebc8c5e5b772065830754d","686e379bc37a29ffa5cdc956","687ded6b0127edc7b02c37be","1","1","66ebc8c5e5b772065830754d","1","1","2025-07-21T07:45:21.899Z","","","","","","","","","","","ControlQ","","50","","","","","","","","","","","","","","","","","","","","","","","","","","","","",""
"16634","","<div style=""width:500px;"">
  <p>How would you describe your current emotional state?</p>
  </div>","73","html-slider-response","42","689675","0.0-5.0-3.6","134","1","2025-07-21 07:34:11","1f75c3e559b7213887762d5229550c2b","87.123.247.152","Mozilla/5.0 (Windows NT 10.0; Win64; x64; rv:140.0) Gecko/20100101 Firefox/140.0","","Firefox","140.0","Windows","10.0","https://app.prolific.com/","de,en-US;q=0.7,en;q=0.3","66ebc8c5e5b772065830754d","686e379bc37a29ffa5cdc956","687ded6b0127edc7b02c37be","1","1","66ebc8c5e5b772065830754d","1","1","2025-07-21T07:45:38.534Z","","","","","","","","","","","StressQ","","50","","","","","","","","","","","","","","","","","","","","","","","","","","","","",""
"1445","","<div style=""width:500px;"">
  <p>What best describes how you currently feel?</p>
  </div>","76","html-slider-response","43","691122","0.0-5.0-4.6","134","1","2025-07-21 07:34:11","1f75c3e559b7213887762d5229550c2b","87.123.247.152","Mozilla/5.0 (Windows NT 10.0; Win64; x64; rv:140.0) Gecko/20100101 Firefox/140.0","","Firefox","140.0","Windows","10.0","https://app.prolific.com/","de,en-US;q=0.7,en;q=0.3","66ebc8c5e5b772065830754d","686e379bc37a29ffa5cdc956","687ded6b0127edc7b02c37be","1","1","66ebc8c5e5b772065830754d","1","1","2025-07-21T07:45:39.981Z","","","","","","","","","","","MotivationQ","","50","","","","","","","","","","","","","","","","","","","","","","","","","","","","",""
"","","","","ctl-task-cpt","44","778489","0.0-5.0-0.7","134","1","2025-07-21 07:34:11","1f75c3e559b7213887762d5229550c2b","87.123.247.152","Mozilla/5.0 (Windows NT 10.0; Win64; x64; rv:140.0) Gecko/20100101 Firefox/140.0","","Firefox","140.0","Windows","10.0","https://app.prolific.com/","de,en-US;q=0.7,en;q=0.3","66ebc8c5e5b772065830754d","686e379bc37a29ffa5cdc956","687ded6b0127edc7b02c37be","1","1","66ebc8c5e5b772065830754d","1","1","2025-07-21T07:47:07.348Z","","","","","","","","","","","","","","win-only","1","g1:NE,g2:SW","0.3","8","0","692585","974","5979","84364","1","4","4","6","2","4","4","46","42","0.3484848484848485","812","3000","685","[""down"",""left""]","{""num_key_presses"":20,""num_perfect"":6,""num_errors"":0,""num_randdir"":14,""num_randdir_good_moves"":7,""num_whilered"":0,""num_whileblue"":0,""num_blue"":5,""num_good_moves"":13}","[406.07142857142856,423.62142399379184,0,406.07142857142856,423.62142399379184,108,406.07142857142856,423.62142399379184,219,446.57142857142856,423.62142399379184,327,379.07142857142856,485.12142399379184,436,142.07142857142856,677.1214239937918,545,110.57142857142857,696.6214239937918,654,106.07142857142857,722.1214239937918,763,112.07142857142857,744.6214239937918,872,308.57142857142856,672.6214239937918,988,1072.0714285714287,431.12142399379184,1091,1205.5714285714287,398.12142399379184,1201,1205.5714285714287,398.12142399379184,1312,1205.5714285714287,398.12142399379184,1421,1205.5714285714287,398.12142399379184,1531,1205.5714285714287,398.12142399379184,1639,1205.5714285714287,398.12142399379184,1748,1205.5714285714287,398.12142399379184,1858,1205.5714285714287,398.12142399379184,1968,1205.5714285714287,398.12142399379184,2078,1205.5714285714287,398.12142399379184,2189,1205.5714285714287,398.12142399379184,2296,1205.5714285714287,398.12142399379184,2406,1205.5714285714287,398.12142399379184,2517,1205.5714285714287,398.12142399379184,2626,1205.5714285714287,398.12142399379184,2735,1205.5714285714287,398.12142399379184,2845,1205.5714285714287,398.12142399379184,2954,1205.5714285714287,398.12142399379184,3065,1205.5714285714287,398.12142399379184,3174,1205.5714285714287,398.12142399379184,3283,1205.5714285714287,398.12142399379184,3394,1205.5714285714287,398.12142399379184,3502,1205.5714285714287,398.12142399379184,3613,1205.5714285714287,398.12142399379184,3724,1205.5714285714287,398.12142399379184,3832,1205.5714285714287,398.12142399379184,3943,1205.5714285714287,398.12142399379184,4051,1205.5714285714287,398.12142399379184,4163,1205.5714285714287,398.12142399379184,4272,1205.5714285714287,398.12142399379184,4382,1205.5714285714287,398.12142399379184,4492,1205.5714285714287,398.12142399379184,4602,1205.5714285714287,398.12142399379184,4711,1205.5714285714287,398.12142399379184,4820,1205.5714285714287,398.12142399379184,4927]","[1373,1373,1000,0,373,""smooth"",""left"",""left"",""good_move"",4345,2972,2503.6,1373,468.4,""oops"",""down"",""left"",""good_move"",7316,2971,2550.1,4345,420.9,""oops"",""down"",""left"",""good_move"",10278,2962,2237.3,7316,724.7,""smooth"",""down"",""down"",""good_move"",13676,3398,3046.4,10278,351.6,""smooth"",""down"",""down"",""good_move"",16970,3294,2961.9,13676,332.1,""oops"",""down"",""right"",""bad_move"",27984,11014,3249.1,24351,383.9,""oops"",""left"",""down"",""good_move"",31066,3082,2623.1,27984,458.9,""oops"",""left"",""right"",""bad_move"",34840,3774,3377,31066,397,""oops"",""left"",""right"",""bad_move"",43594,8754,1743.3,41443,407.7,""oops"",""left"",""right"",""bad_move"",46212,2618,2094.1,43594,523.9,""smooth"",""left"",""left"",""good_move"",49334,3122,2740.6,46212,381.4,""smooth"",""left"",""left"",""good_move"",52316,2981,2234.3,49335,746.7,""smooth"",""left"",""left"",""good_move"",55317,3000,2018.6,52317,982.4,""oops"",""left"",""right"",""bad_move"",58450,3132,2745,55318,387,""oops"",""left"",""left"",""good_move"",61596,3146,2806.5,58450,339.5,""oops"",""left"",""up"",""bad_move"",64975,3379,3030.3,61596,348.7,""oops"",""left"",""right"",""bad_move"",71656,6681,2883.6,68401,371.4,""oops"",""left"",""left"",""good_move"",74773,3117,2062.9,71656,1054.1,""oops"",""left"",""left"",""good_move"",78098,3325,3010.1,74773,314.9,""oops"",""down"",""down"",""good_move""]","",""
"38724","","<div style=""width:500px;"">
  <p>What determined the result of this run?</p>
  </div>","70","html-slider-response","45","817214","0.0-5.0-1.7","134","1","2025-07-21 07:34:11","1f75c3e559b7213887762d5229550c2b","87.123.247.152","Mozilla/5.0 (Windows NT 10.0; Win64; x64; rv:140.0) Gecko/20100101 Firefox/140.0","","Firefox","140.0","Windows","10.0","https://app.prolific.com/","de,en-US;q=0.7,en;q=0.3","66ebc8c5e5b772065830754d","686e379bc37a29ffa5cdc956","687ded6b0127edc7b02c37be","1","1","66ebc8c5e5b772065830754d","1","1","2025-07-21T07:47:46.073Z","","","","","","","","","","","AttribQ","","50","","","","","","","","","","","","","","","","","","","","","","","","","","","","",""
"4588","","<div style=""width:500px;"">
  <p>How much control did you have over the ball?</p>
  </div>","70","html-slider-response","46","821804","0.0-5.0-2.7","134","1","2025-07-21 07:34:11","1f75c3e559b7213887762d5229550c2b","87.123.247.152","Mozilla/5.0 (Windows NT 10.0; Win64; x64; rv:140.0) Gecko/20100101 Firefox/140.0","","Firefox","140.0","Windows","10.0","https://app.prolific.com/","de,en-US;q=0.7,en;q=0.3","66ebc8c5e5b772065830754d","686e379bc37a29ffa5cdc956","687ded6b0127edc7b02c37be","1","1","66ebc8c5e5b772065830754d","1","1","2025-07-21T07:47:50.664Z","","","","","","","","","","","ControlQ","","50","","","","","","","","","","","","","","","","","","","","","","","","","","","","",""
"2323","","<div style=""width:500px;"">
  <p>How would you describe your current emotional state?</p>
  </div>","71","html-slider-response","47","824130","0.0-5.0-3.7","134","1","2025-07-21 07:34:11","1f75c3e559b7213887762d5229550c2b","87.123.247.152","Mozilla/5.0 (Windows NT 10.0; Win64; x64; rv:140.0) Gecko/20100101 Firefox/140.0","","Firefox","140.0","Windows","10.0","https://app.prolific.com/","de,en-US;q=0.7,en;q=0.3","66ebc8c5e5b772065830754d","686e379bc37a29ffa5cdc956","687ded6b0127edc7b02c37be","1","1","66ebc8c5e5b772065830754d","1","1","2025-07-21T07:47:52.989Z","","","","","","","","","","","StressQ","","50","","","","","","","","","","","","","","","","","","","","","","","","","","","","",""
"2487","","<div style=""width:500px;"">
  <p>What best describes how you currently feel?</p>
  </div>","70","html-slider-response","48","826619","0.0-5.0-4.7","134","1","2025-07-21 07:34:11","1f75c3e559b7213887762d5229550c2b","87.123.247.152","Mozilla/5.0 (Windows NT 10.0; Win64; x64; rv:140.0) Gecko/20100101 Firefox/140.0","","Firefox","140.0","Windows","10.0","https://app.prolific.com/","de,en-US;q=0.7,en;q=0.3","66ebc8c5e5b772065830754d","686e379bc37a29ffa5cdc956","687ded6b0127edc7b02c37be","1","1","66ebc8c5e5b772065830754d","1","1","2025-07-21T07:47:55.478Z","","","","","","","","","","","MotivationQ","","50","","","","","","","","","","","","","","","","","","","","","","","","","","","","",""
"","","","","ctl-task-cpt","49","918849","0.0-5.0-0.8","134","1","2025-07-21 07:34:11","1f75c3e559b7213887762d5229550c2b","87.123.247.152","Mozilla/5.0 (Windows NT 10.0; Win64; x64; rv:140.0) Gecko/20100101 Firefox/140.0","","Firefox","140.0","Windows","10.0","https://app.prolific.com/","de,en-US;q=0.7,en;q=0.3","66ebc8c5e5b772065830754d","686e379bc37a29ffa5cdc956","687ded6b0127edc7b02c37be","1","1","66ebc8c5e5b772065830754d","1","1","2025-07-21T07:49:27.709Z","","","","","","","","","","","","","","win-only","3","g1:SW,g2:NE","0.2","9","0","828082","1259","6272","89227","1","4","4","6","2","-4","-4","42","46","0.3181818181818182","1034","3000","-960","[""up"",""right""]","{""num_key_presses"":21,""num_perfect"":5,""num_errors"":0,""num_randdir"":16,""num_randdir_good_moves"":7,""num_whilered"":0,""num_whileblue"":0,""num_blue"":5,""num_good_moves"":12}","[413.57142857142856,411.62142399379184,0,413.57142857142856,411.62142399379184,105,413.57142857142856,411.62142399379184,217,425.57142857142856,417.62142399379184,324,422.57142857142856,438.62142399379184,432,421.07142857142856,462.62142399379184,541,619.0714285714286,264.62142399379184,651,665.5714285714286,197.12142399379184,760,722.5714285714286,129.62142399379184,869,751.0714285714286,105.62142399379185,979,752.5714285714286,105.62142399379185,1087,800.5714285714286,116.12142399379185,1196,1192.0714285714287,185.12142399379184,1307,1231.0714285714287,191.12142399379184,1415,1231.0714285714287,194.12142399379184,1525,1231.0714285714287,194.12142399379184,1633,1231.0714285714287,194.12142399379184,1741,1231.0714285714287,194.12142399379184,1850,1231.0714285714287,194.12142399379184,1960,1231.0714285714287,194.12142399379184,2068,1231.0714285714287,194.12142399379184,2179,1231.0714285714287,194.12142399379184,2289,1231.0714285714287,194.12142399379184,2397,1231.0714285714287,194.12142399379184,2508,1231.0714285714287,194.12142399379184,2618,1231.0714285714287,194.12142399379184,2727,1231.0714285714287,194.12142399379184,2835,1231.0714285714287,194.12142399379184,2946,1231.0714285714287,194.12142399379184,3056,1231.0714285714287,194.12142399379184,3164,1231.0714285714287,194.12142399379184,3275,1231.0714285714287,194.12142399379184,3384,1231.0714285714287,194.12142399379184,3494,1231.0714285714287,194.12142399379184,3603,1231.0714285714287,194.12142399379184,3714,1231.0714285714287,194.12142399379184,3822,1231.0714285714287,194.12142399379184,3932,1231.0714285714287,194.12142399379184,4039,1231.0714285714287,194.12142399379184,4149,1231.0714285714287,194.12142399379184,4260,1231.0714285714287,194.12142399379184,4371,1231.0714285714287,194.12142399379184,4480,1231.0714285714287,194.12142399379184,4590,1231.0714285714287,194.12142399379184,4699,1231.0714285714287,194.12142399379184,4809,1231.0714285714287,194.12142399379184,4917]","[1401,1401,1000,0,401,""smooth"",""up"",""up"",""good_move"",4623,3222,2484.1,1401,737.9,""oops"",""right"",""left"",""bad_move"",7644,3021,1861.7,4623,1159.3,""smooth"",""up"",""up"",""good_move"",16457,8813,1870.9,14226,360.1,""oops"",""right"",""down"",""bad_move"",19277,2819,2350.5,16458,468.5,""oops"",""right"",""right"",""good_move"",22199,2922,2537.4,19277,384.6,""oops"",""right"",""right"",""good_move"",28589,6390,2944.4,25271,373.6,""oops"",""up"",""down"",""bad_move"",32043,3454,3065.1,28589,388.9,""oops"",""up"",""up"",""good_move"",35055,3012,2456.2,32043,555.8,""oops"",""up"",""right"",""good_move"",37719,2664,2273.9,35055,390.1,""oops"",""up"",""right"",""good_move"",41232,3513,3159.7,37719,353.3,""oops"",""up"",""down"",""bad_move"",44918,3685,3039.2,41233,645.8,""oops"",""up"",""down"",""bad_move"",47488,2570,2114.6,44918,455.4,""oops"",""up"",""up"",""good_move"",50524,3036,2456.9,47488,579.1,""oops"",""up"",""up"",""good_move"",53530,3006,1809.7,50524,1196.3,""oops"",""up"",""down"",""bad_move"",60209,6679,2263.8,57540,405.2,""smooth"",""up"",""up"",""good_move"",67281,7072,2844.1,64053,383.9,""smooth"",""up"",""up"",""good_move"",70318,3037,2184.9,67281,852.1,""oops"",""up"",""down"",""bad_move"",73612,3294,1980.9,70318,1313.1,""oops"",""up"",""down"",""bad_move"",76497,2885,2519.4,73612,365.6,""oops"",""up"",""down"",""bad_move"",79435,2938,2596.2,76497,341.8,""smooth"",""up"",""up"",""good_move""]","",""
"2345","","<div style=""width:500px;"">
  <p>What determined the result of this run?</p>
  </div>","10","html-slider-response","50","921196","0.0-5.0-1.8","134","1","2025-07-21 07:34:11","1f75c3e559b7213887762d5229550c2b","87.123.247.152","Mozilla/5.0 (Windows NT 10.0; Win64; x64; rv:140.0) Gecko/20100101 Firefox/140.0","","Firefox","140.0","Windows","10.0","https://app.prolific.com/","de,en-US;q=0.7,en;q=0.3","66ebc8c5e5b772065830754d","686e379bc37a29ffa5cdc956","687ded6b0127edc7b02c37be","1","1","66ebc8c5e5b772065830754d","1","1","2025-07-21T07:49:30.055Z","","","","","","","","","","","AttribQ","","50","","","","","","","","","","","","","","","","","","","","","","","","","","","","",""
"1596","","<div style=""width:500px;"">
  <p>How much control did you have over the ball?</p>
  </div>","10","html-slider-response","51","922793","0.0-5.0-2.8","134","1","2025-07-21 07:34:11","1f75c3e559b7213887762d5229550c2b","87.123.247.152","Mozilla/5.0 (Windows NT 10.0; Win64; x64; rv:140.0) Gecko/20100101 Firefox/140.0","","Firefox","140.0","Windows","10.0","https://app.prolific.com/","de,en-US;q=0.7,en;q=0.3","66ebc8c5e5b772065830754d","686e379bc37a29ffa5cdc956","687ded6b0127edc7b02c37be","1","1","66ebc8c5e5b772065830754d","1","1","2025-07-21T07:49:31.652Z","","","","","","","","","","","ControlQ","","50","","","","","","","","","","","","","","","","","","","","","","","","","","","","",""
"2331","","<div style=""width:500px;"">
  <p>How would you describe your current emotional state?</p>
  </div>","96","html-slider-response","52","925126","0.0-5.0-3.8","134","1","2025-07-21 07:34:11","1f75c3e559b7213887762d5229550c2b","87.123.247.152","Mozilla/5.0 (Windows NT 10.0; Win64; x64; rv:140.0) Gecko/20100101 Firefox/140.0","","Firefox","140.0","Windows","10.0","https://app.prolific.com/","de,en-US;q=0.7,en;q=0.3","66ebc8c5e5b772065830754d","686e379bc37a29ffa5cdc956","687ded6b0127edc7b02c37be","1","1","66ebc8c5e5b772065830754d","1","1","2025-07-21T07:49:33.985Z","","","","","","","","","","","StressQ","","50","","","","","","","","","","","","","","","","","","","","","","","","","","","","",""
"2414","","<div style=""width:500px;"">
  <p>What best describes how you currently feel?</p>
  </div>","85","html-slider-response","53","927540","0.0-5.0-4.8","134","1","2025-07-21 07:34:11","1f75c3e559b7213887762d5229550c2b","87.123.247.152","Mozilla/5.0 (Windows NT 10.0; Win64; x64; rv:140.0) Gecko/20100101 Firefox/140.0","","Firefox","140.0","Windows","10.0","https://app.prolific.com/","de,en-US;q=0.7,en;q=0.3","66ebc8c5e5b772065830754d","686e379bc37a29ffa5cdc956","687ded6b0127edc7b02c37be","1","1","66ebc8c5e5b772065830754d","1","1","2025-07-21T07:49:36.399Z","","","","","","","","","","","MotivationQ","","50","","","","","","","","","","","","","","","","","","","","","","","","","","","","",""
"","","","","ctl-task-cpt","54","996994","0.0-5.0-0.9","134","1","2025-07-21 07:34:11","1f75c3e559b7213887762d5229550c2b","87.123.247.152","Mozilla/5.0 (Windows NT 10.0; Win64; x64; rv:140.0) Gecko/20100101 Firefox/140.0","","Firefox","140.0","Windows","10.0","https://app.prolific.com/","de,en-US;q=0.7,en;q=0.3","66ebc8c5e5b772065830754d","686e379bc37a29ffa5cdc956","687ded6b0127edc7b02c37be","1","1","66ebc8c5e5b772065830754d","1","1","2025-07-21T07:50:45.853Z","","","","","","","","","","","","","","win-only","0","g1:NW,g2:SE","0.4","10","0","929004","1063","6079","66448","1","4","8","6","2","8","8","50","42","0.3787878787878788","885","3000","1415","[""down"",""right""]","{""num_key_presses"":14,""num_perfect"":5,""num_errors"":0,""num_randdir"":9,""num_randdir_good_moves"":5,""num_whilered"":0,""num_whileblue"":0,""num_blue"":6,""num_good_moves"":10}","[416.57142857142856,414.62142399379184,0,416.57142857142856,414.62142399379184,101,416.57142857142856,414.62142399379184,211,415.07142857142856,414.62142399379184,321,395.57142857142856,414.62142399379184,431,466.07142857142856,501.62142399379184,541,734.5714285714286,765.6214239937918,647,739.0714285714286,783.6214239937918,756,751.0714285714286,800.1214239937918,865,751.0714285714286,800.1214239937918,974,763.0714285714286,800.1214239937918,1085,994.0714285714286,783.6214239937918,1193,1177.0714285714287,774.6214239937918,1302,1180.0714285714287,774.6214239937918,1410,1180.0714285714287,776.1214239937918,1519,1180.0714285714287,776.1214239937918,1629,1180.0714285714287,776.1214239937918,1738,1180.0714285714287,776.1214239937918,1846,1180.0714285714287,776.1214239937918,1956,1180.0714285714287,776.1214239937918,2065,1180.0714285714287,776.1214239937918,2174,1180.0714285714287,776.1214239937918,2284,1180.0714285714287,776.1214239937918,2394,1180.0714285714287,776.1214239937918,2504,1180.0714285714287,776.1214239937918,2614,1180.0714285714287,776.1214239937918,2723,1180.0714285714287,776.1214239937918,2832,1180.0714285714287,776.1214239937918,2942,1180.0714285714287,776.1214239937918,3053,1180.0714285714287,776.1214239937918,3162,1180.0714285714287,776.1214239937918,3272,1180.0714285714287,776.1214239937918,3382,1180.0714285714287,776.1214239937918,3490,1180.0714285714287,776.1214239937918,3599,1180.0714285714287,776.1214239937918,3708,1180.0714285714287,776.1214239937918,3817,1180.0714285714287,776.1214239937918,3926,1180.0714285714287,776.1214239937918,4035,1180.0714285714287,776.1214239937918,4143,1180.0714285714287,776.1214239937918,4250,1180.0714285714287,776.1214239937918,4363,1180.0714285714287,776.1214239937918,4471,1180.0714285714287,776.1214239937918,4581,1180.0714285714287,776.1214239937918,4689,1180.0714285714287,776.1214239937918,4798,1180.0714285714287,776.1214239937918,4907]","[1344,1344,1000,0,344,""oops"",""right"",""up"",""bad_move"",4316,2971,2404,1345,567,""oops"",""right"",""up"",""bad_move"",7277,2961,2532.5,4316,428.5,""smooth"",""right"",""right"",""good_move"",9783,2506,2179,7277,327,""smooth"",""down"",""down"",""good_move"",12581,2798,2466.2,9783,331.8,""oops"",""right"",""down"",""good_move"",15980,3399,3076.2,12581,322.8,""oops"",""right"",""right"",""good_move"",19056,3076,2742.7,15980,333.3,""smooth"",""down"",""down"",""good_move"",22577,3520,3189,19057,331,""oops"",""down"",""left"",""bad_move"",37515,14938,1997.1,35112,405.9,""oops"",""down"",""down"",""good_move"",39967,2452,2020.2,37515,431.8,""smooth"",""right"",""right"",""good_move"",42652,2685,2252.2,39967,432.8,""smooth"",""right"",""right"",""good_move"",49545,6893,2984.6,46211,349.4,""oops"",""down"",""left"",""bad_move"",52678,3133,2174.6,49545,958.4,""oops"",""down"",""right"",""good_move"",60085,7407,3146.3,56511,427.7,""oops"",""down"",""down"",""good_move""]","",""
"28708","","<div style=""width:500px;"">
  <p>What determined the result of this run?</p>
  </div>","70","html-slider-response","55","1025703","0.0-5.0-1.9","134","1","2025-07-21 07:34:11","1f75c3e559b7213887762d5229550c2b","87.123.247.152","Mozilla/5.0 (Windows NT 10.0; Win64; x64; rv:140.0) Gecko/20100101 Firefox/140.0","","Firefox","140.0","Windows","10.0","https://app.prolific.com/","de,en-US;q=0.7,en;q=0.3","66ebc8c5e5b772065830754d","686e379bc37a29ffa5cdc956","687ded6b0127edc7b02c37be","1","1","66ebc8c5e5b772065830754d","1","1","2025-07-21T07:51:14.562Z","","","","","","","","","","","AttribQ","","50","","","","","","","","","","","","","","","","","","","","","","","","","","","","",""
"1280","","<div style=""width:500px;"">
  <p>How much control did you have over the ball?</p>
  </div>","72","html-slider-response","56","1026984","0.0-5.0-2.9","134","1","2025-07-21 07:34:11","1f75c3e559b7213887762d5229550c2b","87.123.247.152","Mozilla/5.0 (Windows NT 10.0; Win64; x64; rv:140.0) Gecko/20100101 Firefox/140.0","","Firefox","140.0","Windows","10.0","https://app.prolific.com/","de,en-US;q=0.7,en;q=0.3","66ebc8c5e5b772065830754d","686e379bc37a29ffa5cdc956","687ded6b0127edc7b02c37be","1","1","66ebc8c5e5b772065830754d","1","1","2025-07-21T07:51:15.843Z","","","","","","","","","","","ControlQ","","50","","","","","","","","","","","","","","","","","","","","","","","","","","","","",""
"1335","","<div style=""width:500px;"">
  <p>How would you describe your current emotional state?</p>
  </div>","70","html-slider-response","57","1028320","0.0-5.0-3.9","134","1","2025-07-21 07:34:11","1f75c3e559b7213887762d5229550c2b","87.123.247.152","Mozilla/5.0 (Windows NT 10.0; Win64; x64; rv:140.0) Gecko/20100101 Firefox/140.0","","Firefox","140.0","Windows","10.0","https://app.prolific.com/","de,en-US;q=0.7,en;q=0.3","66ebc8c5e5b772065830754d","686e379bc37a29ffa5cdc956","687ded6b0127edc7b02c37be","1","1","66ebc8c5e5b772065830754d","1","1","2025-07-21T07:51:17.180Z","","","","","","","","","","","StressQ","","50","","","","","","","","","","","","","","","","","","","","","","","","","","","","",""
"1362","","<div style=""width:500px;"">
  <p>What best describes how you currently feel?</p>
  </div>","75","html-slider-response","58","1029684","0.0-5.0-4.9","134","1","2025-07-21 07:34:11","1f75c3e559b7213887762d5229550c2b","87.123.247.152","Mozilla/5.0 (Windows NT 10.0; Win64; x64; rv:140.0) Gecko/20100101 Firefox/140.0","","Firefox","140.0","Windows","10.0","https://app.prolific.com/","de,en-US;q=0.7,en;q=0.3","66ebc8c5e5b772065830754d","686e379bc37a29ffa5cdc956","687ded6b0127edc7b02c37be","1","1","66ebc8c5e5b772065830754d","1","1","2025-07-21T07:51:18.543Z","","","","","","","","","","","MotivationQ","","50","","","","","","","","","","","","","","","","","","","","","","","","","","","","",""
"","","","","ctl-task-cpt","59","1075308","0.0-5.0-0.10","134","1","2025-07-21 07:34:11","1f75c3e559b7213887762d5229550c2b","87.123.247.152","Mozilla/5.0 (Windows NT 10.0; Win64; x64; rv:140.0) Gecko/20100101 Firefox/140.0","","Firefox","140.0","Windows","10.0","https://app.prolific.com/","de,en-US;q=0.7,en;q=0.3","66ebc8c5e5b772065830754d","686e379bc37a29ffa5cdc956","687ded6b0127edc7b02c37be","1","1","66ebc8c5e5b772065830754d","1","1","2025-07-21T07:52:04.167Z","","","","","","","","","","","","","","win-only","0","g1:NW,g2:SE","0.5","11","0","1031148","936","5944","42616","1","4","8","6","2","8","8","58","50","0.4393939393939394","810","3000","2300","[""down"",""right""]","{""num_key_presses"":6,""num_perfect"":4,""num_errors"":0,""num_randdir"":2,""num_randdir_good_moves"":2,""num_whilered"":0,""num_whileblue"":0,""num_blue"":6,""num_good_moves"":6}","[409.07142857142856,416.12142399379184,0,409.07142857142856,416.12142399379184,103,415.07142857142856,413.12142399379184,214,418.07142857142856,411.62142399379184,320,487.07142857142856,410.12142399379184,432,748.0714285714286,606.6214239937918,541,749.5714285714286,638.1214239937918,649,748.0714285714286,747.6214239937918,757,751.0714285714286,783.6214239937918,868,754.0714285714286,783.6214239937918,977,1072.0714285714287,653.1214239937918,1085,1231.0714285714287,561.6214239937918,1195,1231.0714285714287,561.6214239937918,1304,1231.0714285714287,561.6214239937918,1415,1231.0714285714287,561.6214239937918,1524,1231.0714285714287,561.6214239937918,1635,1231.0714285714287,561.6214239937918,1747,1231.0714285714287,561.6214239937918,1856,1231.0714285714287,561.6214239937918,1965,1231.0714285714287,561.6214239937918,2075,1231.0714285714287,561.6214239937918,2177,1231.0714285714287,561.6214239937918,2277,1231.0714285714287,561.6214239937918,2385,1231.0714285714287,561.6214239937918,2494,1231.0714285714287,561.6214239937918,2603,1231.0714285714287,561.6214239937918,2713,1231.0714285714287,561.6214239937918,2823,1231.0714285714287,561.6214239937918,2930,1231.0714285714287,561.6214239937918,3040,1231.0714285714287,561.6214239937918,3149,1231.0714285714287,561.6214239937918,3259,1231.0714285714287,561.6214239937918,3369,1231.0714285714287,561.6214239937918,3479,1231.0714285714287,561.6214239937918,3589,1231.0714285714287,561.6214239937918,3697,1231.0714285714287,561.6214239937918,3806,1231.0714285714287,561.6214239937918,3914,1231.0714285714287,561.6214239937918,4023,1231.0714285714287,561.6214239937918,4132,1231.0714285714287,561.6214239937918,4242,1231.0714285714287,561.6214239937918,4351,1231.0714285714287,561.6214239937918,4460,1231.0714285714287,561.6214239937918,4571,1231.0714285714287,561.6214239937918,4680,1231.0714285714287,561.6214239937918,4790,1231.0714285714287,561.6214239937918,4900]","[1335,1335,1000,0,335,""smooth"",""right"",""right"",""good_move"",4221,2886,2552.4,1335,333.6,""smooth"",""right"",""right"",""good_move"",10828,6607,2764.9,7698,365.1,""smooth"",""down"",""down"",""good_move"",13703,2875,2469.4,10828,405.6,""smooth"",""down"",""down"",""good_move"",19928,6225,1892.2,17643,392.8,""oops"",""right"",""right"",""good_move"",36381,16453,2195.5,33733,452.5,""oops"",""down"",""down"",""good_move""]","",""
"2512","","<div style=""width:500px;"">
  <p>What determined the result of this run?</p>
  </div>","76","html-slider-response","60","1077821","0.0-5.0-1.10","134","1","2025-07-21 07:34:11","1f75c3e559b7213887762d5229550c2b","87.123.247.152","Mozilla/5.0 (Windows NT 10.0; Win64; x64; rv:140.0) Gecko/20100101 Firefox/140.0","","Firefox","140.0","Windows","10.0","https://app.prolific.com/","de,en-US;q=0.7,en;q=0.3","66ebc8c5e5b772065830754d","686e379bc37a29ffa5cdc956","687ded6b0127edc7b02c37be","1","1","66ebc8c5e5b772065830754d","1","1","2025-07-21T07:52:06.680Z","","","","","","","","","","","AttribQ","","50","","","","","","","","","","","","","","","","","","","","","","","","","","","","",""
"1408","","<div style=""width:500px;"">
  <p>How much control did you have over the ball?</p>
  </div>","79","html-slider-response","61","1079230","0.0-5.0-2.10","134","1","2025-07-21 07:34:11","1f75c3e559b7213887762d5229550c2b","87.123.247.152","Mozilla/5.0 (Windows NT 10.0; Win64; x64; rv:140.0) Gecko/20100101 Firefox/140.0","","Firefox","140.0","Windows","10.0","https://app.prolific.com/","de,en-US;q=0.7,en;q=0.3","66ebc8c5e5b772065830754d","686e379bc37a29ffa5cdc956","687ded6b0127edc7b02c37be","1","1","66ebc8c5e5b772065830754d","1","1","2025-07-21T07:52:08.089Z","","","","","","","","","","","ControlQ","","50","","","","","","","","","","","","","","","","","","","","","","","","","","","","",""
"1603","","<div style=""width:500px;"">
  <p>How would you describe your current emotional state?</p>
  </div>","75","html-slider-response","62","1080835","0.0-5.0-3.10","134","1","2025-07-21 07:34:11","1f75c3e559b7213887762d5229550c2b","87.123.247.152","Mozilla/5.0 (Windows NT 10.0; Win64; x64; rv:140.0) Gecko/20100101 Firefox/140.0","","Firefox","140.0","Windows","10.0","https://app.prolific.com/","de,en-US;q=0.7,en;q=0.3","66ebc8c5e5b772065830754d","686e379bc37a29ffa5cdc956","687ded6b0127edc7b02c37be","1","1","66ebc8c5e5b772065830754d","1","1","2025-07-21T07:52:09.694Z","","","","","","","","","","","StressQ","","50","","","","","","","","","","","","","","","","","","","","","","","","","","","","",""
"2123","","<div style=""width:500px;"">
  <p>What best describes how you currently feel?</p>
  </div>","78","html-slider-response","63","1082959","0.0-5.0-4.10","134","1","2025-07-21 07:34:11","1f75c3e559b7213887762d5229550c2b","87.123.247.152","Mozilla/5.0 (Windows NT 10.0; Win64; x64; rv:140.0) Gecko/20100101 Firefox/140.0","","Firefox","140.0","Windows","10.0","https://app.prolific.com/","de,en-US;q=0.7,en;q=0.3","66ebc8c5e5b772065830754d","686e379bc37a29ffa5cdc956","687ded6b0127edc7b02c37be","1","1","66ebc8c5e5b772065830754d","1","1","2025-07-21T07:52:11.818Z","","","","","","","","","","","MotivationQ","","50","","","","","","","","","","","","","","","","","","","","","","","","","","","","",""
"","","","","ctl-task-cpt","64","1129512","0.0-5.0-0.11","134","1","2025-07-21 07:34:11","1f75c3e559b7213887762d5229550c2b","87.123.247.152","Mozilla/5.0 (Windows NT 10.0; Win64; x64; rv:140.0) Gecko/20100101 Firefox/140.0","","Firefox","140.0","Windows","10.0","https://app.prolific.com/","de,en-US;q=0.7,en;q=0.3","66ebc8c5e5b772065830754d","686e379bc37a29ffa5cdc956","687ded6b0127edc7b02c37be","1","1","66ebc8c5e5b772065830754d","1","1","2025-07-21T07:52:58.371Z","","","","","","","","","","","","","","win-only","0","g1:NW,g2:SE","0.6","12","0","1084422","919","5933","43540","1","4","4","6","2","4","4","62","58","0.4696969696969697","938","3000","1785","[""down"",""right""]","{""num_key_presses"":10,""num_perfect"":6,""num_errors"":0,""num_randdir"":4,""num_randdir_good_moves"":2,""num_whilered"":0,""num_whileblue"":0,""num_blue"":2,""num_good_moves"":8}","[415.07142857142856,404.12142399379184,0,415.07142857142856,404.12142399379184,103,419.57142857142856,404.12142399379184,215,502.07142857142856,444.62142399379184,323,529.0714285714286,474.62142399379184,432,538.0714285714286,510.62142399379184,542,635.5714285714286,666.6214239937918,651,737.5714285714286,723.6214239937918,760,760.0714285714286,734.1214239937918,869,760.0714285714286,734.1214239937918,979,760.0714285714286,734.1214239937918,1088,838.0714285714286,690.6214239937918,1197,925.0714285714286,656.1214239937918,1306,928.0714285714286,656.1214239937918,1416,928.0714285714286,656.1214239937918,1525,928.0714285714286,656.1214239937918,1634,928.0714285714286,656.1214239937918,1743,928.0714285714286,656.1214239937918,1853,928.0714285714286,656.1214239937918,1962,928.0714285714286,656.1214239937918,2072,928.0714285714286,656.1214239937918,2181,928.0714285714286,656.1214239937918,2288,928.0714285714286,656.1214239937918,2399,928.0714285714286,656.1214239937918,2509,928.0714285714286,656.1214239937918,2619,928.0714285714286,656.1214239937918,2728,928.0714285714286,656.1214239937918,2838,928.0714285714286,656.1214239937918,2949,928.0714285714286,656.1214239937918,3058,928.0714285714286,656.1214239937918,3166,928.0714285714286,656.1214239937918,3274,928.0714285714286,656.1214239937918,3384,928.0714285714286,656.1214239937918,3497,928.0714285714286,656.1214239937918,3605,928.0714285714286,656.1214239937918,3714,928.0714285714286,656.1214239937918,3823,928.0714285714286,656.1214239937918,3931,928.0714285714286,656.1214239937918,4041,928.0714285714286,656.1214239937918,4151,928.0714285714286,656.1214239937918,4260,928.0714285714286,656.1214239937918,4370,928.0714285714286,656.1214239937918,4481,928.0714285714286,656.1214239937918,4590,928.0714285714286,656.1214239937918,4701,928.0714285714286,656.1214239937918,4811,928.0714285714286,656.1214239937918,4919]","[1404,1404,1000,0,404,""smooth"",""right"",""right"",""good_move"",8136,6732,2171.4,5559,405.6,""smooth"",""right"",""right"",""good_move"",11756,3620,3193.7,8136,426.3,""smooth"",""down"",""down"",""good_move"",14772,3016,2591.3,11756,424.7,""oops"",""down"",""up"",""bad_move"",17789,3016,2542.9,14773,473.1,""oops"",""down"",""up"",""bad_move"",24330,6541,2451.7,21508,370.3,""smooth"",""down"",""down"",""good_move"",27398,3068,2709.1,24330,358.9,""smooth"",""down"",""down"",""good_move"",30499,3101,2706.4,27398,394.6,""smooth"",""down"",""down"",""good_move"",34221,3722,3324.4,30499,397.6,""oops"",""down"",""down"",""good_move"",37337,3116,2705.1,34221,410.9,""oops"",""right"",""right"",""good_move""]","",""
"5571","","<div style=""width:500px;"">
  <p>What determined the result of this run?</p>
  </div>","65","html-slider-response","65","1135084","0.0-5.0-1.11","134","1","2025-07-21 07:34:11","1f75c3e559b7213887762d5229550c2b","87.123.247.152","Mozilla/5.0 (Windows NT 10.0; Win64; x64; rv:140.0) Gecko/20100101 Firefox/140.0","","Firefox","140.0","Windows","10.0","https://app.prolific.com/","de,en-US;q=0.7,en;q=0.3","66ebc8c5e5b772065830754d","686e379bc37a29ffa5cdc956","687ded6b0127edc7b02c37be","1","1","66ebc8c5e5b772065830754d","1","1","2025-07-21T07:53:03.943Z","","","","","","","","","","","AttribQ","","50","","","","","","","","","","","","","","","","","","","","","","","","","","","","",""
"2300","","<div style=""width:500px;"">
  <p>How much control did you have over the ball?</p>
  </div>","66","html-slider-response","66","1137386","0.0-5.0-2.11","134","1","2025-07-21 07:34:11","1f75c3e559b7213887762d5229550c2b","87.123.247.152","Mozilla/5.0 (Windows NT 10.0; Win64; x64; rv:140.0) Gecko/20100101 Firefox/140.0","","Firefox","140.0","Windows","10.0","https://app.prolific.com/","de,en-US;q=0.7,en;q=0.3","66ebc8c5e5b772065830754d","686e379bc37a29ffa5cdc956","687ded6b0127edc7b02c37be","1","1","66ebc8c5e5b772065830754d","1","1","2025-07-21T07:53:06.245Z","","","","","","","","","","","ControlQ","","50","","","","","","","","","","","","","","","","","","","","","","","","","","","","",""
"1725","","<div style=""width:500px;"">
  <p>How would you describe your current emotional state?</p>
  </div>","70","html-slider-response","67","1139112","0.0-5.0-3.11","134","1","2025-07-21 07:34:11","1f75c3e559b7213887762d5229550c2b","87.123.247.152","Mozilla/5.0 (Windows NT 10.0; Win64; x64; rv:140.0) Gecko/20100101 Firefox/140.0","","Firefox","140.0","Windows","10.0","https://app.prolific.com/","de,en-US;q=0.7,en;q=0.3","66ebc8c5e5b772065830754d","686e379bc37a29ffa5cdc956","687ded6b0127edc7b02c37be","1","1","66ebc8c5e5b772065830754d","1","1","2025-07-21T07:53:07.972Z","","","","","","","","","","","StressQ","","50","","","","","","","","","","","","","","","","","","","","","","","","","","","","",""
"1436","","<div style=""width:500px;"">
  <p>What best describes how you currently feel?</p>
  </div>","70","html-slider-response","68","1140552","0.0-5.0-4.11","134","1","2025-07-21 07:34:11","1f75c3e559b7213887762d5229550c2b","87.123.247.152","Mozilla/5.0 (Windows NT 10.0; Win64; x64; rv:140.0) Gecko/20100101 Firefox/140.0","","Firefox","140.0","Windows","10.0","https://app.prolific.com/","de,en-US;q=0.7,en;q=0.3","66ebc8c5e5b772065830754d","686e379bc37a29ffa5cdc956","687ded6b0127edc7b02c37be","1","1","66ebc8c5e5b772065830754d","1","1","2025-07-21T07:53:09.411Z","","","","","","","","","","","MotivationQ","","50","","","","","","","","","","","","","","","","","","","","","","","","","","","","",""
"","","","","ctl-task-cpt","69","1166695","0.0-5.0-0.12","134","1","2025-07-21 07:34:11","1f75c3e559b7213887762d5229550c2b","87.123.247.152","Mozilla/5.0 (Windows NT 10.0; Win64; x64; rv:140.0) Gecko/20100101 Firefox/140.0","","Firefox","140.0","Windows","10.0","https://app.prolific.com/","de,en-US;q=0.7,en;q=0.3","66ebc8c5e5b772065830754d","686e379bc37a29ffa5cdc956","687ded6b0127edc7b02c37be","1","1","66ebc8c5e5b772065830754d","1","1","2025-07-21T07:53:35.554Z","","","","","","","","","","","","","","win-only","0","g1:NW,g2:SE","0.7","13","0","1142016","1039","6053","23129","1","4","8","6","2","8","8","70","62","0.5303030303030303","795","3000","2335","[""down"",""right""]","{""num_key_presses"":6,""num_perfect"":6,""num_errors"":0,""num_randdir"":0,""num_randdir_good_moves"":0,""num_whilered"":0,""num_whileblue"":0,""num_blue"":0,""num_good_moves"":6}","[416.57142857142856,416.12142399379184,0,416.57142857142856,416.12142399379184,105,416.57142857142856,416.12142399379184,215,427.07142857142856,419.12142399379184,324,470.57142857142856,429.62142399379184,430,701.5714285714286,755.1214239937918,540,730.0714285714286,783.6214239937918,647,734.5714285714286,774.6214239937918,756,734.5714285714286,774.6214239937918,864,799.0714285714286,771.6214239937918,975,1148.5714285714287,741.6214239937918,1082,1250.5714285714287,723.6214239937918,1193,1250.5714285714287,723.6214239937918,1302,1250.5714285714287,723.6214239937918,1411,1250.5714285714287,723.6214239937918,1522,1250.5714285714287,723.6214239937918,1630,1250.5714285714287,723.6214239937918,1740,1250.5714285714287,723.6214239937918,1851,1250.5714285714287,723.6214239937918,1960,1250.5714285714287,723.6214239937918,2072,1250.5714285714287,723.6214239937918,2195,1250.5714285714287,723.6214239937918,2306,1250.5714285714287,723.6214239937918,2414,1250.5714285714287,723.6214239937918,2525,1250.5714285714287,723.6214239937918,2635,1250.5714285714287,723.6214239937918,2743,1250.5714285714287,723.6214239937918,2852,1250.5714285714287,723.6214239937918,2962,1250.5714285714287,723.6214239937918,3071,1250.5714285714287,723.6214239937918,3179,1250.5714285714287,723.6214239937918,3290,1250.5714285714287,723.6214239937918,3399,1250.5714285714287,723.6214239937918,3507,1250.5714285714287,723.6214239937918,3615,1250.5714285714287,723.6214239937918,3725,1250.5714285714287,723.6214239937918,3835,1250.5714285714287,723.6214239937918,3945,1250.5714285714287,723.6214239937918,4055,1250.5714285714287,723.6214239937918,4164,1250.5714285714287,723.6214239937918,4274,1250.5714285714287,723.6214239937918,4384,1250.5714285714287,723.6214239937918,4497,1250.5714285714287,723.6214239937918,4606,1250.5714285714287,723.6214239937918,4717,1250.5714285714287,723.6214239937918,4825,1250.5714285714287,723.6214239937918,4934]","[1379,1379,1000,0,379,""smooth"",""right"",""right"",""good_move"",4612,3233,2872.7,1379,360.3,""smooth"",""right"",""right"",""good_move"",7623,3011,2622.2,4612,388.8,""smooth"",""down"",""down"",""good_move"",10333,2709,2356,7624,353,""smooth"",""down"",""down"",""good_move"",13938,3605,3299.1,10333,305.9,""smooth"",""right"",""right"",""good_move"",16783,2845,2462.7,13938,382.3,""smooth"",""down"",""down"",""good_move""]","",""
"2131","","<div style=""width:500px;"">
  <p>What determined the result of this run?</p>
  </div>","100","html-slider-response","70","1168827","0.0-5.0-1.12","134","1","2025-07-21 07:34:11","1f75c3e559b7213887762d5229550c2b","87.123.247.152","Mozilla/5.0 (Windows NT 10.0; Win64; x64; rv:140.0) Gecko/20100101 Firefox/140.0","","Firefox","140.0","Windows","10.0","https://app.prolific.com/","de,en-US;q=0.7,en;q=0.3","66ebc8c5e5b772065830754d","686e379bc37a29ffa5cdc956","687ded6b0127edc7b02c37be","1","1","66ebc8c5e5b772065830754d","1","1","2025-07-21T07:53:37.686Z","","","","","","","","","","","AttribQ","","50","","","","","","","","","","","","","","","","","","","","","","","","","","","","",""
"1836","","<div style=""width:500px;"">
  <p>How much control did you have over the ball?</p>
  </div>","100","html-slider-response","71","1170665","0.0-5.0-2.12","134","1","2025-07-21 07:34:11","1f75c3e559b7213887762d5229550c2b","87.123.247.152","Mozilla/5.0 (Windows NT 10.0; Win64; x64; rv:140.0) Gecko/20100101 Firefox/140.0","","Firefox","140.0","Windows","10.0","https://app.prolific.com/","de,en-US;q=0.7,en;q=0.3","66ebc8c5e5b772065830754d","686e379bc37a29ffa5cdc956","687ded6b0127edc7b02c37be","1","1","66ebc8c5e5b772065830754d","1","1","2025-07-21T07:53:39.524Z","","","","","","","","","","","ControlQ","","50","","","","","","","","","","","","","","","","","","","","","","","","","","","","",""
"1438","","<div style=""width:500px;"">
  <p>How would you describe your current emotional state?</p>
  </div>","76","html-slider-response","72","1172104","0.0-5.0-3.12","134","1","2025-07-21 07:34:11","1f75c3e559b7213887762d5229550c2b","87.123.247.152","Mozilla/5.0 (Windows NT 10.0; Win64; x64; rv:140.0) Gecko/20100101 Firefox/140.0","","Firefox","140.0","Windows","10.0","https://app.prolific.com/","de,en-US;q=0.7,en;q=0.3","66ebc8c5e5b772065830754d","686e379bc37a29ffa5cdc956","687ded6b0127edc7b02c37be","1","1","66ebc8c5e5b772065830754d","1","1","2025-07-21T07:53:40.964Z","","","","","","","","","","","StressQ","","50","","","","","","","","","","","","","","","","","","","","","","","","","","","","",""
"1700","","<div style=""width:500px;"">
  <p>What best describes how you currently feel?</p>
  </div>","68","html-slider-response","73","1173807","0.0-5.0-4.12","134","1","2025-07-21 07:34:11","1f75c3e559b7213887762d5229550c2b","87.123.247.152","Mozilla/5.0 (Windows NT 10.0; Win64; x64; rv:140.0) Gecko/20100101 Firefox/140.0","","Firefox","140.0","Windows","10.0","https://app.prolific.com/","de,en-US;q=0.7,en;q=0.3","66ebc8c5e5b772065830754d","686e379bc37a29ffa5cdc956","687ded6b0127edc7b02c37be","1","1","66ebc8c5e5b772065830754d","1","1","2025-07-21T07:53:42.666Z","","","","","","","","","","","MotivationQ","","50","","","","","","","","","","","","","","","","","","","","","","","","","","","","",""
"","","","","ctl-task-cpt","74","1208668","0.0-5.0-0.13","134","1","2025-07-21 07:34:11","1f75c3e559b7213887762d5229550c2b","87.123.247.152","Mozilla/5.0 (Windows NT 10.0; Win64; x64; rv:140.0) Gecko/20100101 Firefox/140.0","","Firefox","140.0","Windows","10.0","https://app.prolific.com/","de,en-US;q=0.7,en;q=0.3","66ebc8c5e5b772065830754d","686e379bc37a29ffa5cdc956","687ded6b0127edc7b02c37be","1","1","66ebc8c5e5b772065830754d","1","1","2025-07-21T07:54:17.528Z","","","","","","","","","","","","","","win-only","3","g1:SW,g2:NE","0.8","14","0","1175271","1280","6295","31854","1","4","4","6","2","4","4","74","70","0.5606060606060606","1348","3000","1935","[""up"",""right""]","{""num_key_presses"":8,""num_perfect"":6,""num_errors"":0,""num_randdir"":2,""num_randdir_good_moves"":1,""num_whilered"":0,""num_whileblue"":0,""num_blue"":1,""num_good_moves"":7}","[406.07142857142856,414.62142399379184,0,406.07142857142856,414.62142399379184,109,412.07142857142856,410.12142399379184,217,434.57142857142856,402.62142399379184,327,458.57142857142856,396.62142399379184,435,466.07142857142856,396.62142399379184,544,652.0714285714286,291.62142399379184,655,1375.0714285714287,-117.87857600620815,765,1370.5714285714287,-117.87857600620815,874,1076.5714285714287,-86.37857600620815,982,913.0714285714286,-44.37857600620815,1082,850.0714285714286,-14.37857600620815,1186,800.5714285714286,26.12142399379185,1296,796.0714285714286,27.62142399379185,1406,796.0714285714286,27.62142399379185,1514,1069.0714285714287,95.12142399379185,1624,1199.5714285714287,144.62142399379184,1731,1202.5714285714287,164.12142399379184,1840,1207.0714285714287,174.62142399379184,1950,1207.0714285714287,174.62142399379184,2058,1207.0714285714287,174.62142399379184,2166,1207.0714285714287,174.62142399379184,2276,1207.0714285714287,174.62142399379184,2385,1207.0714285714287,174.62142399379184,2495,1207.0714285714287,174.62142399379184,2604,1207.0714285714287,174.62142399379184,2712,1207.0714285714287,174.62142399379184,2822,1207.0714285714287,174.62142399379184,2934,1207.0714285714287,174.62142399379184,3044,1207.0714285714287,174.62142399379184,3154,1207.0714285714287,174.62142399379184,3263,1207.0714285714287,174.62142399379184,3372,1207.0714285714287,174.62142399379184,3482,1207.0714285714287,174.62142399379184,3591,1207.0714285714287,174.62142399379184,3700,1207.0714285714287,174.62142399379184,3809,1207.0714285714287,174.62142399379184,3919,1207.0714285714287,174.62142399379184,4029,1207.0714285714287,174.62142399379184,4139,1207.0714285714287,174.62142399379184,4248,1207.0714285714287,174.62142399379184,4357,1207.0714285714287,174.62142399379184,4467,1207.0714285714287,174.62142399379184,4577,1207.0714285714287,174.62142399379184,4687,1207.0714285714287,174.62142399379184,4796,1207.0714285714287,174.62142399379184,4905]","[1351,1351,1000,0,351,""oops"",""up"",""left"",""bad_move"",4378,3027,2239.2,1351,787.8,""oops"",""up"",""up"",""good_move"",7340,2962,2379.8,4378,582.2,""smooth"",""right"",""right"",""good_move"",12655,5315,1615,10642,398,""smooth"",""right"",""right"",""good_move"",15711,3056,2097.7,12655,958.3,""smooth"",""up"",""up"",""good_move"",18697,2986,2542.7,15711,443.3,""smooth"",""right"",""right"",""good_move"",21266,2569,2245.7,18697,323.3,""smooth"",""up"",""up"",""good_move"",25280,4014,3671.8,21266,342.2,""smooth"",""right"",""right"",""good_move""]","",""
"2490","","<div style=""width:500px;"">
  <p>What determined the result of this run?</p>
  </div>","69","html-slider-response","75","1211164","0.0-5.0-1.13","134","1","2025-07-21 07:34:11","1f75c3e559b7213887762d5229550c2b","87.123.247.152","Mozilla/5.0 (Windows NT 10.0; Win64; x64; rv:140.0) Gecko/20100101 Firefox/140.0","","Firefox","140.0","Windows","10.0","https://app.prolific.com/","de,en-US;q=0.7,en;q=0.3","66ebc8c5e5b772065830754d","686e379bc37a29ffa5cdc956","687ded6b0127edc7b02c37be","1","1","66ebc8c5e5b772065830754d","1","1","2025-07-21T07:54:20.023Z","","","","","","","","","","","AttribQ","","50","","","","","","","","","","","","","","","","","","","","","","","","","","","","",""
"1274","","<div style=""width:500px;"">
  <p>How much control did you have over the ball?</p>
  </div>","72","html-slider-response","76","1212439","0.0-5.0-2.13","134","1","2025-07-21 07:34:11","1f75c3e559b7213887762d5229550c2b","87.123.247.152","Mozilla/5.0 (Windows NT 10.0; Win64; x64; rv:140.0) Gecko/20100101 Firefox/140.0","","Firefox","140.0","Windows","10.0","https://app.prolific.com/","de,en-US;q=0.7,en;q=0.3","66ebc8c5e5b772065830754d","686e379bc37a29ffa5cdc956","687ded6b0127edc7b02c37be","1","1","66ebc8c5e5b772065830754d","1","1","2025-07-21T07:54:21.298Z","","","","","","","","","","","ControlQ","","50","","","","","","","","","","","","","","","","","","","","","","","","","","","","",""
"1658","","<div style=""width:500px;"">
  <p>How would you describe your current emotional state?</p>
  </div>","66","html-slider-response","77","1214098","0.0-5.0-3.13","134","1","2025-07-21 07:34:11","1f75c3e559b7213887762d5229550c2b","87.123.247.152","Mozilla/5.0 (Windows NT 10.0; Win64; x64; rv:140.0) Gecko/20100101 Firefox/140.0","","Firefox","140.0","Windows","10.0","https://app.prolific.com/","de,en-US;q=0.7,en;q=0.3","66ebc8c5e5b772065830754d","686e379bc37a29ffa5cdc956","687ded6b0127edc7b02c37be","1","1","66ebc8c5e5b772065830754d","1","1","2025-07-21T07:54:22.957Z","","","","","","","","","","","StressQ","","50","","","","","","","","","","","","","","","","","","","","","","","","","","","","",""
"1551","","<div style=""width:500px;"">
  <p>What best describes how you currently feel?</p>
  </div>","72","html-slider-response","78","1215650","0.0-5.0-4.13","134","1","2025-07-21 07:34:11","1f75c3e559b7213887762d5229550c2b","87.123.247.152","Mozilla/5.0 (Windows NT 10.0; Win64; x64; rv:140.0) Gecko/20100101 Firefox/140.0","","Firefox","140.0","Windows","10.0","https://app.prolific.com/","de,en-US;q=0.7,en;q=0.3","66ebc8c5e5b772065830754d","686e379bc37a29ffa5cdc956","687ded6b0127edc7b02c37be","1","1","66ebc8c5e5b772065830754d","1","1","2025-07-21T07:54:24.509Z","","","","","","","","","","","MotivationQ","","50","","","","","","","","","","","","","","","","","","","","","","","","","","","","",""
