"rt","response_timestamp","stimulus","response","trial_type","trial_index","time_elapsed","internal_node_id","run_id","condition","recorded_at","source_code_version","ip","user_agent","device","browser","browser_version","platform","platform_version","referer","accept_language","PROLIFIC_PID","STUDY_ID","SESSION_ID","WEEK","BATCH","prolific_id","week","batch","realtime","success","responses","item_order","radio_event_ids","radio_event_times","key_event_times","mouse_event_times","straightlining","zigzagging","honeypot","eventType","view_history","slider_start","which_type","canvas_config","goals_layout","control_level","trial_number","tutorial_trial_number","trial_start_time","phase1_start_time","phase2_start_time","phase3_start_time","goal_1_value","goal_1_distance","goal_2_value","goal_2_distance","goal_selected","outcome","outcome_total","participant_final_score","participant_initial_score","participant_final_score_prop","goal_choice_rt","allocated_time","allocated_time_remaining","goal_direction","counts","mouse_movements","key_presses","question_order","question_id"
"227760","1752654192583","<p style='font-size:40px;line-height:1.25'><strong>Welcome to the experiment!</strong></p><p style='font-size:1.1em;line-height:1.25'>Thank you for participanting in our experiment again! You will be asked to play the Dysfunctional Ball Game again. We will briefly recap the rules before we start.</p><p style='font-size:1.1em;line-height:1.25'>Press <strong>Next</strong> to continue.</p>","0","custom-html-button-response","0","227770","0.0-0.0","47","1","2025-07-16 08:19:22","1f75c3e559b7213887762d5229550c2b","41.122.151.229","Mozilla/5.0 (Macintosh; Intel Mac OS X 10_15_7) AppleWebKit/537.36 (KHTML, like Gecko) Chrome/128.0.0.0 Safari/537.36","Macintosh","Chrome","128.0.0.0","OS X","10_15_7","https://app.prolific.com/","en-GB,en-US;q=0.9,en;q=0.8","6780db9dafd89add339abb6b","686e379bc37a29ffa5cdc956","68775fee412010210d6c7b67","1","1","6780db9dafd89add339abb6b","1","1","2025-07-16T08:23:12.584Z","","","","","","","","","","","","","","","","","","","","","","","","","","","","","","","","","","","","","","","","","",""
"1265","","","","fullscreen","1","230039","0.0-1.0","47","1","2025-07-16 08:19:22","1f75c3e559b7213887762d5229550c2b","41.122.151.229","Mozilla/5.0 (Macintosh; Intel Mac OS X 10_15_7) AppleWebKit/537.36 (KHTML, like Gecko) Chrome/128.0.0.0 Safari/537.36","Macintosh","Chrome","128.0.0.0","OS X","10_15_7","https://app.prolific.com/","en-GB,en-US;q=0.9,en;q=0.8","6780db9dafd89add339abb6b","686e379bc37a29ffa5cdc956","68775fee412010210d6c7b67","1","1","6780db9dafd89add339abb6b","1","1","","true","","","","","","","","","","","","","","","","","","","","","","","","","","","","","","","","","","","","","","","","",""
"2406","1752654197260","<p style='font-size:1.1em;line-height:1.25'>In the following, we will ask you a few questions relating to your feelings in the last 24 hours.<br></p><p style='font-size:1.1em;line-height:1.25'>Press the <strong>Next</strong> button to continue.</p>","0","custom-html-button-response","2","232446","0.0-2.0-0.0","47","1","2025-07-16 08:19:22","1f75c3e559b7213887762d5229550c2b","41.122.151.229","Mozilla/5.0 (Macintosh; Intel Mac OS X 10_15_7) AppleWebKit/537.36 (KHTML, like Gecko) Chrome/128.0.0.0 Safari/537.36","Macintosh","Chrome","128.0.0.0","OS X","10_15_7","https://app.prolific.com/","en-GB,en-US;q=0.9,en;q=0.8","6780db9dafd89add339abb6b","686e379bc37a29ffa5cdc956","68775fee412010210d6c7b67","1","1","6780db9dafd89add339abb6b","1","1","2025-07-16T08:23:17.260Z","","","","","","","","","","","","","","","","","","","","","","","","","","","","","","","","","","","","","","","","","",""
"401775","","","","survey-template","3","634241","0.0-2.0-1.0","47","1","2025-07-16 08:19:22","1f75c3e559b7213887762d5229550c2b","41.122.151.229","Mozilla/5.0 (Macintosh; Intel Mac OS X 10_15_7) AppleWebKit/537.36 (KHTML, like Gecko) Chrome/128.0.0.0 Safari/537.36","Macintosh","Chrome","128.0.0.0","OS X","10_15_7","https://app.prolific.com/","en-GB,en-US;q=0.9,en;q=0.8","6780db9dafd89add339abb6b","686e379bc37a29ffa5cdc956","68775fee412010210d6c7b67","1","1","6780db9dafd89add339abb6b","1","1","2025-07-16T08:29:59.055Z","","{""Q01"":""0"",""Q02"":""0"",""Q03"":""1"",""Q04"":""3"",""Q05"":""1"",""Q06"":""3"",""Q07"":""2"",""Q08"":""3"",""Q09"":""1"",""Q10"":""1"",""Q11"":""2"",""Q12"":""2"",""Q13"":""1"",""Q14"":""2"",""Q15"":""2"",""Q16"":""1"",""Q17"":""2"",""Q18"":""1"",""Q19"":""3"",""Q20"":""3"",""Q21"":""2"",""Q22"":""3""}","[0,1,2,3,4,5,6,7,8,9,10,11,12,13,14,15,16,17,18,19,20,21]","[""Q01"",""Q02"",""Q03"",""Q04"",""Q06"",""Q07"",""Q08"",""Q09"",""Q10"",""Q11"",""Q13"",""Q12"",""Q14"",""Q15"",""Q16"",""Q17"",""Q18"",""Q19"",""Q20"",""Q21"",""Q22"",""Q05""]","[242013.70000004768,357201.09999990463,358498.7999999523,361501.59999990463,366247.39999985695,367963.39999985695,369195.5,370249.89999985695,370910.59999990463,373307.59999990463,375820.39999985695,376516.39999985695,377440.39999985695,377888.7999999523,382753.5,383489.39999985695,385045.5,388337.7999999523,389117.7000000477,390961.39999985695,391894.5,399148.5]","[]","[0.09999990463256836,242013.70000004768,356325.7999999523,357201.09999990463,357864,358498.7999999523,361501.59999990463,362847.5,363731.7999999523,364697.7000000477,365337.7000000477,365813.39999985695,366247.39999985695,366749.89999985695,367489.5,367963.39999985695,368821.5,369195.5,370249.89999985695,370910.59999990463,372014.7999999523,372509.5,373307.59999990463,374054.2999999523,375820.39999985695,376516.39999985695,377440.39999985695,377888.7999999523,378382.7000000477,379194.5,379752.7000000477,380067.89999985695,380885.2000000477,381298.39999985695,382753.5,383489.39999985695,385045.5,385520.39999985695,386824.2999999523,387487.7999999523,387895.7999999523,388337.7999999523,389117.7000000477,390961.39999985695,391894.5,395647.39999985695,399148.5,401770.59999990463]","0.3181818181818182","0.5238095238095238","0","drsp","","","","","","","","","","","","","","","","","","","","","","","","","","","","","","",""
"12079.099999904633","","","","survey-template","4","646324","0.0-2.0-2.0","47","1","2025-07-16 08:19:22","1f75c3e559b7213887762d5229550c2b","41.122.151.229","Mozilla/5.0 (Macintosh; Intel Mac OS X 10_15_7) AppleWebKit/537.36 (KHTML, like Gecko) Chrome/128.0.0.0 Safari/537.36","Macintosh","Chrome","128.0.0.0","OS X","10_15_7","https://app.prolific.com/","en-GB,en-US;q=0.9,en;q=0.8","6780db9dafd89add339abb6b","686e379bc37a29ffa5cdc956","68775fee412010210d6c7b67","1","1","6780db9dafd89add339abb6b","1","1","2025-07-16T08:30:11.138Z","","{""Q01"":""2"",""Q02"":""1"",""Q03"":""0""}","[0,1,2]","[""Q01"",""Q02"",""Q03""]","[3486.399999856949,8002.700000047684,10947.399999856949]","[]","[3486.399999856949,8002.700000047684,10947.399999856949,12077.5]","0.3333333333333333","0","0","stress","","","","","","","","","","","","","","","","","","","","","","","","","","","","","","",""
"17954","","","","instructions","5","664283","0.0-3.0-0.0","47","1","2025-07-16 08:19:22","1f75c3e559b7213887762d5229550c2b","41.122.151.229","Mozilla/5.0 (Macintosh; Intel Mac OS X 10_15_7) AppleWebKit/537.36 (KHTML, like Gecko) Chrome/128.0.0.0 Safari/537.36","Macintosh","Chrome","128.0.0.0","OS X","10_15_7","https://app.prolific.com/","en-GB,en-US;q=0.9,en;q=0.8","6780db9dafd89add339abb6b","686e379bc37a29ffa5cdc956","68775fee412010210d6c7b67","1","1","6780db9dafd89add339abb6b","1","1","","","","","","","","","","","","","[{""page_index"":0,""viewing_time"":17953}]","","","","","","","","","","","","","","","","","","","","","","","","","","","","","",""
"4229","","<p>Before you start with this game please answer the following three questions yourself. </p>
  <p>Through this game, we measure several aspects of your cognitive performance, such as reaction times, multi-tasking capabilities </p>
  <p>and the ability to assess the situation you are in.</p>
  <p></p>
  <p><b>How good do you usually are in such tasks?</b></p>","78","html-slider-response","6","668515","0.0-4.0-0.0","47","1","2025-07-16 08:19:22","1f75c3e559b7213887762d5229550c2b","41.122.151.229","Mozilla/5.0 (Macintosh; Intel Mac OS X 10_15_7) AppleWebKit/537.36 (KHTML, like Gecko) Chrome/128.0.0.0 Safari/537.36","Macintosh","Chrome","128.0.0.0","OS X","10_15_7","https://app.prolific.com/","en-GB,en-US;q=0.9,en;q=0.8","6780db9dafd89add339abb6b","686e379bc37a29ffa5cdc956","68775fee412010210d6c7b67","1","1","6780db9dafd89add339abb6b","1","1","2025-07-16T08:30:33.329Z","","","","","","","","","","","PreSkillQ","","50","","","","","","","","","","","","","","","","","","","","","","","","","","","","",""
"3484","","<div style=""width:500px;"">
  <p>How well do you think you will perform in this task compared to other participants?</p>
  </div>","64","html-slider-response","7","672001","0.0-4.0-1.0","47","1","2025-07-16 08:19:22","1f75c3e559b7213887762d5229550c2b","41.122.151.229","Mozilla/5.0 (Macintosh; Intel Mac OS X 10_15_7) AppleWebKit/537.36 (KHTML, like Gecko) Chrome/128.0.0.0 Safari/537.36","Macintosh","Chrome","128.0.0.0","OS X","10_15_7","https://app.prolific.com/","en-GB,en-US;q=0.9,en;q=0.8","6780db9dafd89add339abb6b","686e379bc37a29ffa5cdc956","68775fee412010210d6c7b67","1","1","6780db9dafd89add339abb6b","1","1","2025-07-16T08:30:36.815Z","","","","","","","","","","","PrePerfQ","","50","","","","","","","","","","","","","","","","","","","","","","","","","","","","",""
"3659","","<div style=""width:500px;"">
  <p>What best describes how you currently feel?</p>
  </div>","78","html-slider-response","8","675662","0.0-4.0-2.0","47","1","2025-07-16 08:19:22","1f75c3e559b7213887762d5229550c2b","41.122.151.229","Mozilla/5.0 (Macintosh; Intel Mac OS X 10_15_7) AppleWebKit/537.36 (KHTML, like Gecko) Chrome/128.0.0.0 Safari/537.36","Macintosh","Chrome","128.0.0.0","OS X","10_15_7","https://app.prolific.com/","en-GB,en-US;q=0.9,en;q=0.8","6780db9dafd89add339abb6b","686e379bc37a29ffa5cdc956","68775fee412010210d6c7b67","1","1","6780db9dafd89add339abb6b","1","1","2025-07-16T08:30:40.476Z","","","","","","","","","","","PreMotivationQ","","50","","","","","","","","","","","","","","","","","","","","","","","","","","","","",""
"","","","","ctl-task-cpt","9","708759","0.0-5.0-0.0","47","1","2025-07-16 08:19:22","1f75c3e559b7213887762d5229550c2b","41.122.151.229","Mozilla/5.0 (Macintosh; Intel Mac OS X 10_15_7) AppleWebKit/537.36 (KHTML, like Gecko) Chrome/128.0.0.0 Safari/537.36","Macintosh","Chrome","128.0.0.0","OS X","10_15_7","https://app.prolific.com/","en-GB,en-US;q=0.9,en;q=0.8","6780db9dafd89add339abb6b","686e379bc37a29ffa5cdc956","68775fee412010210d6c7b67","1","1","6780db9dafd89add339abb6b","1","1","2025-07-16T08:31:13.573Z","","","","","","","","","","","","","","win-only","2","g1:SE,g2:NW","1","1","0","686830.1","2053.7","7057.7","30087.6","1","4","8","6","2","8","8","8","0","0.06060606060606061","2057.5","3000","105","[""left"",""up""]","{""num_key_presses"":6,""num_perfect"":6,""num_errors"":0,""num_randdir"":0,""num_randdir_good_moves"":0,""num_whilered"":0,""num_whileblue"":0,""num_blue"":2,""num_good_moves"":6}","[349.5428623514516,356.1584874500321,0.3,349.5428623514516,356.1584874500321,102.8,349.5428623514516,356.1584874500321,207.5,349.5428623514516,356.1584874500321,311.9,349.5428623514516,356.1584874500321,412,349.5428623514516,356.1584874500321,512.5,349.5428623514516,356.1584874500321,613.3,349.5428623514516,356.1584874500321,718.4,349.5428623514516,356.1584874500321,822.7,349.5428623514516,356.1584874500321,922.7,349.5428623514516,356.1584874500321,1027.1,349.5428623514516,356.1584874500321,1127.3,349.5428623514516,356.1584874500321,1227.3,373.5428627090795,306.5584867109345,1332.2,175.14285975268908,-21.441518176646376,1432.5,70.34285819104738,-99.84151934489742,1532.6,43.142857785735806,-27.841518272013808,1632.6,31.9428576188428,76.15848327770695,1733.4,31.142857606921872,93.75848353996739,1833.5,37.542857702289304,84.15848339691624,1934.7,38.34285771421023,81.75848336115345,2038.1,39.14285772613116,81.75848336115345,2142.6,41.54285776189395,81.75848336115345,2248.1,195.1428600507123,118.55848390951618,2353.4,875.1428701835019,192.95848501816258,2453.6,1000.7428720550878,164.15848458900913,2553.6,1000.7428720550878,164.15848458900913,2653.7,1000.7428720550878,164.15848458900913,2753.8,1000.7428720550878,164.15848458900913,2853.8,1000.7428720550878,164.15848458900913,2957.5,1000.7428720550878,164.15848458900913,3057.6,1000.7428720550878,164.15848458900913,3157.6,1000.7428720550878,164.15848458900913,3262.5,1000.7428720550878,164.15848458900913,3368.2,1000.7428720550878,164.15848458900913,3473.1,1000.7428720550878,164.15848458900913,3573.3,1000.7428720550878,164.15848458900913,3677.5,1000.7428720550878,164.15848458900913,3777.6,1000.7428720550878,164.15848458900913,3877.7,1000.7428720550878,164.15848458900913,3982.7,1000.7428720550878,164.15848458900913,4082.8,1000.7428720550878,164.15848458900913,4187.3,1000.7428720550878,164.15848458900913,4287.7,1000.7428720550878,164.15848458900913,4387.7,1000.7428720550878,164.15848458900913,4492.5,1000.7428720550878,164.15848458900913,4592.8,1000.7428720550878,164.15848458900913,4697.5,1000.7428720550878,164.15848458900913,4797.8,1000.7428720550878,164.15848458900913,4902.7]","[1444.6,1444.6,1000,0,444.6,""smooth"",""up"",""up"",""good_move"",4671.5,3226.4,2846.7,1445.1,379.7,""smooth"",""left"",""left"",""good_move"",10065,5393,1990,7583.1,491.9,""smooth"",""left"",""left"",""good_move"",12758.5,2693.4,1947,10065.2,746.3,""smooth"",""left"",""left"",""good_move"",19882.4,7123.7,2552.8,16834.2,495.4,""smooth"",""up"",""up"",""good_move"",22941.4,3058.8,2664.3,19882.6,394.5,""smooth"",""up"",""up"",""good_move""]","",""
"4547","","<div style=""width:500px;"">
  <p>What determined the result of this run?</p>
  </div>","86","html-slider-response","10","713308","0.0-5.0-1.0","47","1","2025-07-16 08:19:22","1f75c3e559b7213887762d5229550c2b","41.122.151.229","Mozilla/5.0 (Macintosh; Intel Mac OS X 10_15_7) AppleWebKit/537.36 (KHTML, like Gecko) Chrome/128.0.0.0 Safari/537.36","Macintosh","Chrome","128.0.0.0","OS X","10_15_7","https://app.prolific.com/","en-GB,en-US;q=0.9,en;q=0.8","6780db9dafd89add339abb6b","686e379bc37a29ffa5cdc956","68775fee412010210d6c7b67","1","1","6780db9dafd89add339abb6b","1","1","2025-07-16T08:31:18.122Z","","","","","","","","","","","AttribQ","","50","","","","","","","","","","","","","","","","","","","","","","","","","","","","",""
"2496","","<div style=""width:500px;"">
  <p>How much control did you have over the ball?</p>
  </div>","100","html-slider-response","11","715805","0.0-5.0-2.0","47","1","2025-07-16 08:19:22","1f75c3e559b7213887762d5229550c2b","41.122.151.229","Mozilla/5.0 (Macintosh; Intel Mac OS X 10_15_7) AppleWebKit/537.36 (KHTML, like Gecko) Chrome/128.0.0.0 Safari/537.36","Macintosh","Chrome","128.0.0.0","OS X","10_15_7","https://app.prolific.com/","en-GB,en-US;q=0.9,en;q=0.8","6780db9dafd89add339abb6b","686e379bc37a29ffa5cdc956","68775fee412010210d6c7b67","1","1","6780db9dafd89add339abb6b","1","1","2025-07-16T08:31:20.619Z","","","","","","","","","","","ControlQ","","50","","","","","","","","","","","","","","","","","","","","","","","","","","","","",""
"6755","","<div style=""width:500px;"">
  <p>How would you describe your current emotional state?</p>
  </div>","12","html-slider-response","12","722561","0.0-5.0-3.0","47","1","2025-07-16 08:19:22","1f75c3e559b7213887762d5229550c2b","41.122.151.229","Mozilla/5.0 (Macintosh; Intel Mac OS X 10_15_7) AppleWebKit/537.36 (KHTML, like Gecko) Chrome/128.0.0.0 Safari/537.36","Macintosh","Chrome","128.0.0.0","OS X","10_15_7","https://app.prolific.com/","en-GB,en-US;q=0.9,en;q=0.8","6780db9dafd89add339abb6b","686e379bc37a29ffa5cdc956","68775fee412010210d6c7b67","1","1","6780db9dafd89add339abb6b","1","1","2025-07-16T08:31:27.375Z","","","","","","","","","","","StressQ","","50","","","","","","","","","","","","","","","","","","","","","","","","","","","","",""
"703394","","<div style=""width:500px;"">
  <p>What best describes how you currently feel?</p>
  </div>","78","html-slider-response","13","1425993","0.0-5.0-4.0","47","1","2025-07-16 08:19:22","1f75c3e559b7213887762d5229550c2b","41.122.151.229","Mozilla/5.0 (Macintosh; Intel Mac OS X 10_15_7) AppleWebKit/537.36 (KHTML, like Gecko) Chrome/128.0.0.0 Safari/537.36","Macintosh","Chrome","128.0.0.0","OS X","10_15_7","https://app.prolific.com/","en-GB,en-US;q=0.9,en;q=0.8","6780db9dafd89add339abb6b","686e379bc37a29ffa5cdc956","68775fee412010210d6c7b67","1","1","6780db9dafd89add339abb6b","1","1","2025-07-16T08:43:10.807Z","","","","","","","","","","","MotivationQ","","50","","","","","","","","","","","","","","","","","","","","","","","","","","","","",""
"","","","","ctl-task-cpt","14","1452224","0.0-5.0-0.1","47","1","2025-07-16 08:19:22","1f75c3e559b7213887762d5229550c2b","41.122.151.229","Mozilla/5.0 (Macintosh; Intel Mac OS X 10_15_7) AppleWebKit/537.36 (KHTML, like Gecko) Chrome/128.0.0.0 Safari/537.36","Macintosh","Chrome","128.0.0.0","OS X","10_15_7","https://app.prolific.com/","en-GB,en-US;q=0.9,en;q=0.8","6780db9dafd89add339abb6b","686e379bc37a29ffa5cdc956","68775fee412010210d6c7b67","1","1","6780db9dafd89add339abb6b","1","1","2025-07-16T08:43:37.038Z","","","","","","","","","","","","","","win-only","2","g1:SE,g2:NW","0.9","2","0","1437126.5","1421.9","6425.6","23215.7","1","4","4","6","2","4","4","12","8","0.09090909090909091","1141.4","3000","315","[""left"",""up""]","{""num_key_presses"":6,""num_perfect"":6,""num_errors"":0,""num_randdir"":0,""num_randdir_good_moves"":0,""num_whilered"":0,""num_whileblue"":0,""num_blue"":0,""num_good_moves"":6}","[347.14286231568883,345.75848729506004,0.4,347.14286231568883,345.75848729506004,101.6,345.542862291847,340.95848722353446,203.8,355.1428624348981,292.9584865082787,304.5,361.54286253026555,182.5584848631905,404.7,217.5428603844983,112.95848382606968,508.6,65.54285811952181,57.75848300352559,609.7,65.54285811952181,57.75848300352559,715.8,65.54285811952181,57.75848300352559,820,65.54285811952181,57.75848300352559,923.8,65.54285811952181,57.75848300352559,1024.5,65.54285811952181,57.75848300352559,1125.1,65.54285811952181,57.75848300352559,1229.4,65.54285811952181,57.75848300352559,1329.5,92.7428585248334,115.35848386183247,1430.1,191.14285999110766,263.35848606720435,1532.4,195.1428600507123,268.1584861387299,1636.1,194.34286003879137,268.1584861387299,1737.8,194.34286003879137,268.1584861387299,1840.6,194.34286003879137,268.1584861387299,1940.7,194.34286003879137,268.1584861387299,2040.7,194.34286003879137,268.1584861387299,2141.4,194.34286003879137,268.1584861387299,2243.7,194.34286003879137,268.1584861387299,2344.9,194.34286003879137,268.1584861387299,2444.9,194.34286003879137,268.1584861387299,2552.5,194.34286003879137,268.1584861387299,2653.8,194.34286003879137,268.1584861387299,2754.9,194.34286003879137,268.1584861387299,2858.5,194.34286003879137,268.1584861387299,2958.7,194.34286003879137,268.1584861387299,3059.2,194.34286003879137,268.1584861387299,3165,194.34286003879137,268.1584861387299,3265.6,194.34286003879137,268.1584861387299,3368.7,194.34286003879137,268.1584861387299,3469.3,194.34286003879137,268.1584861387299,3575.1,194.34286003879137,268.1584861387299,3683.4,194.34286003879137,268.1584861387299,3784,194.34286003879137,268.1584861387299,3889.3,194.34286003879137,268.1584861387299,3994.6,168.74285965732165,267.358486126809,4100.8,89.54285847714968,272.1584861983346,4204.5,-90.45714420505934,314.5584868301438,4304.5,-372.85714841314723,467.35848910704124,4404.6,-372.85714841314723,601.7584911097573,4510,-372.85714841314723,720.9584928859757,4615.5,-372.85714841314723,778.5584937442826,4716.2,-372.85714841314723,780.1584937681245,4816.7,-372.85714841314723,780.1584937681245,4919.1]","[1566.5,1566.5,1000,0,566.5,""smooth"",""up"",""up"",""good_move"",4865.1,3298,2846,1567.2,451.9,""smooth"",""up"",""up"",""good_move"",7165,2299.7,1902.8,4865.3,396.9,""smooth"",""left"",""left"",""good_move"",9621.3,2456,1949.6,7165.3,506.5,""smooth"",""left"",""left"",""good_move"",12650,3028.4,2584.7,9621.6,443.7,""smooth"",""left"",""left"",""good_move"",16682.9,4032.5,3421.8,12650.4,610.7,""smooth"",""up"",""up"",""good_move""]","",""
"28426","","<div style=""width:500px;"">
  <p>What determined the result of this run?</p>
  </div>","86","html-slider-response","15","1480652","0.0-5.0-1.1","47","1","2025-07-16 08:19:22","1f75c3e559b7213887762d5229550c2b","41.122.151.229","Mozilla/5.0 (Macintosh; Intel Mac OS X 10_15_7) AppleWebKit/537.36 (KHTML, like Gecko) Chrome/128.0.0.0 Safari/537.36","Macintosh","Chrome","128.0.0.0","OS X","10_15_7","https://app.prolific.com/","en-GB,en-US;q=0.9,en;q=0.8","6780db9dafd89add339abb6b","686e379bc37a29ffa5cdc956","68775fee412010210d6c7b67","1","1","6780db9dafd89add339abb6b","1","1","2025-07-16T08:44:05.466Z","","","","","","","","","","","AttribQ","","50","","","","","","","","","","","","","","","","","","","","","","","","","","","","",""
"2827","","<div style=""width:500px;"">
  <p>How much control did you have over the ball?</p>
  </div>","81","html-slider-response","16","1483481","0.0-5.0-2.1","47","1","2025-07-16 08:19:22","1f75c3e559b7213887762d5229550c2b","41.122.151.229","Mozilla/5.0 (Macintosh; Intel Mac OS X 10_15_7) AppleWebKit/537.36 (KHTML, like Gecko) Chrome/128.0.0.0 Safari/537.36","Macintosh","Chrome","128.0.0.0","OS X","10_15_7","https://app.prolific.com/","en-GB,en-US;q=0.9,en;q=0.8","6780db9dafd89add339abb6b","686e379bc37a29ffa5cdc956","68775fee412010210d6c7b67","1","1","6780db9dafd89add339abb6b","1","1","2025-07-16T08:44:08.295Z","","","","","","","","","","","ControlQ","","50","","","","","","","","","","","","","","","","","","","","","","","","","","","","",""
"3920","","<div style=""width:500px;"">
  <p>How would you describe your current emotional state?</p>
  </div>","25","html-slider-response","17","1487403","0.0-5.0-3.1","47","1","2025-07-16 08:19:22","1f75c3e559b7213887762d5229550c2b","41.122.151.229","Mozilla/5.0 (Macintosh; Intel Mac OS X 10_15_7) AppleWebKit/537.36 (KHTML, like Gecko) Chrome/128.0.0.0 Safari/537.36","Macintosh","Chrome","128.0.0.0","OS X","10_15_7","https://app.prolific.com/","en-GB,en-US;q=0.9,en;q=0.8","6780db9dafd89add339abb6b","686e379bc37a29ffa5cdc956","68775fee412010210d6c7b67","1","1","6780db9dafd89add339abb6b","1","1","2025-07-16T08:44:12.217Z","","","","","","","","","","","StressQ","","50","","","","","","","","","","","","","","","","","","","","","","","","","","","","",""
"10957","","<div style=""width:500px;"">
  <p>What best describes how you currently feel?</p>
  </div>","90","html-slider-response","18","1498362","0.0-5.0-4.1","47","1","2025-07-16 08:19:22","1f75c3e559b7213887762d5229550c2b","41.122.151.229","Mozilla/5.0 (Macintosh; Intel Mac OS X 10_15_7) AppleWebKit/537.36 (KHTML, like Gecko) Chrome/128.0.0.0 Safari/537.36","Macintosh","Chrome","128.0.0.0","OS X","10_15_7","https://app.prolific.com/","en-GB,en-US;q=0.9,en;q=0.8","6780db9dafd89add339abb6b","686e379bc37a29ffa5cdc956","68775fee412010210d6c7b67","1","1","6780db9dafd89add339abb6b","1","1","2025-07-16T08:44:23.176Z","","","","","","","","","","","MotivationQ","","50","","","","","","","","","","","","","","","","","","","","","","","","","","","","",""
"","","","","ctl-task-cpt","19","1535066","0.0-5.0-0.2","47","1","2025-07-16 08:19:22","1f75c3e559b7213887762d5229550c2b","41.122.151.229","Mozilla/5.0 (Macintosh; Intel Mac OS X 10_15_7) AppleWebKit/537.36 (KHTML, like Gecko) Chrome/128.0.0.0 Safari/537.36","Macintosh","Chrome","128.0.0.0","OS X","10_15_7","https://app.prolific.com/","en-GB,en-US;q=0.9,en;q=0.8","6780db9dafd89add339abb6b","686e379bc37a29ffa5cdc956","68775fee412010210d6c7b67","1","1","6780db9dafd89add339abb6b","1","1","2025-07-16T08:44:59.880Z","","","","","","","","","","","","","","win-only","1","g1:NE,g2:SW","0.8","3","0","1509492.4","1513.6","6516.4","33691.5","1","4","8","6","2","-8","-8","4","12","0.030303030303030304","1232.1","3000","-2745","[""down"",""left""]","{""num_key_presses"":6,""num_perfect"":4,""num_errors"":0,""num_randdir"":2,""num_randdir_good_moves"":1,""num_whilered"":0,""num_whileblue"":0,""num_blue"":2,""num_good_moves"":5}","[343.9428622680051,348.95848734274375,0.2,343.9428622680051,348.95848734274375,102.9,343.9428622680051,348.95848734274375,204.8,365.5428625898702,352.9584874023484,307.6,508.7428647237165,389.7584879507111,412.1,547.942865307842,368.958487640767,513.2,476.7428642468793,413.758488308339,616.7,319.94286191037725,526.55848998919,717.1,219.14286040834017,566.5584905852364,817.4,170.3428596811635,586.5584908832597,922.3,121.54285895398684,620.9584913958596,1023.6,84.7428584056241,632.1584915627526,1124.5,83.14285838178225,631.3584915508317,1229.3,83.14285838178225,631.3584915508317,1336.3,83.94285839370318,628.9584915150689,1438.3,97.54285859635897,616.158491324334,1545.3,173.54285972884722,580.1584907878922,1655.2,229.54286056331225,550.5584903468178,1757.4,366.3428626017911,510.5584897507714,1857.9,479.1428642826421,464.1584890593575,1958,561.5428655104978,418.55848837986457,2066.7,615.1428663092,389.7584879507111,2173.2,718.3428678469999,332.9584871043252,2280.2,778.3428687410695,327.35848702087867,2380.8,787.9428688841207,324.15848697319495,2489,789.5428689079625,315.35848684206474,2596.8,789.5428689079625,315.35848684206474,2706.8,789.5428689079625,315.35848684206474,2807.4,789.5428689079625,315.35848684206474,2914.4,789.5428689079625,315.35848684206474,3017.7,789.5428689079625,315.35848684206474,3120.8,789.5428689079625,315.35848684206474,3222.1,789.5428689079625,315.35848684206474,3329.2,789.5428689079625,315.35848684206474,3431.2,789.5428689079625,315.35848684206474,3532.3,789.5428689079625,315.35848684206474,3633.6,789.5428689079625,315.35848684206474,3738.9,789.5428689079625,315.35848684206474,3845.1,789.5428689079625,315.35848684206474,3949.1,789.5428689079625,315.35848684206474,4053.9,789.5428689079625,315.35848684206474,4154.1,789.5428689079625,315.35848684206474,4258,789.5428689079625,315.35848684206474,4365.2,789.5428689079625,315.35848684206474,4465.3,789.5428689079625,315.35848684206474,4567.5,789.5428689079625,315.35848684206474,4667.7,789.5428689079625,315.35848684206474,4772.3,789.5428689079625,315.35848684206474,4873,789.5428689079625,315.35848684206474,4979.6]","[5512.2,5512.3,3040.8,2010,461.5,""oops"",""down"",""down"",""good_move"",9049.1,3536.5,3068.8,5512.8,467.6,""smooth"",""down"",""down"",""good_move"",12071.7,3022.2,2103.9,9049.5,918.3,""smooth"",""down"",""down"",""good_move"",15006.7,2934.6,2448.4,12072.1,486.2,""smooth"",""left"",""left"",""good_move"",17913.2,2905.4,2462.8,15007.8,442.6,""smooth"",""left"",""left"",""good_move"",24193.6,6280.1,1994.1,21797.6,401.9,""oops"",""left"",""up"",""bad_move""]","",""
"98119","","<div style=""width:500px;"">
  <p>What determined the result of this run?</p>
  </div>","72","html-slider-response","20","1633190","0.0-5.0-1.2","47","1","2025-07-16 08:19:22","1f75c3e559b7213887762d5229550c2b","41.122.151.229","Mozilla/5.0 (Macintosh; Intel Mac OS X 10_15_7) AppleWebKit/537.36 (KHTML, like Gecko) Chrome/128.0.0.0 Safari/537.36","Macintosh","Chrome","128.0.0.0","OS X","10_15_7","https://app.prolific.com/","en-GB,en-US;q=0.9,en;q=0.8","6780db9dafd89add339abb6b","686e379bc37a29ffa5cdc956","68775fee412010210d6c7b67","1","1","6780db9dafd89add339abb6b","1","1","2025-07-16T08:46:38.004Z","","","","","","","","","","","AttribQ","","50","","","","","","","","","","","","","","","","","","","","","","","","","","","","",""
"3073","","<div style=""width:500px;"">
  <p>How much control did you have over the ball?</p>
  </div>","39","html-slider-response","21","1636265","0.0-5.0-2.2","47","1","2025-07-16 08:19:22","1f75c3e559b7213887762d5229550c2b","41.122.151.229","Mozilla/5.0 (Macintosh; Intel Mac OS X 10_15_7) AppleWebKit/537.36 (KHTML, like Gecko) Chrome/128.0.0.0 Safari/537.36","Macintosh","Chrome","128.0.0.0","OS X","10_15_7","https://app.prolific.com/","en-GB,en-US;q=0.9,en;q=0.8","6780db9dafd89add339abb6b","686e379bc37a29ffa5cdc956","68775fee412010210d6c7b67","1","1","6780db9dafd89add339abb6b","1","1","2025-07-16T08:46:41.080Z","","","","","","","","","","","ControlQ","","50","","","","","","","","","","","","","","","","","","","","","","","","","","","","",""
"2080","","<div style=""width:500px;"">
  <p>How would you describe your current emotional state?</p>
  </div>","23","html-slider-response","22","1638347","0.0-5.0-3.2","47","1","2025-07-16 08:19:22","1f75c3e559b7213887762d5229550c2b","41.122.151.229","Mozilla/5.0 (Macintosh; Intel Mac OS X 10_15_7) AppleWebKit/537.36 (KHTML, like Gecko) Chrome/128.0.0.0 Safari/537.36","Macintosh","Chrome","128.0.0.0","OS X","10_15_7","https://app.prolific.com/","en-GB,en-US;q=0.9,en;q=0.8","6780db9dafd89add339abb6b","686e379bc37a29ffa5cdc956","68775fee412010210d6c7b67","1","1","6780db9dafd89add339abb6b","1","1","2025-07-16T08:46:43.161Z","","","","","","","","","","","StressQ","","50","","","","","","","","","","","","","","","","","","","","","","","","","","","","",""
"2502","","<div style=""width:500px;"">
  <p>What best describes how you currently feel?</p>
  </div>","73","html-slider-response","23","1640852","0.0-5.0-4.2","47","1","2025-07-16 08:19:22","1f75c3e559b7213887762d5229550c2b","41.122.151.229","Mozilla/5.0 (Macintosh; Intel Mac OS X 10_15_7) AppleWebKit/537.36 (KHTML, like Gecko) Chrome/128.0.0.0 Safari/537.36","Macintosh","Chrome","128.0.0.0","OS X","10_15_7","https://app.prolific.com/","en-GB,en-US;q=0.9,en;q=0.8","6780db9dafd89add339abb6b","686e379bc37a29ffa5cdc956","68775fee412010210d6c7b67","1","1","6780db9dafd89add339abb6b","1","1","2025-07-16T08:46:45.666Z","","","","","","","","","","","MotivationQ","","50","","","","","","","","","","","","","","","","","","","","","","","","","","","","",""
"","","","","ctl-task-cpt","24","1667612","0.0-5.0-0.3","47","1","2025-07-16 08:19:22","1f75c3e559b7213887762d5229550c2b","41.122.151.229","Mozilla/5.0 (Macintosh; Intel Mac OS X 10_15_7) AppleWebKit/537.36 (KHTML, like Gecko) Chrome/128.0.0.0 Safari/537.36","Macintosh","Chrome","128.0.0.0","OS X","10_15_7","https://app.prolific.com/","en-GB,en-US;q=0.9,en;q=0.8","6780db9dafd89add339abb6b","686e379bc37a29ffa5cdc956","68775fee412010210d6c7b67","1","1","6780db9dafd89add339abb6b","1","1","2025-07-16T08:47:12.426Z","","","","","","","","","","","","","","win-only","1","g1:NE,g2:SW","0.7","4","0","1651976.5","907","5909.8","23746.1","1","4","4","6","2","4","4","8","4","0.06060606060606061","2105.6","3000","1005","[""down"",""left""]","{""num_key_presses"":6,""num_perfect"":5,""num_errors"":0,""num_randdir"":1,""num_randdir_good_moves"":1,""num_whilered"":0,""num_whileblue"":0,""num_blue"":0,""num_good_moves"":6}","[356.74286245874,348.95848734274375,0.6,356.74286245874,348.95848734274375,103.6,382.3428628402097,360.15848750963676,205.8,734.3428680854184,432.9584885944413,308.2,1066.3428730326038,461.75848902359473,413.1,1066.3428730326038,459.35848898783195,514.1,1066.3428730326038,459.35848898783195,620.5,1066.3428730326038,459.35848898783195,721.6,1066.3428730326038,459.35848898783195,824.9,1042.342872674976,476.15848923817146,930.6,943.9428712087018,512.9584897865342,1039.6,764.7428685384137,664.1584920395898,1141.4,419.94286340049337,758.5584934462594,1242.1,412.742863293205,736.1584931124734,1342.5,389.54286294749807,700.9584925879525,1446.4,233.5428606229169,656.1584919203805,1547.5,167.1428596334798,632.9584915746735,1652.5,129.54285907319613,606.5584911812829,1754.8,117.54285889438219,608.1584912051247,1857.3,103.14285867980547,611.3584912528084,1959.7,103.14285867980547,611.3584912528084,2060.3,102.34285866788454,612.1584912647294,2165.1,102.34285866788454,612.1584912647294,2273.5,339.14286219647954,652.9584918726968,2377.9,1066.3428730326038,668.9584921111153,2487.1,1066.3428730326038,651.3584918488549,2588.4,1066.3428730326038,651.3584918488549,2690,1066.3428730326038,651.3584918488549,2790.8,1066.3428730326038,651.3584918488549,2894.7,1066.3428730326038,651.3584918488549,2994.9,1066.3428730326038,651.3584918488549,3094.9,1066.3428730326038,651.3584918488549,3207.2,1066.3428730326038,651.3584918488549,3309.7,1066.3428730326038,651.3584918488549,3413.4,1066.3428730326038,651.3584918488549,3520.5,1066.3428730326038,651.3584918488549,3622.8,1066.3428730326038,651.3584918488549,3724.4,1066.3428730326038,651.3584918488549,3826.1,1066.3428730326038,651.3584918488549,3931.4,1066.3428730326038,651.3584918488549,4034.9,1066.3428730326038,651.3584918488549,4136.8,1066.3428730326038,651.3584918488549,4240.5,1066.3428730326038,651.3584918488549,4349.8,1066.3428730326038,651.3584918488549,4451.3,1066.3428730326038,651.3584918488549,4555.2,1066.3428730326038,651.3584918488549,4659.9,1066.3428730326038,651.3584918488549,4760.5,1066.3428730326038,651.3584918488549,4862.3,1066.3428730326038,651.3584918488549,4974.9]","[1605,1605,1000,0,605,""smooth"",""down"",""down"",""good_move"",3767.5,2161.5,1706.3,1606,455.2,""smooth"",""down"",""down"",""good_move"",6744.2,2976.5,2515.6,3767.7,460.9,""smooth"",""left"",""left"",""good_move"",10378.3,3633.5,3223.2,6744.8,410.3,""oops"",""left"",""left"",""good_move"",13795.7,3417.1,2947.1,10378.6,470,""smooth"",""left"",""left"",""good_move"",17732,3935.7,3521,13796.3,414.7,""smooth"",""down"",""down"",""good_move""]","",""
"8831","","<div style=""width:500px;"">
  <p>What determined the result of this run?</p>
  </div>","85","html-slider-response","25","1676445","0.0-5.0-1.3","47","1","2025-07-16 08:19:22","1f75c3e559b7213887762d5229550c2b","41.122.151.229","Mozilla/5.0 (Macintosh; Intel Mac OS X 10_15_7) AppleWebKit/537.36 (KHTML, like Gecko) Chrome/128.0.0.0 Safari/537.36","Macintosh","Chrome","128.0.0.0","OS X","10_15_7","https://app.prolific.com/","en-GB,en-US;q=0.9,en;q=0.8","6780db9dafd89add339abb6b","686e379bc37a29ffa5cdc956","68775fee412010210d6c7b67","1","1","6780db9dafd89add339abb6b","1","1","2025-07-16T08:47:21.259Z","","","","","","","","","","","AttribQ","","50","","","","","","","","","","","","","","","","","","","","","","","","","","","","",""
"1421","","<div style=""width:500px;"">
  <p>How much control did you have over the ball?</p>
  </div>","72","html-slider-response","26","1677868","0.0-5.0-2.3","47","1","2025-07-16 08:19:22","1f75c3e559b7213887762d5229550c2b","41.122.151.229","Mozilla/5.0 (Macintosh; Intel Mac OS X 10_15_7) AppleWebKit/537.36 (KHTML, like Gecko) Chrome/128.0.0.0 Safari/537.36","Macintosh","Chrome","128.0.0.0","OS X","10_15_7","https://app.prolific.com/","en-GB,en-US;q=0.9,en;q=0.8","6780db9dafd89add339abb6b","686e379bc37a29ffa5cdc956","68775fee412010210d6c7b67","1","1","6780db9dafd89add339abb6b","1","1","2025-07-16T08:47:22.682Z","","","","","","","","","","","ControlQ","","50","","","","","","","","","","","","","","","","","","","","","","","","","","","","",""
"2384","","<div style=""width:500px;"">
  <p>How would you describe your current emotional state?</p>
  </div>","23","html-slider-response","27","1680253","0.0-5.0-3.3","47","1","2025-07-16 08:19:22","1f75c3e559b7213887762d5229550c2b","41.122.151.229","Mozilla/5.0 (Macintosh; Intel Mac OS X 10_15_7) AppleWebKit/537.36 (KHTML, like Gecko) Chrome/128.0.0.0 Safari/537.36","Macintosh","Chrome","128.0.0.0","OS X","10_15_7","https://app.prolific.com/","en-GB,en-US;q=0.9,en;q=0.8","6780db9dafd89add339abb6b","686e379bc37a29ffa5cdc956","68775fee412010210d6c7b67","1","1","6780db9dafd89add339abb6b","1","1","2025-07-16T08:47:25.067Z","","","","","","","","","","","StressQ","","50","","","","","","","","","","","","","","","","","","","","","","","","","","","","",""
"2148","","<div style=""width:500px;"">
  <p>What best describes how you currently feel?</p>
  </div>","66","html-slider-response","28","1682403","0.0-5.0-4.3","47","1","2025-07-16 08:19:22","1f75c3e559b7213887762d5229550c2b","41.122.151.229","Mozilla/5.0 (Macintosh; Intel Mac OS X 10_15_7) AppleWebKit/537.36 (KHTML, like Gecko) Chrome/128.0.0.0 Safari/537.36","Macintosh","Chrome","128.0.0.0","OS X","10_15_7","https://app.prolific.com/","en-GB,en-US;q=0.9,en;q=0.8","6780db9dafd89add339abb6b","686e379bc37a29ffa5cdc956","68775fee412010210d6c7b67","1","1","6780db9dafd89add339abb6b","1","1","2025-07-16T08:47:27.217Z","","","","","","","","","","","MotivationQ","","50","","","","","","","","","","","","","","","","","","","","","","","","","","","","",""
"","","","","ctl-task-cpt","29","1726460","0.0-5.0-0.4","47","1","2025-07-16 08:19:22","1f75c3e559b7213887762d5229550c2b","41.122.151.229","Mozilla/5.0 (Macintosh; Intel Mac OS X 10_15_7) AppleWebKit/537.36 (KHTML, like Gecko) Chrome/128.0.0.0 Safari/537.36","Macintosh","Chrome","128.0.0.0","OS X","10_15_7","https://app.prolific.com/","en-GB,en-US;q=0.9,en;q=0.8","6780db9dafd89add339abb6b","686e379bc37a29ffa5cdc956","68775fee412010210d6c7b67","1","1","6780db9dafd89add339abb6b","1","1","2025-07-16T08:48:11.275Z","","","","","","","","","","","","","","win-only","1","g1:NE,g2:SW","0.6","5","0","1693528.8","738.9","5744.6","40995.7","1","4","4","6","2","4","4","12","8","0.09090909090909091","1089.4","3000","45","[""down"",""left""]","{""num_key_presses"":10,""num_perfect"":6,""num_errors"":0,""num_randdir"":4,""num_randdir_good_moves"":2,""num_whilered"":0,""num_whileblue"":0,""num_blue"":2,""num_good_moves"":8}","[339.94286220840047,344.9584872831391,0.8,339.94286220840047,344.9584872831391,101.5,349.5428623514516,383.3584878553437,208.9,415.1428633289678,515.358489822297,312.2,643.9428667383535,760.9584934820222,417.4,724.7428679423673,771.3584936369942,526.2,336.74286216071675,636.1584916223572,632.6,129.54285907319613,650.558491836934,744.3,49.54285788110324,648.1584918011712,845.1,43.942857797656735,644.9584917534875,948.3,43.942857797656735,641.7584917058037,1053.8,43.942857797656735,641.7584917058037,1157.4,44.742857809577664,642.5584917177247,1258.7,196.74286007455416,678.5584922541665,1364.8,871.9428701358182,783.3584938158082,1475.1,1066.3428730326038,799.3584940542268,1577.4,1066.3428730326038,799.3584940542268,1682.4,1066.3428730326038,799.3584940542268,1792.6,1066.3428730326038,799.3584940542268,1894.9,1066.3428730326038,799.3584940542268,2007.1,1066.3428730326038,799.3584940542268,2110,1066.3428730326038,799.3584940542268,2214.7,1066.3428730326038,799.3584940542268,2314.9,1066.3428730326038,799.3584940542268,2415.5,1066.3428730326038,799.3584940542268,2521.9,1066.3428730326038,799.3584940542268,2635.5,1066.3428730326038,799.3584940542268,2741.9,1066.3428730326038,799.3584940542268,2843.4,1066.3428730326038,799.3584940542268,2949.6,1066.3428730326038,799.3584940542268,3057.3,1066.3428730326038,799.3584940542268,3157.7,1066.3428730326038,799.3584940542268,3258,1066.3428730326038,799.3584940542268,3359.3,1066.3428730326038,799.3584940542268,3462.1,1066.3428730326038,799.3584940542268,3566.1,1066.3428730326038,799.3584940542268,3669.3,1066.3428730326038,799.3584940542268,3772.7,1066.3428730326038,799.3584940542268,3877.5,1066.3428730326038,799.3584940542268,3978.8,1066.3428730326038,799.3584940542268,4079.2,1066.3428730326038,799.3584940542268,4179.6,1066.3428730326038,799.3584940542268,4289.8,1066.3428730326038,799.3584940542268,4392.6,1066.3428730326038,799.3584940542268,4499.6,1066.3428730326038,799.3584940542268,4606.2,1066.3428730326038,799.3584940542268,4707.6,1066.3428730326038,799.3584940542268,4820,1066.3428730326038,799.3584940542268,4930.2]","[4768.2,4768.2,2088.9,2004.2,675.1,""smooth"",""down"",""down"",""good_move"",7617.6,2848.3,2392.6,4769.3,455.7,""smooth"",""down"",""down"",""good_move"",13891.4,6273.3,2296.3,11142.5,452.6,""oops"",""down"",""left"",""good_move"",17554.1,3662.4,3101.8,13891.7,560.6,""oops"",""left"",""right"",""bad_move"",20147.9,2593.2,2189.3,17554.7,403.9,""smooth"",""down"",""down"",""good_move"",22718.5,2569.8,2180.1,20148.8,389.6,""smooth"",""left"",""left"",""good_move"",26265.6,3546.9,3147.3,22718.7,399.6,""oops"",""left"",""left"",""good_move"",29364.3,3096.8,2714.4,26267.5,382.4,""oops"",""left"",""up"",""bad_move"",32209.3,2843.6,2457.4,29365.7,386.2,""smooth"",""down"",""down"",""good_move"",34884.5,2674.5,2378.1,32210,296.4,""smooth"",""left"",""left"",""good_move""]","",""
"62088","","<div style=""width:500px;"">
  <p>What determined the result of this run?</p>
  </div>","93","html-slider-response","30","1788553","0.0-5.0-1.4","47","1","2025-07-16 08:19:22","1f75c3e559b7213887762d5229550c2b","41.122.151.229","Mozilla/5.0 (Macintosh; Intel Mac OS X 10_15_7) AppleWebKit/537.36 (KHTML, like Gecko) Chrome/128.0.0.0 Safari/537.36","Macintosh","Chrome","128.0.0.0","OS X","10_15_7","https://app.prolific.com/","en-GB,en-US;q=0.9,en;q=0.8","6780db9dafd89add339abb6b","686e379bc37a29ffa5cdc956","68775fee412010210d6c7b67","1","1","6780db9dafd89add339abb6b","1","1","2025-07-16T08:49:13.367Z","","","","","","","","","","","AttribQ","","50","","","","","","","","","","","","","","","","","","","","","","","","","","","","",""
"1491","","<div style=""width:500px;"">
  <p>How much control did you have over the ball?</p>
  </div>","65","html-slider-response","31","1790046","0.0-5.0-2.4","47","1","2025-07-16 08:19:22","1f75c3e559b7213887762d5229550c2b","41.122.151.229","Mozilla/5.0 (Macintosh; Intel Mac OS X 10_15_7) AppleWebKit/537.36 (KHTML, like Gecko) Chrome/128.0.0.0 Safari/537.36","Macintosh","Chrome","128.0.0.0","OS X","10_15_7","https://app.prolific.com/","en-GB,en-US;q=0.9,en;q=0.8","6780db9dafd89add339abb6b","686e379bc37a29ffa5cdc956","68775fee412010210d6c7b67","1","1","6780db9dafd89add339abb6b","1","1","2025-07-16T08:49:14.860Z","","","","","","","","","","","ControlQ","","50","","","","","","","","","","","","","","","","","","","","","","","","","","","","",""
"1833","","<div style=""width:500px;"">
  <p>How would you describe your current emotional state?</p>
  </div>","37","html-slider-response","32","1791881","0.0-5.0-3.4","47","1","2025-07-16 08:19:22","1f75c3e559b7213887762d5229550c2b","41.122.151.229","Mozilla/5.0 (Macintosh; Intel Mac OS X 10_15_7) AppleWebKit/537.36 (KHTML, like Gecko) Chrome/128.0.0.0 Safari/537.36","Macintosh","Chrome","128.0.0.0","OS X","10_15_7","https://app.prolific.com/","en-GB,en-US;q=0.9,en;q=0.8","6780db9dafd89add339abb6b","686e379bc37a29ffa5cdc956","68775fee412010210d6c7b67","1","1","6780db9dafd89add339abb6b","1","1","2025-07-16T08:49:16.695Z","","","","","","","","","","","StressQ","","50","","","","","","","","","","","","","","","","","","","","","","","","","","","","",""
"2751","","<div style=""width:500px;"">
  <p>What best describes how you currently feel?</p>
  </div>","76","html-slider-response","33","1794635","0.0-5.0-4.4","47","1","2025-07-16 08:19:22","1f75c3e559b7213887762d5229550c2b","41.122.151.229","Mozilla/5.0 (Macintosh; Intel Mac OS X 10_15_7) AppleWebKit/537.36 (KHTML, like Gecko) Chrome/128.0.0.0 Safari/537.36","Macintosh","Chrome","128.0.0.0","OS X","10_15_7","https://app.prolific.com/","en-GB,en-US;q=0.9,en;q=0.8","6780db9dafd89add339abb6b","686e379bc37a29ffa5cdc956","68775fee412010210d6c7b67","1","1","6780db9dafd89add339abb6b","1","1","2025-07-16T08:49:19.449Z","","","","","","","","","","","MotivationQ","","50","","","","","","","","","","","","","","","","","","","","","","","","","","","","",""
"","","","","ctl-task-cpt","34","1838658","0.0-5.0-0.5","47","1","2025-07-16 08:19:22","1f75c3e559b7213887762d5229550c2b","41.122.151.229","Mozilla/5.0 (Macintosh; Intel Mac OS X 10_15_7) AppleWebKit/537.36 (KHTML, like Gecko) Chrome/128.0.0.0 Safari/537.36","Macintosh","Chrome","128.0.0.0","OS X","10_15_7","https://app.prolific.com/","en-GB,en-US;q=0.9,en;q=0.8","6780db9dafd89add339abb6b","686e379bc37a29ffa5cdc956","68775fee412010210d6c7b67","1","1","6780db9dafd89add339abb6b","1","1","2025-07-16T08:50:03.472Z","","","","","","","","","","","","","","win-only","2","g1:SE,g2:NW","0.5","6","0","1805756.1","1073.5","6077.8","41015.7","1","4","8","6","2","-8","-8","4","12","0.030303030303030304","1212.1","3000","-1890","[""left"",""up""]","{""num_key_presses"":11,""num_perfect"":6,""num_errors"":0,""num_randdir"":5,""num_randdir_good_moves"":1,""num_whilered"":0,""num_whileblue"":0,""num_blue"":0,""num_good_moves"":7}","[350.34286236337255,337.75848717585075,1.1,350.34286236337255,337.75848717585075,106.1,350.34286236337255,337.75848717585075,243.8,361.54286253026555,351.35848737850654,360,471.94286417535375,438.5584886778878,470.4,447.9428638177259,476.15848923817146,596.6,166.34285962155886,276.95848626986015,718.5,135.94285916856356,146.5584843267487,823.3,131.9428591089589,140.9584842433022,938.6,74.34285825065203,104.15848369493946,1040.3,64.74285810760088,75.35848326578602,1179.7,64.74285810760088,75.35848326578602,1299,145.5428593116147,126.55848402872547,1483.2,687.1428673820836,328.1584870327996,1599.5,937.5428711133344,385.7584878911065,1718.7,937.5428711133344,385.7584878911065,1840.7,937.5428711133344,385.7584878911065,1944.1,937.5428711133344,385.7584878911065,2052.5,937.5428711133344,385.7584878911065,2156,937.5428711133344,385.7584878911065,2267.3,937.5428711133344,385.7584878911065,2375,937.5428711133344,385.7584878911065,2486.2,937.5428711133344,385.7584878911065,2591.8,937.5428711133344,385.7584878911065,2701.9,937.5428711133344,385.7584878911065,2847.3,937.5428711133344,385.7584878911065,2970.1,937.5428711133344,385.7584878911065,3078.3,937.5428711133344,385.7584878911065,3187.3,937.5428711133344,385.7584878911065,3303.8,937.5428711133344,385.7584878911065,3406.9,937.5428711133344,385.7584878911065,3509.4,937.5428711133344,385.7584878911065,3622.8,937.5428711133344,385.7584878911065,3729,937.5428711133344,385.7584878911065,3837.6,937.5428711133344,385.7584878911065,3938.4,937.5428711133344,385.7584878911065,4056.1,937.5428711133344,385.7584878911065,4203.7,937.5428711133344,385.7584878911065,4309.5,937.5428711133344,385.7584878911065,4413.8,937.5428711133344,385.7584878911065,4515.8,937.5428711133344,385.7584878911065,4617.2,937.5428711133344,385.7584878911065,4727.9,937.5428711133344,385.7584878911065,4832.1,937.5428711133344,385.7584878911065,4981]","[1554.8,1554.8,1000,0,554.8,""smooth"",""up"",""up"",""good_move"",4419,2863.4,2411.7,1555.6,451.7,""smooth"",""up"",""up"",""good_move"",7872.6,3452.8,3009.5,4419.8,443.3,""smooth"",""up"",""up"",""good_move"",10233.7,2360.6,1918.6,7873.1,442,""smooth"",""left"",""left"",""good_move"",13093.6,2858.9,2412,10234.7,446.9,""oops"",""left"",""right"",""bad_move"",16359.4,3265.5,2797.9,13093.9,467.6,""smooth"",""left"",""left"",""good_move"",19972.1,3612,3200.3,16360.1,411.7,""oops"",""left"",""right"",""bad_move"",23248.8,3275.9,2794.6,19972.9,481.3,""oops"",""left"",""right"",""bad_move"",26002.8,2753.2,2311,23249.6,442.2,""oops"",""down"",""down"",""bad_move"",28890.5,2887.1,2394.3,26003.4,492.8,""oops"",""left"",""up"",""good_move"",31930.2,3039,2536.9,28891.2,502.1,""smooth"",""left"",""left"",""good_move""]","",""
"24070","","<div style=""width:500px;"">
  <p>What determined the result of this run?</p>
  </div>","20","html-slider-response","35","1862730","0.0-5.0-1.5","47","1","2025-07-16 08:19:22","1f75c3e559b7213887762d5229550c2b","41.122.151.229","Mozilla/5.0 (Macintosh; Intel Mac OS X 10_15_7) AppleWebKit/537.36 (KHTML, like Gecko) Chrome/128.0.0.0 Safari/537.36","Macintosh","Chrome","128.0.0.0","OS X","10_15_7","https://app.prolific.com/","en-GB,en-US;q=0.9,en;q=0.8","6780db9dafd89add339abb6b","686e379bc37a29ffa5cdc956","68775fee412010210d6c7b67","1","1","6780db9dafd89add339abb6b","1","1","2025-07-16T08:50:27.544Z","","","","","","","","","","","AttribQ","","50","","","","","","","","","","","","","","","","","","","","","","","","","","","","",""
"3569","","<div style=""width:500px;"">
  <p>How much control did you have over the ball?</p>
  </div>","18","html-slider-response","36","1866302","0.0-5.0-2.5","47","1","2025-07-16 08:19:22","1f75c3e559b7213887762d5229550c2b","41.122.151.229","Mozilla/5.0 (Macintosh; Intel Mac OS X 10_15_7) AppleWebKit/537.36 (KHTML, like Gecko) Chrome/128.0.0.0 Safari/537.36","Macintosh","Chrome","128.0.0.0","OS X","10_15_7","https://app.prolific.com/","en-GB,en-US;q=0.9,en;q=0.8","6780db9dafd89add339abb6b","686e379bc37a29ffa5cdc956","68775fee412010210d6c7b67","1","1","6780db9dafd89add339abb6b","1","1","2025-07-16T08:50:31.118Z","","","","","","","","","","","ControlQ","","50","","","","","","","","","","","","","","","","","","","","","","","","","","","","",""
"4883","","<div style=""width:500px;"">
  <p>How would you describe your current emotional state?</p>
  </div>","32","html-slider-response","37","1871197","0.0-5.0-3.5","47","1","2025-07-16 08:19:22","1f75c3e559b7213887762d5229550c2b","41.122.151.229","Mozilla/5.0 (Macintosh; Intel Mac OS X 10_15_7) AppleWebKit/537.36 (KHTML, like Gecko) Chrome/128.0.0.0 Safari/537.36","Macintosh","Chrome","128.0.0.0","OS X","10_15_7","https://app.prolific.com/","en-GB,en-US;q=0.9,en;q=0.8","6780db9dafd89add339abb6b","686e379bc37a29ffa5cdc956","68775fee412010210d6c7b67","1","1","6780db9dafd89add339abb6b","1","1","2025-07-16T08:50:36.011Z","","","","","","","","","","","StressQ","","50","","","","","","","","","","","","","","","","","","","","","","","","","","","","",""
"14250","","<div style=""width:500px;"">
  <p>What best describes how you currently feel?</p>
  </div>","55","html-slider-response","38","1885449","0.0-5.0-4.5","47","1","2025-07-16 08:19:22","1f75c3e559b7213887762d5229550c2b","41.122.151.229","Mozilla/5.0 (Macintosh; Intel Mac OS X 10_15_7) AppleWebKit/537.36 (KHTML, like Gecko) Chrome/128.0.0.0 Safari/537.36","Macintosh","Chrome","128.0.0.0","OS X","10_15_7","https://app.prolific.com/","en-GB,en-US;q=0.9,en;q=0.8","6780db9dafd89add339abb6b","686e379bc37a29ffa5cdc956","68775fee412010210d6c7b67","1","1","6780db9dafd89add339abb6b","1","1","2025-07-16T08:50:50.263Z","","","","","","","","","","","MotivationQ","","50","","","","","","","","","","","","","","","","","","","","","","","","","","","","",""
"","","","","ctl-task-cpt","39","1951896","0.0-5.0-0.6","47","1","2025-07-16 08:19:22","1f75c3e559b7213887762d5229550c2b","41.122.151.229","Mozilla/5.0 (Macintosh; Intel Mac OS X 10_15_7) AppleWebKit/537.36 (KHTML, like Gecko) Chrome/128.0.0.0 Safari/537.36","Macintosh","Chrome","128.0.0.0","OS X","10_15_7","https://app.prolific.com/","en-GB,en-US;q=0.9,en;q=0.8","6780db9dafd89add339abb6b","686e379bc37a29ffa5cdc956","68775fee412010210d6c7b67","1","1","6780db9dafd89add339abb6b","1","1","2025-07-16T08:51:56.710Z","","","","","","","","","","","","","","win-only","3","g1:SW,g2:NE","0.4","7","0","1896566.2","1345.2","6352.5","63413.1","1","4","8","6","2","-8","-8","0","4","0","1346.7","3000","-1475","[""up"",""right""]","{""num_key_presses"":13,""num_perfect"":6,""num_errors"":0,""num_randdir"":7,""num_randdir_good_moves"":2,""num_whilered"":0,""num_whileblue"":0,""num_blue"":4,""num_good_moves"":7}","[347.14286231568883,343.35848725929725,0.5,347.14286231568883,343.35848725929725,106.4,347.14286231568883,343.35848725929725,212.2,346.3428623037679,343.35848725929725,317.5,346.3428623037679,341.7584872354554,432.3,307.9428617315633,355.3584874381112,541,211.9428603010518,432.9584885944413,651.5,209.54286026528902,466.5584890951203,753.6,411.14286326936315,344.9584872831391,858.9,514.342864807163,190.5584849823998,969.9,611.9428662615163,112.15848381414875,1080.5,651.9428668575628,67.35848314657673,1186.3,655.1428669052465,54.558482955841875,1293.9,655.1428669052465,54.558482955841875,1394,655.1428669052465,54.558482955841875,1501.1,655.1428669052465,54.558482955841875,1605.5,655.1428669052465,54.558482955841875,1707.6,655.1428669052465,60.958483051209306,1816.6,655.1428669052465,66.5584831346558,1917,655.1428669052465,66.5584831346558,2022.5,655.1428669052465,66.5584831346558,2125.1,655.1428669052465,66.5584831346558,2227.9,655.1428669052465,66.5584831346558,2328,655.1428669052465,66.5584831346558,2430,655.1428669052465,66.5584831346558,2530.3,655.1428669052465,66.5584831346558,2634,655.1428669052465,66.5584831346558,2735.2,655.1428669052465,66.5584831346558,2849,655.1428669052465,66.5584831346558,2949.5,655.1428669052465,66.5584831346558,3049.5,655.1428669052465,66.5584831346558,3161.2,655.1428669052465,66.5584831346558,3265.2,655.1428669052465,66.5584831346558,3368.4,655.1428669052465,66.5584831346558,3472,655.1428669052465,66.5584831346558,3580.1,655.1428669052465,66.5584831346558,3680.3,655.1428669052465,66.5584831346558,3781.6,655.1428669052465,66.5584831346558,3888.9,655.1428669052465,66.5584831346558,3997.2,655.1428669052465,66.5584831346558,4100.7,655.1428669052465,66.5584831346558,4203,655.1428669052465,66.5584831346558,4310.8,655.1428669052465,66.5584831346558,4414.6,655.1428669052465,66.5584831346558,4522.1,655.1428669052465,66.5584831346558,4636,655.1428669052465,66.5584831346558,4737.4,655.1428669052465,66.5584831346558,4840.4,655.1428669052465,66.5584831346558,4943.9]","[1743.8,1743.8,1000,0,743.8,""oops"",""up"",""left"",""bad_move"",5695.8,3951.3,3428.4,1744.5,522.9,""oops"",""right"",""down"",""bad_move"",9263.1,3566.6,2903,5696.5,663.6,""smooth"",""down"",""down"",""bad_move"",12405.2,3141.8,2452.3,9263.4,689.5,""oops"",""up"",""right"",""good_move"",15965.6,3559.7,3050.5,12405.9,509.2,""oops"",""up"",""left"",""bad_move"",19259.6,3293.5,2662.7,15966.2,630.7,""smooth"",""up"",""up"",""good_move"",25764.2,6492.5,2023.6,23187.9,552.7,""smooth"",""up"",""up"",""good_move"",29527.6,3762.6,3317.1,25765.1,445.4,""oops"",""up"",""right"",""good_move"",38641.8,9113.1,1670.8,36394,577,""smooth"",""up"",""up"",""good_move"",42243.8,3601.8,2982.9,38642,618.9,""oops"",""up"",""down"",""bad_move"",45453.2,3207.1,2492.3,42246.1,714.8,""smooth"",""up"",""up"",""good_move"",48991.9,3537.9,2057.2,45454,1480.7,""oops"",""up"",""left"",""bad_move"",54540.6,5546.9,1964.1,52066.7,509.8,""smooth"",""up"",""up"",""good_move""]","",""
"902086","","<div style=""width:500px;"">
  <p>What determined the result of this run?</p>
  </div>","79","html-slider-response","40","2854010","0.0-5.0-1.6","47","1","2025-07-16 08:19:22","1f75c3e559b7213887762d5229550c2b","41.122.151.229","Mozilla/5.0 (Macintosh; Intel Mac OS X 10_15_7) AppleWebKit/537.36 (KHTML, like Gecko) Chrome/128.0.0.0 Safari/537.36","Macintosh","Chrome","128.0.0.0","OS X","10_15_7","https://app.prolific.com/","en-GB,en-US;q=0.9,en;q=0.8","6780db9dafd89add339abb6b","686e379bc37a29ffa5cdc956","68775fee412010210d6c7b67","1","1","6780db9dafd89add339abb6b","1","1","2025-07-16T09:06:58.824Z","","","","","","","","","","","AttribQ","","50","","","","","","","","","","","","","","","","","","","","","","","","","","","","",""
"6708","","<div style=""width:500px;"">
  <p>How much control did you have over the ball?</p>
  </div>","31","html-slider-response","41","2860722","0.0-5.0-2.6","47","1","2025-07-16 08:19:22","1f75c3e559b7213887762d5229550c2b","41.122.151.229","Mozilla/5.0 (Macintosh; Intel Mac OS X 10_15_7) AppleWebKit/537.36 (KHTML, like Gecko) Chrome/128.0.0.0 Safari/537.36","Macintosh","Chrome","128.0.0.0","OS X","10_15_7","https://app.prolific.com/","en-GB,en-US;q=0.9,en;q=0.8","6780db9dafd89add339abb6b","686e379bc37a29ffa5cdc956","68775fee412010210d6c7b67","1","1","6780db9dafd89add339abb6b","1","1","2025-07-16T09:07:05.536Z","","","","","","","","","","","ControlQ","","50","","","","","","","","","","","","","","","","","","","","","","","","","","","","",""
"2442","","<div style=""width:500px;"">
  <p>How would you describe your current emotional state?</p>
  </div>","71","html-slider-response","42","2863166","0.0-5.0-3.6","47","1","2025-07-16 08:19:22","1f75c3e559b7213887762d5229550c2b","41.122.151.229","Mozilla/5.0 (Macintosh; Intel Mac OS X 10_15_7) AppleWebKit/537.36 (KHTML, like Gecko) Chrome/128.0.0.0 Safari/537.36","Macintosh","Chrome","128.0.0.0","OS X","10_15_7","https://app.prolific.com/","en-GB,en-US;q=0.9,en;q=0.8","6780db9dafd89add339abb6b","686e379bc37a29ffa5cdc956","68775fee412010210d6c7b67","1","1","6780db9dafd89add339abb6b","1","1","2025-07-16T09:07:07.981Z","","","","","","","","","","","StressQ","","50","","","","","","","","","","","","","","","","","","","","","","","","","","","","",""
"2986","","<div style=""width:500px;"">
  <p>What best describes how you currently feel?</p>
  </div>","33","html-slider-response","43","2866153","0.0-5.0-4.6","47","1","2025-07-16 08:19:22","1f75c3e559b7213887762d5229550c2b","41.122.151.229","Mozilla/5.0 (Macintosh; Intel Mac OS X 10_15_7) AppleWebKit/537.36 (KHTML, like Gecko) Chrome/128.0.0.0 Safari/537.36","Macintosh","Chrome","128.0.0.0","OS X","10_15_7","https://app.prolific.com/","en-GB,en-US;q=0.9,en;q=0.8","6780db9dafd89add339abb6b","686e379bc37a29ffa5cdc956","68775fee412010210d6c7b67","1","1","6780db9dafd89add339abb6b","1","1","2025-07-16T09:07:10.968Z","","","","","","","","","","","MotivationQ","","50","","","","","","","","","","","","","","","","","","","","","","","","","","","","",""
"","","","","ctl-task-cpt","44","2922239","0.0-5.0-0.7","47","1","2025-07-16 08:19:22","1f75c3e559b7213887762d5229550c2b","41.122.151.229","Mozilla/5.0 (Macintosh; Intel Mac OS X 10_15_7) AppleWebKit/537.36 (KHTML, like Gecko) Chrome/128.0.0.0 Safari/537.36","Macintosh","Chrome","128.0.0.0","OS X","10_15_7","https://app.prolific.com/","en-GB,en-US;q=0.9,en;q=0.8","6780db9dafd89add339abb6b","686e379bc37a29ffa5cdc956","68775fee412010210d6c7b67","1","1","6780db9dafd89add339abb6b","1","1","2025-07-16T09:08:07.053Z","","","","","","","","","","","","","","win-only","2","g1:SE,g2:NW","0.3","8","0","2877230","4108.3","9117.9","53069.2","1","4","4","6","2","-4","-4","0","0","0","1293.4","3000","-1170","[""left"",""up""]","{""num_key_presses"":13,""num_perfect"":5,""num_errors"":0,""num_randdir"":8,""num_randdir_good_moves"":3,""num_whilered"":0,""num_whileblue"":0,""num_blue"":1,""num_good_moves"":8}","[345.542862291847,350.5584873665856,0.4,345.542862291847,350.5584873665856,103.5,345.542862291847,350.5584873665856,209.3,345.542862291847,350.5584873665856,311.6,345.542862291847,350.5584873665856,413.2,260.7428610282285,268.1584861387299,519.1,169.54285966924257,202.55848516121372,625.4,147.14285933545656,133.75848413601383,726.2,114.34285884669848,86.55848343267903,828.7,51.942857916866025,34.55848265781865,935,48.74285786918231,32.158482622055864,1047.5,45.54285782149859,35.35848266973958,1147.9,47.94285785726138,43.35848278894887,1259.4,47.94285785726138,43.35848278894887,1362.2,47.94285785726138,43.35848278894887,1463.9,211.14286028913088,136.95848418369755,1571.7,885.542870338474,394.5584880222367,1685.1,1066.3428730326038,448.15848882093894,1798.6,1066.3428730326038,444.9584887732552,1907.8,1066.3428730326038,444.9584887732552,2008.1,1066.3428730326038,444.9584887732552,2108.5,1066.3428730326038,444.9584887732552,2216.7,1066.3428730326038,444.9584887732552,2318.5,1066.3428730326038,444.9584887732552,2418.9,1066.3428730326038,444.9584887732552,2518.9,1066.3428730326038,444.9584887732552,2623.9,1066.3428730326038,444.9584887732552,2736,1066.3428730326038,444.9584887732552,2851.6,1066.3428730326038,444.9584887732552,2954,1066.3428730326038,444.9584887732552,3062.1,1066.3428730326038,444.9584887732552,3176.9,1066.3428730326038,444.9584887732552,3278.7,1066.3428730326038,444.9584887732552,3385.5,1066.3428730326038,444.9584887732552,3494.4,1066.3428730326038,444.9584887732552,3605.9,1066.3428730326038,444.9584887732552,3710.1,1066.3428730326038,444.9584887732552,3817,1066.3428730326038,444.9584887732552,3917.3,1066.3428730326038,444.9584887732552,4026.4,1066.3428730326038,444.9584887732552,4131.5,1066.3428730326038,444.9584887732552,4240.1,1066.3428730326038,444.9584887732552,4346,1066.3428730326038,444.9584887732552,4456.8,1066.3428730326038,444.9584887732552,4561.5,1066.3428730326038,444.9584887732552,4663.5,1066.3428730326038,444.9584887732552,4763.8,1066.3428730326038,444.9584887732552,4872,1066.3428730326038,444.9584887732552,4978.8]","[1565,1565.1,1000,0,565.1,""smooth"",""up"",""up"",""good_move"",7362.6,5796.7,2307.7,4534.8,520.1,""oops"",""up"",""down"",""bad_move"",11074.9,3711.9,3211.6,7363.1,500.3,""oops"",""left"",""up"",""good_move"",14406,3329.8,2920.5,11076.2,409.3,""oops"",""left"",""right"",""bad_move"",17189.7,2781.4,2347.7,14408.3,433.7,""oops"",""left"",""right"",""bad_move"",19448.8,2257.9,1768.1,17191,489.7,""oops"",""left"",""down"",""bad_move"",22709.3,3260,2783.6,19449.3,476.4,""oops"",""left"",""down"",""bad_move"",26495.6,3785.6,3186.1,22710,599.5,""smooth"",""left"",""left"",""good_move"",29309.7,2813.2,2336.1,26496.7,477,""smooth"",""left"",""left"",""good_move"",32068.8,2743.7,2271.5,29325.1,472.2,""oops"",""up"",""up"",""good_move"",35488.3,3417.3,2998,32071,419.3,""smooth"",""left"",""left"",""good_move"",38946.1,3456.9,2995,35489.2,461.9,""oops"",""left"",""left"",""good_move"",41397.9,2451.3,1973.7,38946.7,477.5,""smooth"",""up"",""up"",""good_move""]","",""
"2601","","<div style=""width:500px;"">
  <p>What determined the result of this run?</p>
  </div>","3","html-slider-response","45","2924841","0.0-5.0-1.7","47","1","2025-07-16 08:19:22","1f75c3e559b7213887762d5229550c2b","41.122.151.229","Mozilla/5.0 (Macintosh; Intel Mac OS X 10_15_7) AppleWebKit/537.36 (KHTML, like Gecko) Chrome/128.0.0.0 Safari/537.36","Macintosh","Chrome","128.0.0.0","OS X","10_15_7","https://app.prolific.com/","en-GB,en-US;q=0.9,en;q=0.8","6780db9dafd89add339abb6b","686e379bc37a29ffa5cdc956","68775fee412010210d6c7b67","1","1","6780db9dafd89add339abb6b","1","1","2025-07-16T09:08:09.655Z","","","","","","","","","","","AttribQ","","50","","","","","","","","","","","","","","","","","","","","","","","","","","","","",""
"1563","","<div style=""width:500px;"">
  <p>How much control did you have over the ball?</p>
  </div>","16","html-slider-response","46","2926406","0.0-5.0-2.7","47","1","2025-07-16 08:19:22","1f75c3e559b7213887762d5229550c2b","41.122.151.229","Mozilla/5.0 (Macintosh; Intel Mac OS X 10_15_7) AppleWebKit/537.36 (KHTML, like Gecko) Chrome/128.0.0.0 Safari/537.36","Macintosh","Chrome","128.0.0.0","OS X","10_15_7","https://app.prolific.com/","en-GB,en-US;q=0.9,en;q=0.8","6780db9dafd89add339abb6b","686e379bc37a29ffa5cdc956","68775fee412010210d6c7b67","1","1","6780db9dafd89add339abb6b","1","1","2025-07-16T09:08:11.220Z","","","","","","","","","","","ControlQ","","50","","","","","","","","","","","","","","","","","","","","","","","","","","","","",""
"4277","","<div style=""width:500px;"">
  <p>How would you describe your current emotional state?</p>
  </div>","84","html-slider-response","47","2930687","0.0-5.0-3.7","47","1","2025-07-16 08:19:22","1f75c3e559b7213887762d5229550c2b","41.122.151.229","Mozilla/5.0 (Macintosh; Intel Mac OS X 10_15_7) AppleWebKit/537.36 (KHTML, like Gecko) Chrome/128.0.0.0 Safari/537.36","Macintosh","Chrome","128.0.0.0","OS X","10_15_7","https://app.prolific.com/","en-GB,en-US;q=0.9,en;q=0.8","6780db9dafd89add339abb6b","686e379bc37a29ffa5cdc956","68775fee412010210d6c7b67","1","1","6780db9dafd89add339abb6b","1","1","2025-07-16T09:08:15.501Z","","","","","","","","","","","StressQ","","50","","","","","","","","","","","","","","","","","","","","","","","","","","","","",""
"1858","","<div style=""width:500px;"">
  <p>What best describes how you currently feel?</p>
  </div>","21","html-slider-response","48","2932547","0.0-5.0-4.7","47","1","2025-07-16 08:19:22","1f75c3e559b7213887762d5229550c2b","41.122.151.229","Mozilla/5.0 (Macintosh; Intel Mac OS X 10_15_7) AppleWebKit/537.36 (KHTML, like Gecko) Chrome/128.0.0.0 Safari/537.36","Macintosh","Chrome","128.0.0.0","OS X","10_15_7","https://app.prolific.com/","en-GB,en-US;q=0.9,en;q=0.8","6780db9dafd89add339abb6b","686e379bc37a29ffa5cdc956","68775fee412010210d6c7b67","1","1","6780db9dafd89add339abb6b","1","1","2025-07-16T09:08:17.362Z","","","","","","","","","","","MotivationQ","","50","","","","","","","","","","","","","","","","","","","","","","","","","","","","",""
"","","","","ctl-task-cpt","49","2984535","0.0-5.0-0.8","47","1","2025-07-16 08:19:22","1f75c3e559b7213887762d5229550c2b","41.122.151.229","Mozilla/5.0 (Macintosh; Intel Mac OS X 10_15_7) AppleWebKit/537.36 (KHTML, like Gecko) Chrome/128.0.0.0 Safari/537.36","Macintosh","Chrome","128.0.0.0","OS X","10_15_7","https://app.prolific.com/","en-GB,en-US;q=0.9,en;q=0.8","6780db9dafd89add339abb6b","686e379bc37a29ffa5cdc956","68775fee412010210d6c7b67","1","1","6780db9dafd89add339abb6b","1","1","2025-07-16T09:09:09.349Z","","","","","","","","","","","","","","win-only","0","g1:NW,g2:SE","0.2","9","0","2943624.8","1848.4","6864.8","48969.2","1","4","4","6","2","4","4","4","0","0.030303030303030304","945.8","3000","715","[""down"",""right""]","{""num_key_presses"":12,""num_perfect"":3,""num_errors"":0,""num_randdir"":9,""num_randdir_good_moves"":6,""num_whilered"":0,""num_whileblue"":0,""num_blue"":2,""num_good_moves"":9}","[347.94286232760976,345.75848729506004,4.8,347.94286232760976,345.75848729506004,118.8,347.94286232760976,345.75848729506004,252.8,340.7428622203214,347.3584873189019,366.9,275.94286125472615,380.15848780766,467.3,348.7428623395307,516.9584898461388,580.6,554.3428654032094,608.9584912170457,689.1,597.5428660469396,617.7584913481759,796.3,618.3428663568837,629.7584915269898,898.3,618.3428663568837,629.7584915269898,998.9,618.3428663568837,629.7584915269898,1109.7,723.9428679304464,625.7584914673852,1225.4,803.1428691106183,621.7584914077805,1329.3,803.1428691106183,621.7584914077805,1438.7,803.1428691106183,621.7584914077805,1548.7,803.1428691106183,621.7584914077805,1658.7,803.1428691106183,621.7584914077805,1788,803.1428691106183,621.7584914077805,1889.8,803.1428691106183,621.7584914077805,2043.1,803.1428691106183,621.7584914077805,2153,803.1428691106183,621.7584914077805,2257.2,803.1428691106183,621.7584914077805,2359.3,803.1428691106183,621.7584914077805,2463.4,803.1428691106183,621.7584914077805,2578,803.1428691106183,621.7584914077805,2691.4,803.1428691106183,621.7584914077805,2797.2,803.1428691106183,621.7584914077805,2898.6,803.1428691106183,621.7584914077805,3005.5,803.1428691106183,621.7584914077805,3121.3,803.1428691106183,621.7584914077805,3221.4,803.1428691106183,621.7584914077805,3327.3,803.1428691106183,621.7584914077805,3438.7,803.1428691106183,621.7584914077805,3539.8,803.1428691106183,621.7584914077805,3645.2,803.1428691106183,621.7584914077805,3757.5,803.1428691106183,621.7584914077805,3862.2,803.1428691106183,621.7584914077805,3969.1,803.1428691106183,621.7584914077805,4082.5,803.1428691106183,621.7584914077805,4226.9,803.1428691106183,621.7584914077805,4345.9,803.1428691106183,621.7584914077805,4456.1,803.1428691106183,621.7584914077805,4586,803.1428691106183,621.7584914077805,4699.9,803.1428691106183,621.7584914077805,4803.7,803.1428691106183,621.7584914077805,4907.4]","[1809.3,1809.3,1000,0,809.3,""smooth"",""right"",""right"",""good_move"",4610.3,2800.6,2298.2,1809.7,502.4,""oops"",""down"",""right"",""good_move"",10662.6,6052,2523.8,7730.3,408.6,""oops"",""down"",""down"",""good_move"",13503.3,2840.2,2459.5,10663.1,380.7,""smooth"",""right"",""right"",""good_move"",15849.2,2345.1,1948.6,13504.1,396.5,""oops"",""down"",""up"",""bad_move"",22702.1,6852.4,2710.8,19560.9,430.4,""oops"",""left"",""left"",""bad_move"",26207.6,3503.7,2981.5,22704,522.2,""oops"",""down"",""down"",""good_move"",29597.2,3389,2928.2,26208.2,460.8,""oops"",""down"",""down"",""good_move"",32701.6,3103.4,2428.1,29598.2,675.3,""oops"",""down"",""left"",""bad_move"",35691.6,2976.3,2208.5,32715.3,767.8,""oops"",""right"",""right"",""good_move"",38517.5,2810.4,2153.5,35707.2,656.8,""smooth"",""right"",""right"",""good_move"",41881.3,3343,2810.1,38538.3,532.9,""oops"",""down"",""down"",""good_move""]","",""
"819703","","<div style=""width:500px;"">
  <p>What determined the result of this run?</p>
  </div>","88","html-slider-response","50","3804273","0.0-5.0-1.8","47","1","2025-07-16 08:19:22","1f75c3e559b7213887762d5229550c2b","41.122.151.229","Mozilla/5.0 (Macintosh; Intel Mac OS X 10_15_7) AppleWebKit/537.36 (KHTML, like Gecko) Chrome/128.0.0.0 Safari/537.36","Macintosh","Chrome","128.0.0.0","OS X","10_15_7","https://app.prolific.com/","en-GB,en-US;q=0.9,en;q=0.8","6780db9dafd89add339abb6b","686e379bc37a29ffa5cdc956","68775fee412010210d6c7b67","1","1","6780db9dafd89add339abb6b","1","1","2025-07-16T09:22:49.087Z","","","","","","","","","","","AttribQ","","50","","","","","","","","","","","","","","","","","","","","","","","","","","","","",""
"1189","","<div style=""width:500px;"">
  <p>How much control did you have over the ball?</p>
  </div>","38","html-slider-response","51","3805464","0.0-5.0-2.8","47","1","2025-07-16 08:19:22","1f75c3e559b7213887762d5229550c2b","41.122.151.229","Mozilla/5.0 (Macintosh; Intel Mac OS X 10_15_7) AppleWebKit/537.36 (KHTML, like Gecko) Chrome/128.0.0.0 Safari/537.36","Macintosh","Chrome","128.0.0.0","OS X","10_15_7","https://app.prolific.com/","en-GB,en-US;q=0.9,en;q=0.8","6780db9dafd89add339abb6b","686e379bc37a29ffa5cdc956","68775fee412010210d6c7b67","1","1","6780db9dafd89add339abb6b","1","1","2025-07-16T09:22:50.278Z","","","","","","","","","","","ControlQ","","50","","","","","","","","","","","","","","","","","","","","","","","","","","","","",""
"1473","","<div style=""width:500px;"">
  <p>How would you describe your current emotional state?</p>
  </div>","66","html-slider-response","52","3806939","0.0-5.0-3.8","47","1","2025-07-16 08:19:22","1f75c3e559b7213887762d5229550c2b","41.122.151.229","Mozilla/5.0 (Macintosh; Intel Mac OS X 10_15_7) AppleWebKit/537.36 (KHTML, like Gecko) Chrome/128.0.0.0 Safari/537.36","Macintosh","Chrome","128.0.0.0","OS X","10_15_7","https://app.prolific.com/","en-GB,en-US;q=0.9,en;q=0.8","6780db9dafd89add339abb6b","686e379bc37a29ffa5cdc956","68775fee412010210d6c7b67","1","1","6780db9dafd89add339abb6b","1","1","2025-07-16T09:22:51.753Z","","","","","","","","","","","StressQ","","50","","","","","","","","","","","","","","","","","","","","","","","","","","","","",""
"2291","","<div style=""width:500px;"">
  <p>What best describes how you currently feel?</p>
  </div>","39","html-slider-response","53","3809231","0.0-5.0-4.8","47","1","2025-07-16 08:19:22","1f75c3e559b7213887762d5229550c2b","41.122.151.229","Mozilla/5.0 (Macintosh; Intel Mac OS X 10_15_7) AppleWebKit/537.36 (KHTML, like Gecko) Chrome/128.0.0.0 Safari/537.36","Macintosh","Chrome","128.0.0.0","OS X","10_15_7","https://app.prolific.com/","en-GB,en-US;q=0.9,en;q=0.8","6780db9dafd89add339abb6b","686e379bc37a29ffa5cdc956","68775fee412010210d6c7b67","1","1","6780db9dafd89add339abb6b","1","1","2025-07-16T09:22:54.045Z","","","","","","","","","","","MotivationQ","","50","","","","","","","","","","","","","","","","","","","","","","","","","","","","",""
"","","","","ctl-task-cpt","54","3845051","0.0-5.0-0.9","47","1","2025-07-16 08:19:22","1f75c3e559b7213887762d5229550c2b","41.122.151.229","Mozilla/5.0 (Macintosh; Intel Mac OS X 10_15_7) AppleWebKit/537.36 (KHTML, like Gecko) Chrome/128.0.0.0 Safari/537.36","Macintosh","Chrome","128.0.0.0","OS X","10_15_7","https://app.prolific.com/","en-GB,en-US;q=0.9,en;q=0.8","6780db9dafd89add339abb6b","686e379bc37a29ffa5cdc956","68775fee412010210d6c7b67","1","1","6780db9dafd89add339abb6b","1","1","2025-07-16T09:23:29.866Z","","","","","","","","","","","","","","win-only","0","g1:NW,g2:SE","0.4","10","0","3820271.8","2082.9","7086.2","32788.5","1","4","8","6","2","8","8","12","4","0.09090909090909091","950.1","3000","1610","[""down"",""right""]","{""num_key_presses"":8,""num_perfect"":3,""num_errors"":0,""num_randdir"":5,""num_randdir_good_moves"":4,""num_whilered"":0,""num_whileblue"":0,""num_blue"":1,""num_good_moves"":7}","[346.3428623037679,350.5584873665856,0.7,346.3428623037679,350.5584873665856,114.7,346.3428623037679,348.95848734274375,216.1,339.94286220840047,349.7584873546647,331.7,311.142861779247,359.3584874977158,432.5,339.14286219647954,410.5584882606553,545.9,554.3428654032094,569.7584906329201,647,599.1428660707815,636.9584916342782,749.5,615.1428663092,648.9584918130921,860,615.1428663092,648.9584918130921,962,616.7428663330419,649.758491825013,1076.8,787.9428688841207,684.9584923495339,1187.5,910.3428707080228,665.7584920634316,1293.5,911.1428707199437,664.9584920515107,1412.1,911.1428707199437,664.9584920515107,1526.2,911.1428707199437,664.9584920515107,1632.1,911.1428707199437,664.9584920515107,1738,911.1428707199437,664.9584920515107,1840.1,911.1428707199437,664.9584920515107,1940.4,911.1428707199437,664.9584920515107,2050.6,911.1428707199437,664.9584920515107,2159.6,911.1428707199437,664.9584920515107,2261.9,911.1428707199437,664.9584920515107,2372.1,911.1428707199437,664.9584920515107,2487.8,911.1428707199437,664.9584920515107,2595.1,911.1428707199437,664.9584920515107,2700.9,911.1428707199437,664.9584920515107,2808.5,911.1428707199437,664.9584920515107,2924.4,911.1428707199437,664.9584920515107,3031.1,911.1428707199437,664.9584920515107,3132.3,911.1428707199437,664.9584920515107,3233.4,911.1428707199437,664.9584920515107,3336.8,911.1428707199437,664.9584920515107,3444.1,911.1428707199437,664.9584920515107,3559.1,911.1428707199437,664.9584920515107,3671.1,911.1428707199437,664.9584920515107,3773.3,911.1428707199437,664.9584920515107,3875.4,911.1428707199437,664.9584920515107,3978.8,911.1428707199437,664.9584920515107,4080.2,911.1428707199437,664.9584920515107,4186.4,911.1428707199437,664.9584920515107,4288.4,911.1428707199437,664.9584920515107,4408.4,911.1428707199437,664.9584920515107,4511.5,911.1428707199437,664.9584920515107,4625.5,911.1428707199437,664.9584920515107,4731.5,911.1428707199437,664.9584920515107,4833.1,911.1428707199437,664.9584920515107,4933.3]","[1491.8,1491.8,1000,0,491.8,""oops"",""right"",""up"",""bad_move"",5205.4,3713.1,3285.2,1492.3,427.9,""smooth"",""right"",""right"",""good_move"",7760.5,2554.5,2104.7,5206,449.8,""oops"",""right"",""right"",""good_move"",10086.3,2324.4,1555,7761.9,769.4,""smooth"",""right"",""right"",""good_move"",12946.1,2858.8,2469.4,10087.3,389.4,""oops"",""down"",""down"",""good_move"",19091.3,6144.2,3142.1,15525,424.5,""oops"",""down"",""down"",""good_move"",22356,3262.7,2829.3,19093.3,433.4,""smooth"",""down"",""down"",""good_move"",25476.3,3117.8,2682.5,22358.5,435.3,""oops"",""down"",""down"",""good_move""]","",""
"248451","","<div style=""width:500px;"">
  <p>What determined the result of this run?</p>
  </div>","81","html-slider-response","55","4093513","0.0-5.0-1.9","47","1","2025-07-16 08:19:22","1f75c3e559b7213887762d5229550c2b","41.122.151.229","Mozilla/5.0 (Macintosh; Intel Mac OS X 10_15_7) AppleWebKit/537.36 (KHTML, like Gecko) Chrome/128.0.0.0 Safari/537.36","Macintosh","Chrome","128.0.0.0","OS X","10_15_7","https://app.prolific.com/","en-GB,en-US;q=0.9,en;q=0.8","6780db9dafd89add339abb6b","686e379bc37a29ffa5cdc956","68775fee412010210d6c7b67","1","1","6780db9dafd89add339abb6b","1","1","2025-07-16T09:27:38.327Z","","","","","","","","","","","AttribQ","","50","","","","","","","","","","","","","","","","","","","","","","","","","","","","",""
"1858","","<div style=""width:500px;"">
  <p>How much control did you have over the ball?</p>
  </div>","35","html-slider-response","56","4095374","0.0-5.0-2.9","47","1","2025-07-16 08:19:22","1f75c3e559b7213887762d5229550c2b","41.122.151.229","Mozilla/5.0 (Macintosh; Intel Mac OS X 10_15_7) AppleWebKit/537.36 (KHTML, like Gecko) Chrome/128.0.0.0 Safari/537.36","Macintosh","Chrome","128.0.0.0","OS X","10_15_7","https://app.prolific.com/","en-GB,en-US;q=0.9,en;q=0.8","6780db9dafd89add339abb6b","686e379bc37a29ffa5cdc956","68775fee412010210d6c7b67","1","1","6780db9dafd89add339abb6b","1","1","2025-07-16T09:27:40.188Z","","","","","","","","","","","ControlQ","","50","","","","","","","","","","","","","","","","","","","","","","","","","","","","",""
"3931","","<div style=""width:500px;"">
  <p>How would you describe your current emotional state?</p>
  </div>","88","html-slider-response","57","4099310","0.0-5.0-3.9","47","1","2025-07-16 08:19:22","1f75c3e559b7213887762d5229550c2b","41.122.151.229","Mozilla/5.0 (Macintosh; Intel Mac OS X 10_15_7) AppleWebKit/537.36 (KHTML, like Gecko) Chrome/128.0.0.0 Safari/537.36","Macintosh","Chrome","128.0.0.0","OS X","10_15_7","https://app.prolific.com/","en-GB,en-US;q=0.9,en;q=0.8","6780db9dafd89add339abb6b","686e379bc37a29ffa5cdc956","68775fee412010210d6c7b67","1","1","6780db9dafd89add339abb6b","1","1","2025-07-16T09:27:44.124Z","","","","","","","","","","","StressQ","","50","","","","","","","","","","","","","","","","","","","","","","","","","","","","",""
"2653","","<div style=""width:500px;"">
  <p>What best describes how you currently feel?</p>
  </div>","30","html-slider-response","58","4101968","0.0-5.0-4.9","47","1","2025-07-16 08:19:22","1f75c3e559b7213887762d5229550c2b","41.122.151.229","Mozilla/5.0 (Macintosh; Intel Mac OS X 10_15_7) AppleWebKit/537.36 (KHTML, like Gecko) Chrome/128.0.0.0 Safari/537.36","Macintosh","Chrome","128.0.0.0","OS X","10_15_7","https://app.prolific.com/","en-GB,en-US;q=0.9,en;q=0.8","6780db9dafd89add339abb6b","686e379bc37a29ffa5cdc956","68775fee412010210d6c7b67","1","1","6780db9dafd89add339abb6b","1","1","2025-07-16T09:27:46.782Z","","","","","","","","","","","MotivationQ","","50","","","","","","","","","","","","","","","","","","","","","","","","","","","","",""
"","","","","ctl-task-cpt","59","4158812","0.0-5.0-0.10","47","1","2025-07-16 08:19:22","1f75c3e559b7213887762d5229550c2b","41.122.151.229","Mozilla/5.0 (Macintosh; Intel Mac OS X 10_15_7) AppleWebKit/537.36 (KHTML, like Gecko) Chrome/128.0.0.0 Safari/537.36","Macintosh","Chrome","128.0.0.0","OS X","10_15_7","https://app.prolific.com/","en-GB,en-US;q=0.9,en;q=0.8","6780db9dafd89add339abb6b","686e379bc37a29ffa5cdc956","68775fee412010210d6c7b67","1","1","6780db9dafd89add339abb6b","1","1","2025-07-16T09:28:43.626Z","","","","","","","","","","","","","","win-only","2","g1:SE,g2:NW","0.5","11","0","4113000.8","2293.8","7302.6","53822.6","1","4","8","6","2","8","8","20","12","0.15151515151515152","901.1","3000","1415","[""left"",""up""]","{""num_key_presses"":8,""num_perfect"":4,""num_errors"":0,""num_randdir"":4,""num_randdir_good_moves"":3,""num_whilered"":0,""num_whileblue"":0,""num_blue"":6,""num_good_moves"":7}","[351.1428623752935,339.3584871996926,2.1,351.1428623752935,339.3584871996926,116.1,351.9428623872144,339.3584871996926,236,341.5428622322423,328.1584870327996,350.4,322.34286194614003,344.9584872831391,457.3,274.3428612308843,281.7584863413857,574.5,53.54285794070788,40.15848274126515,695.8,51.142857904945096,38.558482717423296,805.7,49.54285788110324,39.358482729344225,924.3,49.54285788110324,39.358482729344225,1081.6,-206.45714593359403,160.95848454132542,1188.3,-372.85714841314723,162.55848456516728,1289.2,-372.85714841314723,157.7584844936417,1398.3,-372.85714841314723,157.7584844936417,1502.8,-372.85714841314723,157.7584844936417,1614.5,-372.85714841314723,157.7584844936417,1723.9,-372.85714841314723,157.7584844936417,1831,-372.85714841314723,157.7584844936417,1953.9,-372.85714841314723,157.7584844936417,2066.2,-372.85714841314723,157.7584844936417,2170,-372.85714841314723,157.7584844936417,2287,-372.85714841314723,157.7584844936417,2393.5,-372.85714841314723,157.7584844936417,2513.5,-372.85714841314723,157.7584844936417,2616.4,-372.85714841314723,157.7584844936417,2732.9,-372.85714841314723,157.7584844936417,2834.1,-372.85714841314723,157.7584844936417,2940.3,-372.85714841314723,157.7584844936417,3057.6,-372.85714841314723,157.7584844936417,3164,-372.85714841314723,157.7584844936417,3264.9,-372.85714841314723,157.7584844936417,3369.8,-372.85714841314723,157.7584844936417,3479.2,-372.85714841314723,157.7584844936417,3582.1,-372.85714841314723,157.7584844936417,3683.9,-372.85714841314723,157.7584844936417,3793.5,-372.85714841314723,157.7584844936417,3895.4,-372.85714841314723,157.7584844936417,4001.4,-372.85714841314723,157.7584844936417,4116.2,-372.85714841314723,157.7584844936417,4230.6,-372.85714841314723,157.7584844936417,4338.6,-372.85714841314723,157.7584844936417,4454.5,-372.85714841314723,157.7584844936417,4565.3,-372.85714841314723,157.7584844936417,4666.1,-372.85714841314723,157.7584844936417,4767.4,-372.85714841314723,157.7584844936417,4870.4,-372.85714841314723,157.7584844936417,4971.1]","[4985.9,4985.9,2438.7,2015.6,531.6,""smooth"",""up"",""up"",""good_move"",11770.5,6783,2468.9,8783.6,518,""smooth"",""up"",""up"",""good_move"",15695.7,3924.5,2590.2,11771.2,1334.3,""smooth"",""up"",""up"",""good_move"",21975.8,6279.8,2443.6,19048,484.2,""oops"",""left"",""down"",""bad_move"",25256.5,3278.7,2787.8,21977.8,490.9,""oops"",""left"",""up"",""good_move"",28429.2,3171.3,1786.8,25257.9,1384.5,""smooth"",""left"",""left"",""good_move"",42809.9,14379.7,2173.6,40093,543.3,""oops"",""left"",""left"",""good_move"",46206.4,3395.7,2459.1,42810.7,936.6,""oops"",""left"",""left"",""good_move""]","",""
"3208","","<div style=""width:500px;"">
  <p>What determined the result of this run?</p>
  </div>","20","html-slider-response","60","4162023","0.0-5.0-1.10","47","1","2025-07-16 08:19:22","1f75c3e559b7213887762d5229550c2b","41.122.151.229","Mozilla/5.0 (Macintosh; Intel Mac OS X 10_15_7) AppleWebKit/537.36 (KHTML, like Gecko) Chrome/128.0.0.0 Safari/537.36","Macintosh","Chrome","128.0.0.0","OS X","10_15_7","https://app.prolific.com/","en-GB,en-US;q=0.9,en;q=0.8","6780db9dafd89add339abb6b","686e379bc37a29ffa5cdc956","68775fee412010210d6c7b67","1","1","6780db9dafd89add339abb6b","1","1","2025-07-16T09:28:46.837Z","","","","","","","","","","","AttribQ","","50","","","","","","","","","","","","","","","","","","","","","","","","","","","","",""
"1894","","<div style=""width:500px;"">
  <p>How much control did you have over the ball?</p>
  </div>","40","html-slider-response","61","4163920","0.0-5.0-2.10","47","1","2025-07-16 08:19:22","1f75c3e559b7213887762d5229550c2b","41.122.151.229","Mozilla/5.0 (Macintosh; Intel Mac OS X 10_15_7) AppleWebKit/537.36 (KHTML, like Gecko) Chrome/128.0.0.0 Safari/537.36","Macintosh","Chrome","128.0.0.0","OS X","10_15_7","https://app.prolific.com/","en-GB,en-US;q=0.9,en;q=0.8","6780db9dafd89add339abb6b","686e379bc37a29ffa5cdc956","68775fee412010210d6c7b67","1","1","6780db9dafd89add339abb6b","1","1","2025-07-16T09:28:48.734Z","","","","","","","","","","","ControlQ","","50","","","","","","","","","","","","","","","","","","","","","","","","","","","","",""
"2012","","<div style=""width:500px;"">
  <p>How would you describe your current emotional state?</p>
  </div>","62","html-slider-response","62","4165935","0.0-5.0-3.10","47","1","2025-07-16 08:19:22","1f75c3e559b7213887762d5229550c2b","41.122.151.229","Mozilla/5.0 (Macintosh; Intel Mac OS X 10_15_7) AppleWebKit/537.36 (KHTML, like Gecko) Chrome/128.0.0.0 Safari/537.36","Macintosh","Chrome","128.0.0.0","OS X","10_15_7","https://app.prolific.com/","en-GB,en-US;q=0.9,en;q=0.8","6780db9dafd89add339abb6b","686e379bc37a29ffa5cdc956","68775fee412010210d6c7b67","1","1","6780db9dafd89add339abb6b","1","1","2025-07-16T09:28:50.749Z","","","","","","","","","","","StressQ","","50","","","","","","","","","","","","","","","","","","","","","","","","","","","","",""
"3845","","<div style=""width:500px;"">
  <p>What best describes how you currently feel?</p>
  </div>","31","html-slider-response","63","4169782","0.0-5.0-4.10","47","1","2025-07-16 08:19:22","1f75c3e559b7213887762d5229550c2b","41.122.151.229","Mozilla/5.0 (Macintosh; Intel Mac OS X 10_15_7) AppleWebKit/537.36 (KHTML, like Gecko) Chrome/128.0.0.0 Safari/537.36","Macintosh","Chrome","128.0.0.0","OS X","10_15_7","https://app.prolific.com/","en-GB,en-US;q=0.9,en;q=0.8","6780db9dafd89add339abb6b","686e379bc37a29ffa5cdc956","68775fee412010210d6c7b67","1","1","6780db9dafd89add339abb6b","1","1","2025-07-16T09:28:54.596Z","","","","","","","","","","","MotivationQ","","50","","","","","","","","","","","","","","","","","","","","","","","","","","","","",""
"","","","","ctl-task-cpt","64","4211483","0.0-5.0-0.11","47","1","2025-07-16 08:19:22","1f75c3e559b7213887762d5229550c2b","41.122.151.229","Mozilla/5.0 (Macintosh; Intel Mac OS X 10_15_7) AppleWebKit/537.36 (KHTML, like Gecko) Chrome/128.0.0.0 Safari/537.36","Macintosh","Chrome","128.0.0.0","OS X","10_15_7","https://app.prolific.com/","en-GB,en-US;q=0.9,en;q=0.8","6780db9dafd89add339abb6b","686e379bc37a29ffa5cdc956","68775fee412010210d6c7b67","1","1","6780db9dafd89add339abb6b","1","1","2025-07-16T09:29:36.298Z","","","","","","","","","","","","","","win-only","3","g1:SW,g2:NE","0.6","12","0","4180810.4","853.9","5861.2","38658.5","1","4","4","6","2","4","4","24","20","0.18181818181818182","1186.7","3000","1210","[""up"",""right""]","{""num_key_presses"":8,""num_perfect"":5,""num_errors"":0,""num_randdir"":3,""num_randdir_good_moves"":2,""num_whilered"":0,""num_whileblue"":0,""num_blue"":2,""num_good_moves"":7}","[341.5428622322423,348.95848734274375,0.2,341.5428622322423,348.95848734274375,105.2,341.5428622322423,348.95848734274375,215.1,333.54286211303304,362.55848754539954,319.9,184.74285989574022,387.35848791494834,437.8,84.7428584056241,473.75848920240867,548.7,79.94285833409853,568.1584906090783,659.6,156.7428594785077,512.1584897746133,767.8,558.3428654628141,84.95848340883717,869.3,623.1428664284093,36.95848269358144,969.5,622.3428664164884,41.75848276510701,1076.9,622.3428664164884,42.55848277702794,1202.8,622.3428664164884,42.55848277702794,1315.1,622.3428664164884,42.55848277702794,1422.3,622.3428664164884,42.55848277702794,1530.4,622.3428664164884,42.55848277702794,1637.8,622.3428664164884,42.55848277702794,1741.4,622.3428664164884,42.55848277702794,1848.7,622.3428664164884,42.55848277702794,1956.6,622.3428664164884,42.55848277702794,2066.8,622.3428664164884,42.55848277702794,2183.2,622.3428664164884,42.55848277702794,2285.5,622.3428664164884,42.55848277702794,2399.3,622.3428664164884,42.55848277702794,2513,622.3428664164884,42.55848277702794,2621.5,622.3428664164884,42.55848277702794,2731.3,622.3428664164884,42.55848277702794,2837.6,622.3428664164884,42.55848277702794,2943.3,622.3428664164884,42.55848277702794,3057.5,622.3428664164884,42.55848277702794,3170.8,622.3428664164884,42.55848277702794,3270.8,622.3428664164884,42.55848277702794,3372,622.3428664164884,42.55848277702794,3475.1,622.3428664164884,42.55848277702794,3588.2,622.3428664164884,42.55848277702794,3696.6,622.3428664164884,42.55848277702794,3809,622.3428664164884,42.55848277702794,3917.8,622.3428664164884,42.55848277702794,4018.6,622.3428664164884,42.55848277702794,4138.7,622.3428664164884,42.55848277702794,4242.6,622.3428664164884,42.55848277702794,4344.3,622.3428664164884,42.55848277702794,4453,622.3428664164884,42.55848277702794,4558.5,622.3428664164884,42.55848277702794,4675.9,622.3428664164884,42.55848277702794,4789.4,622.3428664164884,42.55848277702794,4902.7]","[1731.5,1731.5,1000,0,731.5,""oops"",""right"",""left"",""bad_move"",6297.3,4540.2,2783.1,1757.1,1757.1,""oops"",""right"",""right"",""good_move"",12111.4,5812.4,2226.2,9148,737.2,""smooth"",""right"",""right"",""good_move"",15349.4,3229.9,2693.3,12119.5,536.6,""smooth"",""right"",""right"",""good_move"",19062.7,3712.4,2154.8,15350.3,1557.6,""smooth"",""right"",""right"",""good_move"",22209.5,3145.3,2287.8,19064.2,857.5,""oops"",""up"",""up"",""good_move"",25535.3,3325.3,2187.5,22210,1137.8,""smooth"",""up"",""up"",""good_move"",32521.1,6975.7,2481.2,29613.3,426.6,""smooth"",""up"",""up"",""good_move""]","",""
"28499","","<div style=""width:500px;"">
  <p>What determined the result of this run?</p>
  </div>","79","html-slider-response","65","4239989","0.0-5.0-1.11","47","1","2025-07-16 08:19:22","1f75c3e559b7213887762d5229550c2b","41.122.151.229","Mozilla/5.0 (Macintosh; Intel Mac OS X 10_15_7) AppleWebKit/537.36 (KHTML, like Gecko) Chrome/128.0.0.0 Safari/537.36","Macintosh","Chrome","128.0.0.0","OS X","10_15_7","https://app.prolific.com/","en-GB,en-US;q=0.9,en;q=0.8","6780db9dafd89add339abb6b","686e379bc37a29ffa5cdc956","68775fee412010210d6c7b67","1","1","6780db9dafd89add339abb6b","1","1","2025-07-16T09:30:04.803Z","","","","","","","","","","","AttribQ","","50","","","","","","","","","","","","","","","","","","","","","","","","","","","","",""
"1587","","<div style=""width:500px;"">
  <p>How much control did you have over the ball?</p>
  </div>","34","html-slider-response","66","4241578","0.0-5.0-2.11","47","1","2025-07-16 08:19:22","1f75c3e559b7213887762d5229550c2b","41.122.151.229","Mozilla/5.0 (Macintosh; Intel Mac OS X 10_15_7) AppleWebKit/537.36 (KHTML, like Gecko) Chrome/128.0.0.0 Safari/537.36","Macintosh","Chrome","128.0.0.0","OS X","10_15_7","https://app.prolific.com/","en-GB,en-US;q=0.9,en;q=0.8","6780db9dafd89add339abb6b","686e379bc37a29ffa5cdc956","68775fee412010210d6c7b67","1","1","6780db9dafd89add339abb6b","1","1","2025-07-16T09:30:06.393Z","","","","","","","","","","","ControlQ","","50","","","","","","","","","","","","","","","","","","","","","","","","","","","","",""
"1530","","<div style=""width:500px;"">
  <p>How would you describe your current emotional state?</p>
  </div>","71","html-slider-response","67","4243113","0.0-5.0-3.11","47","1","2025-07-16 08:19:22","1f75c3e559b7213887762d5229550c2b","41.122.151.229","Mozilla/5.0 (Macintosh; Intel Mac OS X 10_15_7) AppleWebKit/537.36 (KHTML, like Gecko) Chrome/128.0.0.0 Safari/537.36","Macintosh","Chrome","128.0.0.0","OS X","10_15_7","https://app.prolific.com/","en-GB,en-US;q=0.9,en;q=0.8","6780db9dafd89add339abb6b","686e379bc37a29ffa5cdc956","68775fee412010210d6c7b67","1","1","6780db9dafd89add339abb6b","1","1","2025-07-16T09:30:07.927Z","","","","","","","","","","","StressQ","","50","","","","","","","","","","","","","","","","","","","","","","","","","","","","",""
"1139","","<div style=""width:500px;"">
  <p>What best describes how you currently feel?</p>
  </div>","59","html-slider-response","68","4244254","0.0-5.0-4.11","47","1","2025-07-16 08:19:22","1f75c3e559b7213887762d5229550c2b","41.122.151.229","Mozilla/5.0 (Macintosh; Intel Mac OS X 10_15_7) AppleWebKit/537.36 (KHTML, like Gecko) Chrome/128.0.0.0 Safari/537.36","Macintosh","Chrome","128.0.0.0","OS X","10_15_7","https://app.prolific.com/","en-GB,en-US;q=0.9,en;q=0.8","6780db9dafd89add339abb6b","686e379bc37a29ffa5cdc956","68775fee412010210d6c7b67","1","1","6780db9dafd89add339abb6b","1","1","2025-07-16T09:30:09.068Z","","","","","","","","","","","MotivationQ","","50","","","","","","","","","","","","","","","","","","","","","","","","","","","","",""
"","","","","ctl-task-cpt","69","4292010","0.0-5.0-0.12","47","1","2025-07-16 08:19:22","1f75c3e559b7213887762d5229550c2b","41.122.151.229","Mozilla/5.0 (Macintosh; Intel Mac OS X 10_15_7) AppleWebKit/537.36 (KHTML, like Gecko) Chrome/128.0.0.0 Safari/537.36","Macintosh","Chrome","128.0.0.0","OS X","10_15_7","https://app.prolific.com/","en-GB,en-US;q=0.9,en;q=0.8","6780db9dafd89add339abb6b","686e379bc37a29ffa5cdc956","68775fee412010210d6c7b67","1","1","6780db9dafd89add339abb6b","1","1","2025-07-16T09:30:56.824Z","","","","","","","","","","","","","","win-only","2","g1:SE,g2:NW","0.7","13","0","4255269.5","867","5883.5","44726.7","1","4","8","6","2","8","8","32","24","0.24242424242424243","1778.1","3000","1905","[""left"",""up""]","{""num_key_presses"":8,""num_perfect"":6,""num_errors"":0,""num_randdir"":2,""num_randdir_good_moves"":1,""num_whilered"":0,""num_whileblue"":0,""num_blue"":2,""num_good_moves"":7}","[352.74286239913533,347.3584873189019,0.3,352.74286239913533,347.3584873189019,109.4,353.54286241105626,346.55848730698096,227.4,352.74286239913533,345.75848729506004,353.8,170.3428596811635,283.3584863652276,459.1,92.7428585248334,261.7584860433625,566.1,79.94285833409853,209.75848526850208,684.9,82.34285836986132,122.55848396912083,791.8,84.7428584056241,88.15848345652088,903.6,287.9428614335401,325.7584869970368,1014.6,482.3428643303258,566.5584905852364,1139.4,463.94286405614446,536.958490144162,1243.2,247.14286082557268,325.7584869970368,1343.2,66.34285813144274,121.7584839571999,1450.3,55.94285797647067,112.15848381414875,1557.2,57.54285800031253,96.9584835876511,1670.2,56.7428579883916,82.55848337307438,1781,55.94285797647067,85.7584834207581,1903.2,15.142857368503293,123.35848398104176,2017.3,0.7428571539265718,129.7584840764092,2120.7,0.7428571539265718,129.7584840764092,2226.7,0.7428571539265718,129.7584840764092,2327.7,0.7428571539265718,129.7584840764092,2439,0.7428571539265718,129.7584840764092,2539.9,0.7428571539265718,129.7584840764092,2643.3,0.7428571539265718,129.7584840764092,2757.2,0.7428571539265718,129.7584840764092,2872.6,0.7428571539265718,129.7584840764092,2973.9,0.7428571539265718,129.7584840764092,3081.9,0.7428571539265718,129.7584840764092,3182.8,0.7428571539265718,129.7584840764092,3285.6,0.7428571539265718,129.7584840764092,3389.6,0.7428571539265718,129.7584840764092,3499.2,0.7428571539265718,129.7584840764092,3617.7,0.7428571539265718,129.7584840764092,3718.7,0.7428571539265718,129.7584840764092,3846.9,0.7428571539265718,129.7584840764092,3968.5,0.7428571539265718,129.7584840764092,4089.4,0.7428571539265718,129.7584840764092,4204.6,0.7428571539265718,129.7584840764092,4323.3,0.7428571539265718,129.7584840764092,4439.2,0.7428571539265718,129.7584840764092,4551.3,0.7428571539265718,129.7584840764092,4669,0.7428571539265718,129.7584840764092,4784.6,0.7428571539265718,129.7584840764092,4889.6,0.7428571539265718,129.7584840764092,4996.5]","[1534.2,1534.2,1000,0,534.2,""smooth"",""up"",""up"",""good_move"",6050.8,4515.7,2424.9,1535.3,2090.8,""smooth"",""up"",""up"",""good_move"",9930.2,3876.8,2009.6,6053.4,1867.2,""oops"",""left"",""right"",""bad_move"",15894.4,5962.6,2592,12661.3,641.1,""oops"",""left"",""up"",""good_move"",21108.1,5209.4,2993.1,15898.7,2216.3,""smooth"",""left"",""left"",""good_move"",30187.7,9059.1,2975.5,26628,584.2,""smooth"",""left"",""left"",""good_move"",34228.3,4038,2137.7,30190.3,1900.3,""smooth"",""left"",""left"",""good_move"",38446.5,4199.8,1888.6,34246.8,2311.2,""smooth"",""left"",""left"",""good_move""]","",""
"4084","","<div style=""width:500px;"">
  <p>What determined the result of this run?</p>
  </div>","77","html-slider-response","70","4296095","0.0-5.0-1.12","47","1","2025-07-16 08:19:22","1f75c3e559b7213887762d5229550c2b","41.122.151.229","Mozilla/5.0 (Macintosh; Intel Mac OS X 10_15_7) AppleWebKit/537.36 (KHTML, like Gecko) Chrome/128.0.0.0 Safari/537.36","Macintosh","Chrome","128.0.0.0","OS X","10_15_7","https://app.prolific.com/","en-GB,en-US;q=0.9,en;q=0.8","6780db9dafd89add339abb6b","686e379bc37a29ffa5cdc956","68775fee412010210d6c7b67","1","1","6780db9dafd89add339abb6b","1","1","2025-07-16T09:31:00.909Z","","","","","","","","","","","AttribQ","","50","","","","","","","","","","","","","","","","","","","","","","","","","","","","",""
"2886","","<div style=""width:500px;"">
  <p>How much control did you have over the ball?</p>
  </div>","63","html-slider-response","71","4298987","0.0-5.0-2.12","47","1","2025-07-16 08:19:22","1f75c3e559b7213887762d5229550c2b","41.122.151.229","Mozilla/5.0 (Macintosh; Intel Mac OS X 10_15_7) AppleWebKit/537.36 (KHTML, like Gecko) Chrome/128.0.0.0 Safari/537.36","Macintosh","Chrome","128.0.0.0","OS X","10_15_7","https://app.prolific.com/","en-GB,en-US;q=0.9,en;q=0.8","6780db9dafd89add339abb6b","686e379bc37a29ffa5cdc956","68775fee412010210d6c7b67","1","1","6780db9dafd89add339abb6b","1","1","2025-07-16T09:31:03.801Z","","","","","","","","","","","ControlQ","","50","","","","","","","","","","","","","","","","","","","","","","","","","","","","",""
"1422","","<div style=""width:500px;"">
  <p>How would you describe your current emotional state?</p>
  </div>","30","html-slider-response","72","4300415","0.0-5.0-3.12","47","1","2025-07-16 08:19:22","1f75c3e559b7213887762d5229550c2b","41.122.151.229","Mozilla/5.0 (Macintosh; Intel Mac OS X 10_15_7) AppleWebKit/537.36 (KHTML, like Gecko) Chrome/128.0.0.0 Safari/537.36","Macintosh","Chrome","128.0.0.0","OS X","10_15_7","https://app.prolific.com/","en-GB,en-US;q=0.9,en;q=0.8","6780db9dafd89add339abb6b","686e379bc37a29ffa5cdc956","68775fee412010210d6c7b67","1","1","6780db9dafd89add339abb6b","1","1","2025-07-16T09:31:05.230Z","","","","","","","","","","","StressQ","","50","","","","","","","","","","","","","","","","","","","","","","","","","","","","",""
"1034","","<div style=""width:500px;"">
  <p>What best describes how you currently feel?</p>
  </div>","42","html-slider-response","73","4301455","0.0-5.0-4.12","47","1","2025-07-16 08:19:22","1f75c3e559b7213887762d5229550c2b","41.122.151.229","Mozilla/5.0 (Macintosh; Intel Mac OS X 10_15_7) AppleWebKit/537.36 (KHTML, like Gecko) Chrome/128.0.0.0 Safari/537.36","Macintosh","Chrome","128.0.0.0","OS X","10_15_7","https://app.prolific.com/","en-GB,en-US;q=0.9,en;q=0.8","6780db9dafd89add339abb6b","686e379bc37a29ffa5cdc956","68775fee412010210d6c7b67","1","1","6780db9dafd89add339abb6b","1","1","2025-07-16T09:31:06.269Z","","","","","","","","","","","MotivationQ","","50","","","","","","","","","","","","","","","","","","","","","","","","","","","","",""
