"rt","response_timestamp","stimulus","response","trial_type","trial_index","time_elapsed","internal_node_id","run_id","condition","recorded_at","source_code_version","ip","user_agent","device","browser","browser_version","platform","platform_version","referer","accept_language","PROLIFIC_PID","STUDY_ID","SESSION_ID","WEEK","BATCH","prolific_id","week","batch","realtime","success","responses","item_order","radio_event_ids","radio_event_times","key_event_times","mouse_event_times","straightlining","zigzagging","honeypot","eventType","view_history","slider_start","which_type","canvas_config","goals_layout","control_level","trial_number","tutorial_trial_number","trial_start_time","phase1_start_time","phase2_start_time","phase3_start_time","goal_1_value","goal_1_distance","goal_2_value","goal_2_distance","goal_selected","outcome","outcome_total","participant_final_score","participant_initial_score","participant_final_score_prop","goal_choice_rt","allocated_time","allocated_time_remaining","goal_direction","counts","mouse_movements","key_presses","question_order","question_id"
"21588","1752657134230","<p style='font-size:40px;line-height:1.25'><strong>Welcome to the experiment!</strong></p><p style='font-size:1.1em;line-height:1.25'>Thank you for participanting in our experiment again! You will be asked to play the Dysfunctional Ball Game again. We will briefly recap the rules before we start.</p><p style='font-size:1.1em;line-height:1.25'>Press <strong>Next</strong> to continue.</p>","0","custom-html-button-response","0","21682","0.0-0.0","87","1","2025-07-16 09:11:15","1f75c3e559b7213887762d5229550c2b","105.245.56.147","Mozilla/5.0 (Windows NT 10.0; Win64; x64) AppleWebKit/537.36 (KHTML, like Gecko) Chrome/138.0.0.0 Safari/537.36","WebKit","Chrome","138.0.0.0","Windows","10.0","https://app.prolific.com/","en-US,en;q=0.9","67eaee55a9b4d89e82b8df37","686e379bc37a29ffa5cdc956","687767c262cf630ff909e518","1","1","67eaee55a9b4d89e82b8df37","1","1","2025-07-16T09:12:14.309Z","","","","","","","","","","","","","","","","","","","","","","","","","","","","","","","","","","","","","","","","","",""
"4278","","","","fullscreen","1","28376","0.0-1.0","87","1","2025-07-16 09:11:15","1f75c3e559b7213887762d5229550c2b","105.245.56.147","Mozilla/5.0 (Windows NT 10.0; Win64; x64) AppleWebKit/537.36 (KHTML, like Gecko) Chrome/138.0.0.0 Safari/537.36","WebKit","Chrome","138.0.0.0","Windows","10.0","https://app.prolific.com/","en-US,en;q=0.9","67eaee55a9b4d89e82b8df37","686e379bc37a29ffa5cdc956","687767c262cf630ff909e518","1","1","67eaee55a9b4d89e82b8df37","1","1","","true","","","","","","","","","","","","","","","","","","","","","","","","","","","","","","","","","","","","","","","","",""
"8543","1752657149547","<p style='font-size:1.1em;line-height:1.25'>In the following, we will ask you a few questions relating to your feelings in the last 24 hours.<br></p><p style='font-size:1.1em;line-height:1.25'>Press the <strong>Next</strong> button to continue.</p>","0","custom-html-button-response","2","36928","0.0-2.0-0.0","87","1","2025-07-16 09:11:15","1f75c3e559b7213887762d5229550c2b","105.245.56.147","Mozilla/5.0 (Windows NT 10.0; Win64; x64) AppleWebKit/537.36 (KHTML, like Gecko) Chrome/138.0.0.0 Safari/537.36","WebKit","Chrome","138.0.0.0","Windows","10.0","https://app.prolific.com/","en-US,en;q=0.9","67eaee55a9b4d89e82b8df37","686e379bc37a29ffa5cdc956","687767c262cf630ff909e518","1","1","67eaee55a9b4d89e82b8df37","1","1","2025-07-16T09:12:29.551Z","","","","","","","","","","","","","","","","","","","","","","","","","","","","","","","","","","","","","","","","","",""
"104390.5","","","","survey-template","3","141505","0.0-2.0-1.0","87","1","2025-07-16 09:11:15","1f75c3e559b7213887762d5229550c2b","105.245.56.147","Mozilla/5.0 (Windows NT 10.0; Win64; x64) AppleWebKit/537.36 (KHTML, like Gecko) Chrome/138.0.0.0 Safari/537.36","WebKit","Chrome","138.0.0.0","Windows","10.0","https://app.prolific.com/","en-US,en;q=0.9","67eaee55a9b4d89e82b8df37","686e379bc37a29ffa5cdc956","687767c262cf630ff909e518","1","1","67eaee55a9b4d89e82b8df37","1","1","2025-07-16T09:14:14.128Z","","{""Q01"":""0"",""Q02"":""0"",""Q03"":""0"",""Q04"":""1"",""Q05"":""0"",""Q06"":""0"",""Q07"":""0"",""Q08"":""0"",""Q09"":""1"",""Q10"":""0"",""Q11"":""0"",""Q12"":""2"",""Q13"":""5"",""Q14"":""3"",""Q15"":""1"",""Q16"":""0"",""Q17"":""1"",""Q18"":""0"",""Q19"":""0"",""Q20"":""0"",""Q21"":""0"",""Q22"":""0""}","[0,1,2,3,4,5,6,7,8,9,10,11,12,13,14,15,16,17,18,19,20,21]","[""Q01"",""Q02"",""Q03"",""Q03"",""Q04"",""Q05"",""Q06"",""Q07"",""Q08"",""Q09"",""Q10"",""Q11"",""Q12"",""Q13"",""Q14"",""Q15"",""Q16"",""Q17"",""Q18"",""Q19"",""Q19"",""Q20"",""Q21"",""Q22""]","[3836.199999988079,5116.099999964237,9676.099999964237,10223.299999952316,11466.399999976158,12692.099999964237,15482.399999976158,16723.69999998808,20577.299999952316,29444.599999964237,33546.39999997616,37538,43193.19999998808,47195.19999998808,50244.59999996424,69865.09999996424,73208.09999996424,74387.59999996424,79717.39999997616,80715.89999997616,80972.09999996424,84581,91241.09999996424,102132.29999995232]","[]","[0.5,3836.199999988079,5116.099999964237,6189.699999988079,8642.599999964237,9676.099999964237,10223.299999952316,11466.399999976158,12692.099999964237,14490.899999976158,15482.399999976158,16723.69999998808,18140.799999952316,20577.299999952316,23117.799999952316,29444.599999964237,30870.299999952316,33546.39999997616,37538,43193.19999998808,47195.19999998808,50244.59999996424,52121.299999952316,65696.79999995232,69865.09999996424,71353.29999995232,73208.09999996424,74387.59999996424,78289.29999995232,79717.39999997616,80715.89999997616,80972.09999996424,84581,91241.09999996424,93503.89999997616,102132.29999995232,103729.29999995232]","0.6818181818181818","0.3333333333333333","0","drsp","","","","","","","","","","","","","","","","","","","","","","","","","","","","","","",""
"13545.699999988079","","","","survey-template","4","155245","0.0-2.0-2.0","87","1","2025-07-16 09:11:15","1f75c3e559b7213887762d5229550c2b","105.245.56.147","Mozilla/5.0 (Windows NT 10.0; Win64; x64) AppleWebKit/537.36 (KHTML, like Gecko) Chrome/138.0.0.0 Safari/537.36","WebKit","Chrome","138.0.0.0","Windows","10.0","https://app.prolific.com/","en-US,en;q=0.9","67eaee55a9b4d89e82b8df37","686e379bc37a29ffa5cdc956","687767c262cf630ff909e518","1","1","67eaee55a9b4d89e82b8df37","1","1","2025-07-16T09:14:27.867Z","","{""Q01"":""1"",""Q02"":""1"",""Q03"":""0""}","[0,1,2]","[""Q01"",""Q02"",""Q03""]","[3359.699999988079,7725.399999976158,12236.600000023842]","[]","[3359.699999988079,7725.399999976158,11321.899999976158,12236.600000023842,13539.699999988079]","0.3333333333333333","0","0","stress","","","","","","","","","","","","","","","","","","","","","","","","","","","","","","",""
"101072","","","","instructions","5","256323","0.0-3.0-0.0","87","1","2025-07-16 09:11:15","1f75c3e559b7213887762d5229550c2b","105.245.56.147","Mozilla/5.0 (Windows NT 10.0; Win64; x64) AppleWebKit/537.36 (KHTML, like Gecko) Chrome/138.0.0.0 Safari/537.36","WebKit","Chrome","138.0.0.0","Windows","10.0","https://app.prolific.com/","en-US,en;q=0.9","67eaee55a9b4d89e82b8df37","686e379bc37a29ffa5cdc956","687767c262cf630ff909e518","1","1","67eaee55a9b4d89e82b8df37","1","1","","","","","","","","","","","","","[{""page_index"":0,""viewing_time"":101068}]","","","","","","","","","","","","","","","","","","","","","","","","","","","","","",""
"11305","","<p>Before you start with this game please answer the following three questions yourself. </p>
  <p>Through this game, we measure several aspects of your cognitive performance, such as reaction times, multi-tasking capabilities </p>
  <p>and the ability to assess the situation you are in.</p>
  <p></p>
  <p><b>How good do you usually are in such tasks?</b></p>","95","html-slider-response","6","267831","0.0-4.0-0.0","87","1","2025-07-16 09:11:15","1f75c3e559b7213887762d5229550c2b","105.245.56.147","Mozilla/5.0 (Windows NT 10.0; Win64; x64) AppleWebKit/537.36 (KHTML, like Gecko) Chrome/138.0.0.0 Safari/537.36","WebKit","Chrome","138.0.0.0","Windows","10.0","https://app.prolific.com/","en-US,en;q=0.9","67eaee55a9b4d89e82b8df37","686e379bc37a29ffa5cdc956","687767c262cf630ff909e518","1","1","67eaee55a9b4d89e82b8df37","1","1","2025-07-16T09:16:20.453Z","","","","","","","","","","","PreSkillQ","","50","","","","","","","","","","","","","","","","","","","","","","","","","","","","",""
"4460","","<div style=""width:500px;"">
  <p>How well do you think you will perform in this task compared to other participants?</p>
  </div>","97","html-slider-response","7","272296","0.0-4.0-1.0","87","1","2025-07-16 09:11:15","1f75c3e559b7213887762d5229550c2b","105.245.56.147","Mozilla/5.0 (Windows NT 10.0; Win64; x64) AppleWebKit/537.36 (KHTML, like Gecko) Chrome/138.0.0.0 Safari/537.36","WebKit","Chrome","138.0.0.0","Windows","10.0","https://app.prolific.com/","en-US,en;q=0.9","67eaee55a9b4d89e82b8df37","686e379bc37a29ffa5cdc956","687767c262cf630ff909e518","1","1","67eaee55a9b4d89e82b8df37","1","1","2025-07-16T09:16:24.919Z","","","","","","","","","","","PrePerfQ","","50","","","","","","","","","","","","","","","","","","","","","","","","","","","","",""
"2883","","<div style=""width:500px;"">
  <p>What best describes how you currently feel?</p>
  </div>","100","html-slider-response","8","275183","0.0-4.0-2.0","87","1","2025-07-16 09:11:15","1f75c3e559b7213887762d5229550c2b","105.245.56.147","Mozilla/5.0 (Windows NT 10.0; Win64; x64) AppleWebKit/537.36 (KHTML, like Gecko) Chrome/138.0.0.0 Safari/537.36","WebKit","Chrome","138.0.0.0","Windows","10.0","https://app.prolific.com/","en-US,en;q=0.9","67eaee55a9b4d89e82b8df37","686e379bc37a29ffa5cdc956","687767c262cf630ff909e518","1","1","67eaee55a9b4d89e82b8df37","1","1","2025-07-16T09:16:27.806Z","","","","","","","","","","","PreMotivationQ","","50","","","","","","","","","","","","","","","","","","","","","","","","","","","","",""
"","","","","ctl-task-cpt","9","323665","0.0-5.0-0.0","87","1","2025-07-16 09:11:15","1f75c3e559b7213887762d5229550c2b","105.245.56.147","Mozilla/5.0 (Windows NT 10.0; Win64; x64) AppleWebKit/537.36 (KHTML, like Gecko) Chrome/138.0.0.0 Safari/537.36","WebKit","Chrome","138.0.0.0","Windows","10.0","https://app.prolific.com/","en-US,en;q=0.9","67eaee55a9b4d89e82b8df37","686e379bc37a29ffa5cdc956","687767c262cf630ff909e518","1","1","67eaee55a9b4d89e82b8df37","1","1","2025-07-16T09:17:16.287Z","","","","","","","","","","","","","","win-only","2","g1:SE,g2:NW","1","1","0","309127.7","5925.6","10928.1","45111","1","4","4","6","2","4","3","3","0","0.022727272727272728","3557.9","3000","5","[""left"",""up""]","{""num_key_presses"":8,""num_perfect"":7,""num_errors"":1,""num_randdir"":0,""num_randdir_good_moves"":0,""num_whilered"":0,""num_whileblue"":1,""num_blue"":4,""num_good_moves"":7}","[297.22232142857143,296.12857142857143,17.3,297.22232142857143,296.12857142857143,158.5,297.22232142857143,296.12857142857143,265.3,297.22232142857143,296.12857142857143,365.8,297.22232142857143,296.12857142857143,477.8,297.22232142857143,296.12857142857143,583,297.22232142857143,296.12857142857143,685.1,297.22232142857143,296.12857142857143,788.9,297.22232142857143,296.12857142857143,891.8,297.22232142857143,296.12857142857143,993.4,297.22232142857143,296.12857142857143,1099.4,297.22232142857143,296.12857142857143,1201.9,297.22232142857143,296.12857142857143,1306.8,297.22232142857143,296.12857142857143,1422.5,297.22232142857143,296.12857142857143,1525.4,297.22232142857143,296.12857142857143,1631.4,297.22232142857143,296.12857142857143,1731.6,297.22232142857143,296.12857142857143,1833.2,297.22232142857143,296.12857142857143,1939,297.22232142857143,296.12857142857143,2045.4,297.22232142857143,296.12857142857143,2148.4,297.22232142857143,296.12857142857143,2249.6,297.22232142857143,296.12857142857143,2349.9,170.22232142857143,170.12857142857143,2450.5,-108.77767857142857,-11.871428571428574,2559.5,-109.77767857142857,-14.871428571428574,2665.6,-109.77767857142857,-14.871428571428574,2765.9,-37.777678571428574,49.128571428571426,2869.5,20.222321428571426,91.12857142857143,2982.7,20.222321428571426,91.12857142857143,3094.5,21.222321428571426,91.12857142857143,3198.4,21.222321428571426,91.12857142857143,3565.6,21.222321428571426,91.12857142857143,3681.1,21.222321428571426,91.12857142857143,3784.2,21.222321428571426,91.12857142857143,3884.8,21.222321428571426,91.12857142857143,3985.1,21.222321428571426,91.12857142857143,4085.8,21.222321428571426,91.12857142857143,4191.8,21.222321428571426,91.12857142857143,4292.2,21.222321428571426,91.12857142857143,4395.1,21.222321428571426,91.12857142857143,4500.7,21.222321428571426,91.12857142857143,4610.6,32.222321428571426,91.12857142857143,4717.7,266.22232142857143,192.12857142857143,4826.2,349.22232142857143,312.12857142857143,4929.6]","[1533.9,1533.9,1002.3,0,531.6,""while_blue"",""up"",""down"",""bad_move"",4693.7,3155.3,2371.5,1538.4,783.8,""smooth"",""up"",""up"",""good_move"",12041.9,7346.5,3022,8578.1,441.9,""smooth"",""up"",""up"",""good_move"",15411.9,3250.2,2563,12161.7,687.2,""smooth"",""up"",""up"",""good_move"",18750.5,3335.6,2801.3,15415,534.2,""smooth"",""up"",""up"",""good_move"",28255.1,9501.2,2006.1,25751.9,497.2,""smooth"",""left"",""left"",""good_move"",31136.6,2880.2,2191.6,28256.5,688.5,""smooth"",""left"",""left"",""good_move"",34037.9,2898.8,2430,31140.6,468.7,""smooth"",""left"",""left"",""good_move""]","",""
"6659","","<div style=""width:500px;"">
  <p>What determined the result of this run?</p>
  </div>","100","html-slider-response","10","330342","0.0-5.0-1.0","87","1","2025-07-16 09:11:15","1f75c3e559b7213887762d5229550c2b","105.245.56.147","Mozilla/5.0 (Windows NT 10.0; Win64; x64) AppleWebKit/537.36 (KHTML, like Gecko) Chrome/138.0.0.0 Safari/537.36","WebKit","Chrome","138.0.0.0","Windows","10.0","https://app.prolific.com/","en-US,en;q=0.9","67eaee55a9b4d89e82b8df37","686e379bc37a29ffa5cdc956","687767c262cf630ff909e518","1","1","67eaee55a9b4d89e82b8df37","1","1","2025-07-16T09:17:22.964Z","","","","","","","","","","","AttribQ","","50","","","","","","","","","","","","","","","","","","","","","","","","","","","","",""
"3578","","<div style=""width:500px;"">
  <p>How much control did you have over the ball?</p>
  </div>","99","html-slider-response","11","333925","0.0-5.0-2.0","87","1","2025-07-16 09:11:15","1f75c3e559b7213887762d5229550c2b","105.245.56.147","Mozilla/5.0 (Windows NT 10.0; Win64; x64) AppleWebKit/537.36 (KHTML, like Gecko) Chrome/138.0.0.0 Safari/537.36","WebKit","Chrome","138.0.0.0","Windows","10.0","https://app.prolific.com/","en-US,en;q=0.9","67eaee55a9b4d89e82b8df37","686e379bc37a29ffa5cdc956","687767c262cf630ff909e518","1","1","67eaee55a9b4d89e82b8df37","1","1","2025-07-16T09:17:26.562Z","","","","","","","","","","","ControlQ","","50","","","","","","","","","","","","","","","","","","","","","","","","","","","","",""
"5698","","<div style=""width:500px;"">
  <p>How would you describe your current emotional state?</p>
  </div>","0","html-slider-response","12","339643","0.0-5.0-3.0","87","1","2025-07-16 09:11:15","1f75c3e559b7213887762d5229550c2b","105.245.56.147","Mozilla/5.0 (Windows NT 10.0; Win64; x64) AppleWebKit/537.36 (KHTML, like Gecko) Chrome/138.0.0.0 Safari/537.36","WebKit","Chrome","138.0.0.0","Windows","10.0","https://app.prolific.com/","en-US,en;q=0.9","67eaee55a9b4d89e82b8df37","686e379bc37a29ffa5cdc956","687767c262cf630ff909e518","1","1","67eaee55a9b4d89e82b8df37","1","1","2025-07-16T09:17:32.266Z","","","","","","","","","","","StressQ","","50","","","","","","","","","","","","","","","","","","","","","","","","","","","","",""
"6635","","<div style=""width:500px;"">
  <p>What best describes how you currently feel?</p>
  </div>","100","html-slider-response","13","346285","0.0-5.0-4.0","87","1","2025-07-16 09:11:15","1f75c3e559b7213887762d5229550c2b","105.245.56.147","Mozilla/5.0 (Windows NT 10.0; Win64; x64) AppleWebKit/537.36 (KHTML, like Gecko) Chrome/138.0.0.0 Safari/537.36","WebKit","Chrome","138.0.0.0","Windows","10.0","https://app.prolific.com/","en-US,en;q=0.9","67eaee55a9b4d89e82b8df37","686e379bc37a29ffa5cdc956","687767c262cf630ff909e518","1","1","67eaee55a9b4d89e82b8df37","1","1","2025-07-16T09:17:38.908Z","","","","","","","","","","","MotivationQ","","50","","","","","","","","","","","","","","","","","","","","","","","","","","","","",""
"","","","","ctl-task-cpt","14","385696","0.0-5.0-0.1","87","1","2025-07-16 09:11:15","1f75c3e559b7213887762d5229550c2b","105.245.56.147","Mozilla/5.0 (Windows NT 10.0; Win64; x64) AppleWebKit/537.36 (KHTML, like Gecko) Chrome/138.0.0.0 Safari/537.36","WebKit","Chrome","138.0.0.0","Windows","10.0","https://app.prolific.com/","en-US,en;q=0.9","67eaee55a9b4d89e82b8df37","686e379bc37a29ffa5cdc956","687767c262cf630ff909e518","1","1","67eaee55a9b4d89e82b8df37","1","1","2025-07-16T09:18:18.320Z","","","","","","","","","","","","","","win-only","2","g1:SE,g2:NW","0.9","2","0","379869.9","2133.6","7146.8","36357.4","1","4","8","6","2","-8","-8","0","3","0","2000.3","3000","-2185","[""left"",""up""]","{""num_key_presses"":7,""num_perfect"":6,""num_errors"":0,""num_randdir"":1,""num_randdir_good_moves"":0,""num_whilered"":0,""num_whileblue"":0,""num_blue"":2,""num_good_moves"":6}","[304.22232142857143,295.12857142857143,3.9,304.22232142857143,295.12857142857143,107.7,304.22232142857143,295.12857142857143,212.6,304.22232142857143,295.12857142857143,317.4,304.22232142857143,295.12857142857143,423.4,304.22232142857143,295.12857142857143,527.9,304.22232142857143,295.12857142857143,630.2,304.22232142857143,295.12857142857143,731.9,304.22232142857143,295.12857142857143,833.9,304.22232142857143,295.12857142857143,942.3,304.22232142857143,295.12857142857143,1043.9,304.22232142857143,295.12857142857143,1150.6,46.222321428571426,66.12857142857143,1262.6,19.222321428571426,44.128571428571426,1363.4,19.222321428571426,44.128571428571426,1469.3,29.222321428571426,44.128571428571426,1571.7,54.222321428571426,50.128571428571426,1672,64.22232142857143,55.128571428571426,1772.5,64.22232142857143,55.128571428571426,1873.6,64.22232142857143,55.128571428571426,1999,64.22232142857143,55.128571428571426,2113.8,64.22232142857143,55.128571428571426,2227.3,64.22232142857143,55.128571428571426,2328.1,64.22232142857143,55.128571428571426,2429.9,64.22232142857143,55.128571428571426,2533.4,64.22232142857143,55.128571428571426,2637.7,64.22232142857143,55.128571428571426,2737.9,86.22232142857143,100.12857142857143,2839.1,116.22232142857143,199.12857142857143,2944.2,118.22232142857143,264.12857142857143,3045.5,119.22232142857143,267.12857142857143,3181.2,119.22232142857143,267.12857142857143,3281.5,119.22232142857143,267.12857142857143,3383.4,119.22232142857143,267.12857142857143,3495,119.22232142857143,267.12857142857143,3602.2,119.22232142857143,267.12857142857143,3714.3,119.22232142857143,267.12857142857143,3814.7,119.22232142857143,267.12857142857143,3922.9,119.22232142857143,267.12857142857143,4030.4,119.22232142857143,267.12857142857143,4134.6,119.22232142857143,267.12857142857143,4246.6,119.22232142857143,267.12857142857143,4349.2,119.22232142857143,267.12857142857143,4461.7,119.22232142857143,267.12857142857143,4562.5,119.22232142857143,267.12857142857143,4670.2,119.22232142857143,267.12857142857143,4771,119.22232142857143,267.12857142857143,4880.7,119.22232142857143,267.12857142857143,4981.9]","[1927,1927,1000,0,927,""smooth"",""up"",""up"",""good_move"",5388.3,3459.3,2985.6,1929,473.7,""smooth"",""up"",""up"",""good_move"",8537.2,3143.3,2678.3,5393.9,465,""oops"",""up"",""down"",""bad_move"",11386.6,2846.4,2384.6,8540.2,461.8,""smooth"",""up"",""up"",""good_move"",14303.8,2914.8,2365.3,11389.2,549.4,""smooth"",""up"",""up"",""good_move"",17024.6,2719,2238.4,14305.6,480.7,""smooth"",""left"",""left"",""good_move"",23454.9,6425.8,2306.7,20613.3,534.9,""smooth"",""left"",""left"",""good_move""]","",""
"4571","","<div style=""width:500px;"">
  <p>What determined the result of this run?</p>
  </div>","88","html-slider-response","15","390295","0.0-5.0-1.1","87","1","2025-07-16 09:11:15","1f75c3e559b7213887762d5229550c2b","105.245.56.147","Mozilla/5.0 (Windows NT 10.0; Win64; x64) AppleWebKit/537.36 (KHTML, like Gecko) Chrome/138.0.0.0 Safari/537.36","WebKit","Chrome","138.0.0.0","Windows","10.0","https://app.prolific.com/","en-US,en;q=0.9","67eaee55a9b4d89e82b8df37","686e379bc37a29ffa5cdc956","687767c262cf630ff909e518","1","1","67eaee55a9b4d89e82b8df37","1","1","2025-07-16T09:18:22.918Z","","","","","","","","","","","AttribQ","","50","","","","","","","","","","","","","","","","","","","","","","","","","","","","",""
"4808","","<div style=""width:500px;"">
  <p>How much control did you have over the ball?</p>
  </div>","89","html-slider-response","16","395112","0.0-5.0-2.1","87","1","2025-07-16 09:11:15","1f75c3e559b7213887762d5229550c2b","105.245.56.147","Mozilla/5.0 (Windows NT 10.0; Win64; x64) AppleWebKit/537.36 (KHTML, like Gecko) Chrome/138.0.0.0 Safari/537.36","WebKit","Chrome","138.0.0.0","Windows","10.0","https://app.prolific.com/","en-US,en;q=0.9","67eaee55a9b4d89e82b8df37","686e379bc37a29ffa5cdc956","687767c262cf630ff909e518","1","1","67eaee55a9b4d89e82b8df37","1","1","2025-07-16T09:18:27.735Z","","","","","","","","","","","ControlQ","","50","","","","","","","","","","","","","","","","","","","","","","","","","","","","",""
"3477","","<div style=""width:500px;"">
  <p>How would you describe your current emotional state?</p>
  </div>","0","html-slider-response","17","398595","0.0-5.0-3.1","87","1","2025-07-16 09:11:15","1f75c3e559b7213887762d5229550c2b","105.245.56.147","Mozilla/5.0 (Windows NT 10.0; Win64; x64) AppleWebKit/537.36 (KHTML, like Gecko) Chrome/138.0.0.0 Safari/537.36","WebKit","Chrome","138.0.0.0","Windows","10.0","https://app.prolific.com/","en-US,en;q=0.9","67eaee55a9b4d89e82b8df37","686e379bc37a29ffa5cdc956","687767c262cf630ff909e518","1","1","67eaee55a9b4d89e82b8df37","1","1","2025-07-16T09:18:31.218Z","","","","","","","","","","","StressQ","","50","","","","","","","","","","","","","","","","","","","","","","","","","","","","",""
"4067","","<div style=""width:500px;"">
  <p>What best describes how you currently feel?</p>
  </div>","100","html-slider-response","18","402668","0.0-5.0-4.1","87","1","2025-07-16 09:11:15","1f75c3e559b7213887762d5229550c2b","105.245.56.147","Mozilla/5.0 (Windows NT 10.0; Win64; x64) AppleWebKit/537.36 (KHTML, like Gecko) Chrome/138.0.0.0 Safari/537.36","WebKit","Chrome","138.0.0.0","Windows","10.0","https://app.prolific.com/","en-US,en;q=0.9","67eaee55a9b4d89e82b8df37","686e379bc37a29ffa5cdc956","687767c262cf630ff909e518","1","1","67eaee55a9b4d89e82b8df37","1","1","2025-07-16T09:18:35.291Z","","","","","","","","","","","MotivationQ","","50","","","","","","","","","","","","","","","","","","","","","","","","","","","","",""
"","","","","ctl-task-cpt","19","439858","0.0-5.0-0.2","87","1","2025-07-16 09:11:15","1f75c3e559b7213887762d5229550c2b","105.245.56.147","Mozilla/5.0 (Windows NT 10.0; Win64; x64) AppleWebKit/537.36 (KHTML, like Gecko) Chrome/138.0.0.0 Safari/537.36","WebKit","Chrome","138.0.0.0","Windows","10.0","https://app.prolific.com/","en-US,en;q=0.9","67eaee55a9b4d89e82b8df37","686e379bc37a29ffa5cdc956","687767c262cf630ff909e518","1","1","67eaee55a9b4d89e82b8df37","1","1","2025-07-16T09:19:12.480Z","","","","","","","","","","","","","","win-only","1","g1:NE,g2:SW","0.8","3","0","436256.8","2331.5","7342.1","34170.8","1","4","8","6","2","8","7","7","0","0.05303030303030303","1670","3000","1295","[""down"",""left""]","{""num_key_presses"":7,""num_perfect"":5,""num_errors"":1,""num_randdir"":1,""num_randdir_good_moves"":1,""num_whilered"":0,""num_whileblue"":0,""num_blue"":2,""num_good_moves"":6}","[293.22232142857143,289.12857142857143,0.8,293.22232142857143,289.12857142857143,104.3,293.22232142857143,289.12857142857143,213.3,293.22232142857143,289.12857142857143,313.9,293.22232142857143,289.12857142857143,431.7,293.22232142857143,289.12857142857143,533.2,293.22232142857143,289.12857142857143,635.5,293.22232142857143,289.12857142857143,745.7,293.22232142857143,289.12857142857143,847.6,251.22232142857143,326.12857142857143,949.7,64.22232142857143,505.12857142857143,1066.7,24.222321428571426,529.1285714285714,1170.5,22.222321428571426,530.1285714285714,1270.5,29.222321428571426,535.1285714285714,1373.6,31.222321428571426,540.1285714285714,1473.6,31.222321428571426,540.1285714285714,1576.1,31.222321428571426,540.1285714285714,1692,31.222321428571426,540.1285714285714,1794.9,31.222321428571426,540.1285714285714,1901.4,31.222321428571426,540.1285714285714,2022.9,31.222321428571426,540.1285714285714,2124.5,141.22232142857143,489.12857142857143,2228.4,344.22232142857143,456.12857142857143,2337.2,368.22232142857143,485.12857142857143,2441.6,365.22232142857143,493.12857142857143,2560,365.22232142857143,497.12857142857143,2665.2,365.22232142857143,497.12857142857143,2770.2,365.22232142857143,497.12857142857143,2870.6,365.22232142857143,497.12857142857143,2974,365.22232142857143,497.12857142857143,3076.6,365.22232142857143,497.12857142857143,3178.6,365.22232142857143,497.12857142857143,3285.3,365.22232142857143,497.12857142857143,3385.5,365.22232142857143,497.12857142857143,3494.3,365.22232142857143,497.12857142857143,3602.3,365.22232142857143,497.12857142857143,3711.6,365.22232142857143,497.12857142857143,3818.2,365.22232142857143,497.12857142857143,3920,365.22232142857143,497.12857142857143,4024,365.22232142857143,497.12857142857143,4126.9,365.22232142857143,497.12857142857143,4239.1,365.22232142857143,497.12857142857143,4351.8,365.22232142857143,497.12857142857143,4452.5,365.22232142857143,497.12857142857143,4559.1,365.22232142857143,497.12857142857143,4660,365.22232142857143,497.12857142857143,4768.4,365.22232142857143,497.12857142857143,4869.1,365.22232142857143,497.12857142857143,4970]","[1728.5,1728.5,1000,0,728.5,""smooth"",""down"",""down"",""good_move"",4693,2952.6,2462.2,1740.5,490.3,""smooth"",""down"",""down"",""good_move"",7878.2,3180.4,2741.7,4698,438.7,""smooth"",""down"",""down"",""good_move"",9187.5,1304.9,2604.2,7882.6,-1299.3,""error"",""-"",""-"",""no_move"",13826.9,4628.5,3169.1,10199.7,458.2,""oops"",""left"",""left"",""good_move"",20895.9,7066.4,2569.8,17865,461.2,""smooth"",""left"",""left"",""good_move"",26658.5,5759.7,2617.7,23495.8,545.1,""smooth"",""left"",""left"",""good_move""]","",""
"4834","","<div style=""width:500px;"">
  <p>What determined the result of this run?</p>
  </div>","96","html-slider-response","20","444696","0.0-5.0-1.2","87","1","2025-07-16 09:11:15","1f75c3e559b7213887762d5229550c2b","105.245.56.147","Mozilla/5.0 (Windows NT 10.0; Win64; x64) AppleWebKit/537.36 (KHTML, like Gecko) Chrome/138.0.0.0 Safari/537.36","WebKit","Chrome","138.0.0.0","Windows","10.0","https://app.prolific.com/","en-US,en;q=0.9","67eaee55a9b4d89e82b8df37","686e379bc37a29ffa5cdc956","687767c262cf630ff909e518","1","1","67eaee55a9b4d89e82b8df37","1","1","2025-07-16T09:19:17.318Z","","","","","","","","","","","AttribQ","","50","","","","","","","","","","","","","","","","","","","","","","","","","","","","",""
"2940","","<div style=""width:500px;"">
  <p>How much control did you have over the ball?</p>
  </div>","96","html-slider-response","21","447642","0.0-5.0-2.2","87","1","2025-07-16 09:11:15","1f75c3e559b7213887762d5229550c2b","105.245.56.147","Mozilla/5.0 (Windows NT 10.0; Win64; x64) AppleWebKit/537.36 (KHTML, like Gecko) Chrome/138.0.0.0 Safari/537.36","WebKit","Chrome","138.0.0.0","Windows","10.0","https://app.prolific.com/","en-US,en;q=0.9","67eaee55a9b4d89e82b8df37","686e379bc37a29ffa5cdc956","687767c262cf630ff909e518","1","1","67eaee55a9b4d89e82b8df37","1","1","2025-07-16T09:19:20.265Z","","","","","","","","","","","ControlQ","","50","","","","","","","","","","","","","","","","","","","","","","","","","","","","",""
"3036","","<div style=""width:500px;"">
  <p>How would you describe your current emotional state?</p>
  </div>","0","html-slider-response","22","450689","0.0-5.0-3.2","87","1","2025-07-16 09:11:15","1f75c3e559b7213887762d5229550c2b","105.245.56.147","Mozilla/5.0 (Windows NT 10.0; Win64; x64) AppleWebKit/537.36 (KHTML, like Gecko) Chrome/138.0.0.0 Safari/537.36","WebKit","Chrome","138.0.0.0","Windows","10.0","https://app.prolific.com/","en-US,en;q=0.9","67eaee55a9b4d89e82b8df37","686e379bc37a29ffa5cdc956","687767c262cf630ff909e518","1","1","67eaee55a9b4d89e82b8df37","1","1","2025-07-16T09:19:23.311Z","","","","","","","","","","","StressQ","","50","","","","","","","","","","","","","","","","","","","","","","","","","","","","",""
"4537","","<div style=""width:500px;"">
  <p>What best describes how you currently feel?</p>
  </div>","99","html-slider-response","23","455230","0.0-5.0-4.2","87","1","2025-07-16 09:11:15","1f75c3e559b7213887762d5229550c2b","105.245.56.147","Mozilla/5.0 (Windows NT 10.0; Win64; x64) AppleWebKit/537.36 (KHTML, like Gecko) Chrome/138.0.0.0 Safari/537.36","WebKit","Chrome","138.0.0.0","Windows","10.0","https://app.prolific.com/","en-US,en;q=0.9","67eaee55a9b4d89e82b8df37","686e379bc37a29ffa5cdc956","687767c262cf630ff909e518","1","1","67eaee55a9b4d89e82b8df37","1","1","2025-07-16T09:19:27.852Z","","","","","","","","","","","MotivationQ","","50","","","","","","","","","","","","","","","","","","","","","","","","","","","","",""
"","","","","ctl-task-cpt","24","485900","0.0-5.0-0.3","87","1","2025-07-16 09:11:15","1f75c3e559b7213887762d5229550c2b","105.245.56.147","Mozilla/5.0 (Windows NT 10.0; Win64; x64) AppleWebKit/537.36 (KHTML, like Gecko) Chrome/138.0.0.0 Safari/537.36","WebKit","Chrome","138.0.0.0","Windows","10.0","https://app.prolific.com/","en-US,en;q=0.9","67eaee55a9b4d89e82b8df37","686e379bc37a29ffa5cdc956","687767c262cf630ff909e518","1","1","67eaee55a9b4d89e82b8df37","1","1","2025-07-16T09:19:58.522Z","","","","","","","","","","","","","","win-only","3","g1:SW,g2:NE","0.7","4","0","488821","1574.6","6600.9","27642.7","1","4","4","6","1","1","1","8","7","0.06060606060606061","5026.3","3000","1100","[""down"",""left""]","{""num_key_presses"":6,""num_perfect"":4,""num_errors"":0,""num_randdir"":2,""num_randdir_good_moves"":2,""num_whilered"":0,""num_whileblue"":0,""num_blue"":1,""num_good_moves"":5}","[299.22232142857143,293.12857142857143,0.1,299.22232142857143,293.12857142857143,106.4,299.22232142857143,293.12857142857143,208.7,299.22232142857143,293.12857142857143,309.3,299.22232142857143,293.12857142857143,428.3,299.22232142857143,293.12857142857143,544.1,299.22232142857143,293.12857142857143,649.8,299.22232142857143,293.12857142857143,753.1,299.22232142857143,293.12857142857143,857.7,306.22232142857143,286.12857142857143,960.5,500.22232142857143,58.128571428571426,1062.5,528.2223214285714,28.128571428571426,1170.5,528.2223214285714,28.128571428571426,1273,528.2223214285714,42.128571428571426,1382.8,528.2223214285714,42.128571428571426,1495.9,528.2223214285714,42.128571428571426,1603.3,528.2223214285714,42.128571428571426,1704.3,528.2223214285714,42.128571428571426,1806.3,528.2223214285714,42.128571428571426,1911.5,528.2223214285714,42.128571428571426,2012.7,528.2223214285714,42.128571428571426,2113.4,528.2223214285714,42.128571428571426,2214.5,528.2223214285714,42.128571428571426,2315.4,528.2223214285714,42.128571428571426,2421.2,528.2223214285714,42.128571428571426,2524.9,528.2223214285714,42.128571428571426,2625.3,528.2223214285714,46.128571428571426,2728.6,529.2223214285714,55.128571428571426,2831,529.2223214285714,55.128571428571426,2936,529.2223214285714,55.128571428571426,3045.5,529.2223214285714,55.128571428571426,3148.3,529.2223214285714,55.128571428571426,3256.8,522.2223214285714,117.12857142857143,3364.1,470.22232142857143,298.12857142857143,3471.4,463.22232142857143,317.12857142857143,3572.5,463.22232142857143,317.12857142857143,3677.2,463.22232142857143,317.12857142857143,3779.1,463.22232142857143,317.12857142857143,3883.6,463.22232142857143,317.12857142857143,3992.1,463.22232142857143,317.12857142857143,4096.3,463.22232142857143,317.12857142857143,4205.1,463.22232142857143,317.12857142857143,4314.3,463.22232142857143,317.12857142857143,4423.5,463.22232142857143,317.12857142857143,4530.5,463.22232142857143,317.12857142857143,4641.2,463.22232142857143,317.12857142857143,4742.5,463.22232142857143,317.12857142857143,4854.3,463.22232142857143,317.12857142857143,4955.3]","[1603.4,1603.4,1000,0,603.5,""oops"",""up"",""left"",""good_move"",5202.6,3595.2,3130.2,1607.4,465.1,""smooth"",""up"",""up"",""bad_move"",8619,3412,2978.3,5207,433.7,""oops"",""up"",""left"",""good_move"",12977.8,4354.7,2945.2,8623.1,1409.6,""smooth"",""down"",""down"",""good_move"",15406.8,2424.2,1939.3,12982.7,484.9,""smooth"",""down"",""down"",""good_move"",20848.7,5439.2,1787.1,18593.1,468.5,""smooth"",""down"",""down"",""good_move""]","",""
"4937","","<div style=""width:500px;"">
  <p>What determined the result of this run?</p>
  </div>","97","html-slider-response","25","490841","0.0-5.0-1.3","87","1","2025-07-16 09:11:15","1f75c3e559b7213887762d5229550c2b","105.245.56.147","Mozilla/5.0 (Windows NT 10.0; Win64; x64) AppleWebKit/537.36 (KHTML, like Gecko) Chrome/138.0.0.0 Safari/537.36","WebKit","Chrome","138.0.0.0","Windows","10.0","https://app.prolific.com/","en-US,en;q=0.9","67eaee55a9b4d89e82b8df37","686e379bc37a29ffa5cdc956","687767c262cf630ff909e518","1","1","67eaee55a9b4d89e82b8df37","1","1","2025-07-16T09:20:03.463Z","","","","","","","","","","","AttribQ","","50","","","","","","","","","","","","","","","","","","","","","","","","","","","","",""
"2990","","<div style=""width:500px;"">
  <p>How much control did you have over the ball?</p>
  </div>","92","html-slider-response","26","493838","0.0-5.0-2.3","87","1","2025-07-16 09:11:15","1f75c3e559b7213887762d5229550c2b","105.245.56.147","Mozilla/5.0 (Windows NT 10.0; Win64; x64) AppleWebKit/537.36 (KHTML, like Gecko) Chrome/138.0.0.0 Safari/537.36","WebKit","Chrome","138.0.0.0","Windows","10.0","https://app.prolific.com/","en-US,en;q=0.9","67eaee55a9b4d89e82b8df37","686e379bc37a29ffa5cdc956","687767c262cf630ff909e518","1","1","67eaee55a9b4d89e82b8df37","1","1","2025-07-16T09:20:06.461Z","","","","","","","","","","","ControlQ","","50","","","","","","","","","","","","","","","","","","","","","","","","","","","","",""
"3999","","<div style=""width:500px;"">
  <p>How would you describe your current emotional state?</p>
  </div>","0","html-slider-response","27","497846","0.0-5.0-3.3","87","1","2025-07-16 09:11:15","1f75c3e559b7213887762d5229550c2b","105.245.56.147","Mozilla/5.0 (Windows NT 10.0; Win64; x64) AppleWebKit/537.36 (KHTML, like Gecko) Chrome/138.0.0.0 Safari/537.36","WebKit","Chrome","138.0.0.0","Windows","10.0","https://app.prolific.com/","en-US,en;q=0.9","67eaee55a9b4d89e82b8df37","686e379bc37a29ffa5cdc956","687767c262cf630ff909e518","1","1","67eaee55a9b4d89e82b8df37","1","1","2025-07-16T09:20:10.469Z","","","","","","","","","","","StressQ","","50","","","","","","","","","","","","","","","","","","","","","","","","","","","","",""
"5762","","<div style=""width:500px;"">
  <p>What best describes how you currently feel?</p>
  </div>","100","html-slider-response","28","503617","0.0-5.0-4.3","87","1","2025-07-16 09:11:15","1f75c3e559b7213887762d5229550c2b","105.245.56.147","Mozilla/5.0 (Windows NT 10.0; Win64; x64) AppleWebKit/537.36 (KHTML, like Gecko) Chrome/138.0.0.0 Safari/537.36","WebKit","Chrome","138.0.0.0","Windows","10.0","https://app.prolific.com/","en-US,en;q=0.9","67eaee55a9b4d89e82b8df37","686e379bc37a29ffa5cdc956","687767c262cf630ff909e518","1","1","67eaee55a9b4d89e82b8df37","1","1","2025-07-16T09:20:16.240Z","","","","","","","","","","","MotivationQ","","50","","","","","","","","","","","","","","","","","","","","","","","","","","","","",""
"","","","","ctl-task-cpt","29","542352","0.0-5.0-0.4","87","1","2025-07-16 09:11:15","1f75c3e559b7213887762d5229550c2b","105.245.56.147","Mozilla/5.0 (Windows NT 10.0; Win64; x64) AppleWebKit/537.36 (KHTML, like Gecko) Chrome/138.0.0.0 Safari/537.36","WebKit","Chrome","138.0.0.0","Windows","10.0","https://app.prolific.com/","en-US,en;q=0.9","67eaee55a9b4d89e82b8df37","686e379bc37a29ffa5cdc956","687767c262cf630ff909e518","1","1","67eaee55a9b4d89e82b8df37","1","1","2025-07-16T09:20:54.974Z","","","","","","","","","","","","","","win-only","3","g1:SW,g2:NE","0.6","5","0","537206","1877","6883.5","35701.1","1","4","4","6","2","4","4","12","8","0.09090909090909091","2657.3","3000","1080","[""up"",""right""]","{""num_key_presses"":6,""num_perfect"":5,""num_errors"":0,""num_randdir"":1,""num_randdir_good_moves"":1,""num_whilered"":0,""num_whileblue"":0,""num_blue"":3,""num_good_moves"":6}","[292.22232142857143,303.12857142857143,1.6,292.22232142857143,303.12857142857143,101.5,292.22232142857143,303.12857142857143,212.4,292.22232142857143,303.12857142857143,318.9,292.22232142857143,303.12857142857143,421.6,292.22232142857143,303.12857142857143,530.3,292.22232142857143,303.12857142857143,633.9,292.22232142857143,303.12857142857143,740.4,349.22232142857143,235.12857142857143,852.7,413.22232142857143,172.12857142857143,952.8,416.22232142857143,169.12857142857143,1066.3,445.22232142857143,139.12857142857143,1182.7,496.22232142857143,108.12857142857143,1298.7,509.22232142857143,96.12857142857143,1404,510.22232142857143,93.12857142857143,1510.3,510.22232142857143,93.12857142857143,1618.4,510.22232142857143,93.12857142857143,1718.7,510.22232142857143,93.12857142857143,1827.6,510.22232142857143,93.12857142857143,1927.6,510.22232142857143,93.12857142857143,2036.2,510.22232142857143,93.12857142857143,2161.1,513.2223214285714,89.12857142857143,2268.5,523.2223214285714,74.12857142857143,2381.9,523.2223214285714,74.12857142857143,2487.1,523.2223214285714,70.12857142857143,2587.5,523.2223214285714,73.12857142857143,2696,523.2223214285714,73.12857142857143,2805.9,523.2223214285714,73.12857142857143,2906,523.2223214285714,73.12857142857143,3017.6,523.2223214285714,73.12857142857143,3127.7,523.2223214285714,73.12857142857143,3230.7,523.2223214285714,73.12857142857143,3351.9,537.2223214285714,162.12857142857143,3453.7,560.2223214285714,268.12857142857143,3555.5,561.2223214285714,288.12857142857143,3656.4,561.2223214285714,288.12857142857143,3766.6,561.2223214285714,288.12857142857143,3871.7,561.2223214285714,288.12857142857143,3973.5,561.2223214285714,288.12857142857143,4080.9,561.2223214285714,288.12857142857143,4182.9,561.2223214285714,288.12857142857143,4283.3,561.2223214285714,288.12857142857143,4383.6,561.2223214285714,288.12857142857143,4485.6,561.2223214285714,288.12857142857143,4594.7,561.2223214285714,288.12857142857143,4715.9,561.2223214285714,288.12857142857143,4818.9,561.2223214285714,288.12857142857143,4922.7]","[1612.2,1612.2,1000,0,612.2,""smooth"",""up"",""up"",""good_move"",5222.8,3608.3,3146.7,1614.7,461.5,""smooth"",""up"",""up"",""good_move"",12725.7,7502.6,2985.7,9153,587.1,""smooth"",""up"",""up"",""good_move"",16425.5,3694.1,2114.7,12731.5,1579.4,""smooth"",""right"",""right"",""good_move"",26419.3,9989.8,2371.7,23535.9,511.7,""oops"",""right"",""right"",""good_move"",28608,2186.3,1716.9,26421.7,469.4,""smooth"",""right"",""right"",""good_move""]","",""
"4602","","<div style=""width:500px;"">
  <p>What determined the result of this run?</p>
  </div>","99","html-slider-response","30","546962","0.0-5.0-1.4","87","1","2025-07-16 09:11:15","1f75c3e559b7213887762d5229550c2b","105.245.56.147","Mozilla/5.0 (Windows NT 10.0; Win64; x64) AppleWebKit/537.36 (KHTML, like Gecko) Chrome/138.0.0.0 Safari/537.36","WebKit","Chrome","138.0.0.0","Windows","10.0","https://app.prolific.com/","en-US,en;q=0.9","67eaee55a9b4d89e82b8df37","686e379bc37a29ffa5cdc956","687767c262cf630ff909e518","1","1","67eaee55a9b4d89e82b8df37","1","1","2025-07-16T09:20:59.592Z","","","","","","","","","","","AttribQ","","50","","","","","","","","","","","","","","","","","","","","","","","","","","","","",""
"4029","","<div style=""width:500px;"">
  <p>How much control did you have over the ball?</p>
  </div>","97","html-slider-response","31","551008","0.0-5.0-2.4","87","1","2025-07-16 09:11:15","1f75c3e559b7213887762d5229550c2b","105.245.56.147","Mozilla/5.0 (Windows NT 10.0; Win64; x64) AppleWebKit/537.36 (KHTML, like Gecko) Chrome/138.0.0.0 Safari/537.36","WebKit","Chrome","138.0.0.0","Windows","10.0","https://app.prolific.com/","en-US,en;q=0.9","67eaee55a9b4d89e82b8df37","686e379bc37a29ffa5cdc956","687767c262cf630ff909e518","1","1","67eaee55a9b4d89e82b8df37","1","1","2025-07-16T09:21:03.631Z","","","","","","","","","","","ControlQ","","50","","","","","","","","","","","","","","","","","","","","","","","","","","","","",""
"3695","","<div style=""width:500px;"">
  <p>How would you describe your current emotional state?</p>
  </div>","1","html-slider-response","32","554710","0.0-5.0-3.4","87","1","2025-07-16 09:11:15","1f75c3e559b7213887762d5229550c2b","105.245.56.147","Mozilla/5.0 (Windows NT 10.0; Win64; x64) AppleWebKit/537.36 (KHTML, like Gecko) Chrome/138.0.0.0 Safari/537.36","WebKit","Chrome","138.0.0.0","Windows","10.0","https://app.prolific.com/","en-US,en;q=0.9","67eaee55a9b4d89e82b8df37","686e379bc37a29ffa5cdc956","687767c262cf630ff909e518","1","1","67eaee55a9b4d89e82b8df37","1","1","2025-07-16T09:21:07.333Z","","","","","","","","","","","StressQ","","50","","","","","","","","","","","","","","","","","","","","","","","","","","","","",""
"5953","","<div style=""width:500px;"">
  <p>What best describes how you currently feel?</p>
  </div>","96","html-slider-response","33","560670","0.0-5.0-4.4","87","1","2025-07-16 09:11:15","1f75c3e559b7213887762d5229550c2b","105.245.56.147","Mozilla/5.0 (Windows NT 10.0; Win64; x64) AppleWebKit/537.36 (KHTML, like Gecko) Chrome/138.0.0.0 Safari/537.36","WebKit","Chrome","138.0.0.0","Windows","10.0","https://app.prolific.com/","en-US,en;q=0.9","67eaee55a9b4d89e82b8df37","686e379bc37a29ffa5cdc956","687767c262cf630ff909e518","1","1","67eaee55a9b4d89e82b8df37","1","1","2025-07-16T09:21:13.293Z","","","","","","","","","","","MotivationQ","","50","","","","","","","","","","","","","","","","","","","","","","","","","","","","",""
"","","","","ctl-task-cpt","34","610799","0.0-5.0-0.5","87","1","2025-07-16 09:11:15","1f75c3e559b7213887762d5229550c2b","105.245.56.147","Mozilla/5.0 (Windows NT 10.0; Win64; x64) AppleWebKit/537.36 (KHTML, like Gecko) Chrome/138.0.0.0 Safari/537.36","WebKit","Chrome","138.0.0.0","Windows","10.0","https://app.prolific.com/","en-US,en;q=0.9","67eaee55a9b4d89e82b8df37","686e379bc37a29ffa5cdc956","687767c262cf630ff909e518","1","1","67eaee55a9b4d89e82b8df37","1","1","2025-07-16T09:22:03.421Z","","","","","","","","","","","","","","win-only","1","g1:NE,g2:SW","0.5","6","0","594258.4","2684.1","7686.9","47099.3","1","4","8","6","2","8","8","20","12","0.15151515151515152","1672","3000","1115","[""down"",""left""]","{""num_key_presses"":10,""num_perfect"":5,""num_errors"":0,""num_randdir"":5,""num_randdir_good_moves"":3,""num_whilered"":0,""num_whileblue"":0,""num_blue"":3,""num_good_moves"":8}","[295.22232142857143,296.12857142857143,0.9,295.22232142857143,296.12857142857143,102.4,295.22232142857143,296.12857142857143,210.9,295.22232142857143,296.12857142857143,318.1,295.22232142857143,296.12857142857143,433.2,295.22232142857143,296.12857142857143,534,295.22232142857143,296.12857142857143,634.2,295.22232142857143,296.12857142857143,740.2,272.22232142857143,315.12857142857143,850.6,157.22232142857143,446.12857142857143,953.3,116.22232142857143,488.12857142857143,1054.8,97.22232142857143,497.12857142857143,1168.8,78.22232142857143,516.1285714285714,1270.9,53.222321428571426,532.1285714285714,1382,52.222321428571426,532.1285714285714,1489.7,52.222321428571426,532.1285714285714,1594.1,52.222321428571426,532.1285714285714,1707.1,52.222321428571426,532.1285714285714,1820.4,52.222321428571426,532.1285714285714,1929.4,52.222321428571426,532.1285714285714,2031.9,52.222321428571426,532.1285714285714,2132.3,52.222321428571426,532.1285714285714,2255.2,52.222321428571426,532.1285714285714,2371.9,52.222321428571426,532.1285714285714,2477.9,54.222321428571426,564.1285714285714,2584,97.22232142857143,650.1285714285714,2692,97.22232142857143,650.1285714285714,2807.8,97.22232142857143,650.1285714285714,2914.7,97.22232142857143,650.1285714285714,3018.7,97.22232142857143,650.1285714285714,3135.3,97.22232142857143,650.1285714285714,3242.2,97.22232142857143,650.1285714285714,3342.6,97.22232142857143,650.1285714285714,3450.2,97.22232142857143,650.1285714285714,3557.8,97.22232142857143,650.1285714285714,3660.7,97.22232142857143,650.1285714285714,3767.1,97.22232142857143,650.1285714285714,3870.4,97.22232142857143,650.1285714285714,3976.7,97.22232142857143,650.1285714285714,4082.5,97.22232142857143,650.1285714285714,4188.5,97.22232142857143,650.1285714285714,4292,97.22232142857143,650.1285714285714,4405.5,97.22232142857143,650.1285714285714,4506.2,97.22232142857143,650.1285714285714,4615.1,97.22232142857143,650.1285714285714,4719.6,97.22232142857143,650.1285714285714,4821.3,97.22232142857143,650.1285714285714,4928.1]","[1619.2,1619.2,1000,0,619.2,""oops"",""down"",""left"",""good_move"",8251.6,6628.3,2249.2,5488.9,513.5,""oops"",""down"",""left"",""good_move"",14225,5973.2,1779.9,11968.4,476.7,""oops"",""down"",""right"",""bad_move"",17624.2,3392.3,2881.3,14232,510.9,""smooth"",""down"",""down"",""good_move"",20791.7,3158.6,2646.8,17633.3,511.7,""smooth"",""down"",""down"",""good_move"",27060.6,6265.8,2230.9,24314.4,515.3,""oops"",""down"",""down"",""good_move"",29743.1,2681.5,1873.7,27061.6,807.8,""oops"",""left"",""right"",""bad_move"",32914.7,3166.7,2636,29748,530.7,""smooth"",""left"",""left"",""good_move"",36357.8,3437.8,2848.8,32920.1,589,""smooth"",""left"",""left"",""good_move"",39160.1,2798.8,2126.6,36361.4,672.2,""smooth"",""left"",""left"",""good_move""]","",""
"24262","","<div style=""width:500px;"">
  <p>What determined the result of this run?</p>
  </div>","99","html-slider-response","35","635065","0.0-5.0-1.5","87","1","2025-07-16 09:11:15","1f75c3e559b7213887762d5229550c2b","105.245.56.147","Mozilla/5.0 (Windows NT 10.0; Win64; x64) AppleWebKit/537.36 (KHTML, like Gecko) Chrome/138.0.0.0 Safari/537.36","WebKit","Chrome","138.0.0.0","Windows","10.0","https://app.prolific.com/","en-US,en;q=0.9","67eaee55a9b4d89e82b8df37","686e379bc37a29ffa5cdc956","687767c262cf630ff909e518","1","1","67eaee55a9b4d89e82b8df37","1","1","2025-07-16T09:22:27.687Z","","","","","","","","","","","AttribQ","","50","","","","","","","","","","","","","","","","","","","","","","","","","","","","",""
"7454","","<div style=""width:500px;"">
  <p>How much control did you have over the ball?</p>
  </div>","91","html-slider-response","36","642523","0.0-5.0-2.5","87","1","2025-07-16 09:11:15","1f75c3e559b7213887762d5229550c2b","105.245.56.147","Mozilla/5.0 (Windows NT 10.0; Win64; x64) AppleWebKit/537.36 (KHTML, like Gecko) Chrome/138.0.0.0 Safari/537.36","WebKit","Chrome","138.0.0.0","Windows","10.0","https://app.prolific.com/","en-US,en;q=0.9","67eaee55a9b4d89e82b8df37","686e379bc37a29ffa5cdc956","687767c262cf630ff909e518","1","1","67eaee55a9b4d89e82b8df37","1","1","2025-07-16T09:22:35.146Z","","","","","","","","","","","ControlQ","","50","","","","","","","","","","","","","","","","","","","","","","","","","","","","",""
"2902","","<div style=""width:500px;"">
  <p>How would you describe your current emotional state?</p>
  </div>","0","html-slider-response","37","645433","0.0-5.0-3.5","87","1","2025-07-16 09:11:15","1f75c3e559b7213887762d5229550c2b","105.245.56.147","Mozilla/5.0 (Windows NT 10.0; Win64; x64) AppleWebKit/537.36 (KHTML, like Gecko) Chrome/138.0.0.0 Safari/537.36","WebKit","Chrome","138.0.0.0","Windows","10.0","https://app.prolific.com/","en-US,en;q=0.9","67eaee55a9b4d89e82b8df37","686e379bc37a29ffa5cdc956","687767c262cf630ff909e518","1","1","67eaee55a9b4d89e82b8df37","1","1","2025-07-16T09:22:38.056Z","","","","","","","","","","","StressQ","","50","","","","","","","","","","","","","","","","","","","","","","","","","","","","",""
"3133","","<div style=""width:500px;"">
  <p>What best describes how you currently feel?</p>
  </div>","94","html-slider-response","38","648571","0.0-5.0-4.5","87","1","2025-07-16 09:11:15","1f75c3e559b7213887762d5229550c2b","105.245.56.147","Mozilla/5.0 (Windows NT 10.0; Win64; x64) AppleWebKit/537.36 (KHTML, like Gecko) Chrome/138.0.0.0 Safari/537.36","WebKit","Chrome","138.0.0.0","Windows","10.0","https://app.prolific.com/","en-US,en;q=0.9","67eaee55a9b4d89e82b8df37","686e379bc37a29ffa5cdc956","687767c262cf630ff909e518","1","1","67eaee55a9b4d89e82b8df37","1","1","2025-07-16T09:22:41.194Z","","","","","","","","","","","MotivationQ","","50","","","","","","","","","","","","","","","","","","","","","","","","","","","","",""
"","","","","ctl-task-cpt","39","688433","0.0-5.0-0.6","87","1","2025-07-16 09:11:15","1f75c3e559b7213887762d5229550c2b","105.245.56.147","Mozilla/5.0 (Windows NT 10.0; Win64; x64) AppleWebKit/537.36 (KHTML, like Gecko) Chrome/138.0.0.0 Safari/537.36","WebKit","Chrome","138.0.0.0","Windows","10.0","https://app.prolific.com/","en-US,en;q=0.9","67eaee55a9b4d89e82b8df37","686e379bc37a29ffa5cdc956","687767c262cf630ff909e518","1","1","67eaee55a9b4d89e82b8df37","1","1","2025-07-16T09:23:21.055Z","","","","","","","","","","","","","","win-only","2","g1:SE,g2:NW","0.4","7","0","682162.3","1935.8","6941.8","36813","1","4","8","6","2","8","8","28","20","0.21212121212121213","1649.8","3000","1680","[""left"",""up""]","{""num_key_presses"":8,""num_perfect"":4,""num_errors"":0,""num_randdir"":4,""num_randdir_good_moves"":3,""num_whilered"":0,""num_whileblue"":0,""num_blue"":1,""num_good_moves"":7}","[298.22232142857143,288.12857142857143,1.1,298.22232142857143,288.12857142857143,107.6,298.22232142857143,288.12857142857143,232.9,298.22232142857143,288.12857142857143,348.8,298.22232142857143,288.12857142857143,456.1,298.22232142857143,288.12857142857143,566.5,298.22232142857143,288.12857142857143,680.5,95.22232142857143,166.12857142857143,804.1,81.22232142857143,140.12857142857143,913.3,81.22232142857143,140.12857142857143,1019.7,65.22232142857143,97.12857142857143,1127.7,61.222321428571426,84.12857142857143,1253.2,61.222321428571426,77.12857142857143,1372.8,61.222321428571426,77.12857142857143,1479.8,61.222321428571426,77.12857142857143,1579.9,61.222321428571426,77.12857142857143,1681.3,61.222321428571426,77.12857142857143,1806,61.222321428571426,77.12857142857143,1913.1,61.222321428571426,77.12857142857143,2018.9,61.222321428571426,77.12857142857143,2128.6,61.222321428571426,77.12857142857143,2242.4,101.22232142857143,243.12857142857143,2347.6,126.22232142857143,319.12857142857143,2451.9,126.22232142857143,319.12857142857143,2563.5,126.22232142857143,319.12857142857143,2673.1,126.22232142857143,319.12857142857143,2783.5,126.22232142857143,319.12857142857143,2887.3,126.22232142857143,319.12857142857143,2991.1,126.22232142857143,319.12857142857143,3112.2,126.22232142857143,319.12857142857143,3221.6,126.22232142857143,319.12857142857143,3342,126.22232142857143,319.12857142857143,3448.9,126.22232142857143,319.12857142857143,3556.2,126.22232142857143,319.12857142857143,3663.6,126.22232142857143,319.12857142857143,3772.7,126.22232142857143,319.12857142857143,3881.3,126.22232142857143,319.12857142857143,3983.4,126.22232142857143,319.12857142857143,4084.6,126.22232142857143,319.12857142857143,4197.9,126.22232142857143,319.12857142857143,4312,126.22232142857143,319.12857142857143,4420.9,126.22232142857143,319.12857142857143,4533.4,126.22232142857143,319.12857142857143,4638.2,126.22232142857143,319.12857142857143,4745.6,126.22232142857143,319.12857142857143,4849.6,126.22232142857143,319.12857142857143,4950.8]","[1599.6,1599.6,1000,0,599.6,""smooth"",""up"",""up"",""good_move"",4733.1,3129.7,2661.8,1603.4,467.9,""oops"",""up"",""up"",""good_move"",12375.5,7642.4,3433.6,8320.9,621,""smooth"",""up"",""up"",""good_move"",15818.7,3440.4,2854.2,12378.3,586.2,""smooth"",""left"",""left"",""good_move"",19406.4,3583.3,2952.5,15823.1,630.8,""oops"",""left"",""down"",""bad_move"",22200.9,2765,2298.9,19436,466.1,""oops"",""up"",""up"",""good_move"",26015.2,3809.7,2794.2,22205.5,1015.5,""oops"",""left"",""left"",""good_move"",29529.9,3511.1,2755.1,26018.8,756,""smooth"",""left"",""left"",""good_move""]","",""
"8740","","<div style=""width:500px;"">
  <p>What determined the result of this run?</p>
  </div>","99","html-slider-response","40","697176","0.0-5.0-1.6","87","1","2025-07-16 09:11:15","1f75c3e559b7213887762d5229550c2b","105.245.56.147","Mozilla/5.0 (Windows NT 10.0; Win64; x64) AppleWebKit/537.36 (KHTML, like Gecko) Chrome/138.0.0.0 Safari/537.36","WebKit","Chrome","138.0.0.0","Windows","10.0","https://app.prolific.com/","en-US,en;q=0.9","67eaee55a9b4d89e82b8df37","686e379bc37a29ffa5cdc956","687767c262cf630ff909e518","1","1","67eaee55a9b4d89e82b8df37","1","1","2025-07-16T09:23:29.798Z","","","","","","","","","","","AttribQ","","50","","","","","","","","","","","","","","","","","","","","","","","","","","","","",""
"6187","","<div style=""width:500px;"">
  <p>How much control did you have over the ball?</p>
  </div>","96","html-slider-response","41","703368","0.0-5.0-2.6","87","1","2025-07-16 09:11:15","1f75c3e559b7213887762d5229550c2b","105.245.56.147","Mozilla/5.0 (Windows NT 10.0; Win64; x64) AppleWebKit/537.36 (KHTML, like Gecko) Chrome/138.0.0.0 Safari/537.36","WebKit","Chrome","138.0.0.0","Windows","10.0","https://app.prolific.com/","en-US,en;q=0.9","67eaee55a9b4d89e82b8df37","686e379bc37a29ffa5cdc956","687767c262cf630ff909e518","1","1","67eaee55a9b4d89e82b8df37","1","1","2025-07-16T09:23:35.991Z","","","","","","","","","","","ControlQ","","50","","","","","","","","","","","","","","","","","","","","","","","","","","","","",""
"4405","","<div style=""width:500px;"">
  <p>How would you describe your current emotional state?</p>
  </div>","2","html-slider-response","42","707780","0.0-5.0-3.6","87","1","2025-07-16 09:11:15","1f75c3e559b7213887762d5229550c2b","105.245.56.147","Mozilla/5.0 (Windows NT 10.0; Win64; x64) AppleWebKit/537.36 (KHTML, like Gecko) Chrome/138.0.0.0 Safari/537.36","WebKit","Chrome","138.0.0.0","Windows","10.0","https://app.prolific.com/","en-US,en;q=0.9","67eaee55a9b4d89e82b8df37","686e379bc37a29ffa5cdc956","687767c262cf630ff909e518","1","1","67eaee55a9b4d89e82b8df37","1","1","2025-07-16T09:23:40.402Z","","","","","","","","","","","StressQ","","50","","","","","","","","","","","","","","","","","","","","","","","","","","","","",""
"3523","","<div style=""width:500px;"">
  <p>What best describes how you currently feel?</p>
  </div>","100","html-slider-response","43","711310","0.0-5.0-4.6","87","1","2025-07-16 09:11:15","1f75c3e559b7213887762d5229550c2b","105.245.56.147","Mozilla/5.0 (Windows NT 10.0; Win64; x64) AppleWebKit/537.36 (KHTML, like Gecko) Chrome/138.0.0.0 Safari/537.36","WebKit","Chrome","138.0.0.0","Windows","10.0","https://app.prolific.com/","en-US,en;q=0.9","67eaee55a9b4d89e82b8df37","686e379bc37a29ffa5cdc956","687767c262cf630ff909e518","1","1","67eaee55a9b4d89e82b8df37","1","1","2025-07-16T09:23:43.933Z","","","","","","","","","","","MotivationQ","","50","","","","","","","","","","","","","","","","","","","","","","","","","","","","",""
"","","","","ctl-task-cpt","44","825700","0.0-5.0-0.7","87","1","2025-07-16 09:11:15","1f75c3e559b7213887762d5229550c2b","105.245.56.147","Mozilla/5.0 (Windows NT 10.0; Win64; x64) AppleWebKit/537.36 (KHTML, like Gecko) Chrome/138.0.0.0 Safari/537.36","WebKit","Chrome","138.0.0.0","Windows","10.0","https://app.prolific.com/","en-US,en;q=0.9","67eaee55a9b4d89e82b8df37","686e379bc37a29ffa5cdc956","687767c262cf630ff909e518","1","1","67eaee55a9b4d89e82b8df37","1","1","2025-07-16T09:25:38.323Z","","","","","","","","","","","","","","win-only","2","g1:SE,g2:NW","0.3","8","0","744896.6","2144.9","7166","111346.6","1","4","4","6","2","-4","-4","24","28","0.18181818181818182","2475.7","3000","-840","[""left"",""up""]","{""num_key_presses"":18,""num_perfect"":6,""num_errors"":0,""num_randdir"":12,""num_randdir_good_moves"":4,""num_whilered"":0,""num_whileblue"":0,""num_blue"":13,""num_good_moves"":10}","[297.22232142857143,296.12857142857143,7.6,297.22232142857143,296.12857142857143,110.7,297.22232142857143,296.12857142857143,223,297.22232142857143,296.12857142857143,354.3,297.22232142857143,296.12857142857143,454.9,297.22232142857143,296.12857142857143,569.8,297.22232142857143,296.12857142857143,676.1,297.22232142857143,296.12857142857143,784,297.22232142857143,296.12857142857143,890.7,297.22232142857143,296.12857142857143,1000.8,297.22232142857143,296.12857142857143,1101.7,297.22232142857143,296.12857142857143,1204.4,297.22232142857143,296.12857142857143,1318.4,243.22232142857143,270.12857142857143,1427.6,135.22232142857143,168.12857142857143,1534.3,135.22232142857143,166.12857142857143,1641.8,127.22232142857143,148.12857142857143,1749.4,93.22232142857143,111.12857142857143,1851.5,83.22232142857143,107.12857142857143,1975.3,73.22232142857143,73.12857142857143,2091.2,71.22232142857143,72.12857142857143,2194.6,71.22232142857143,72.12857142857143,2296.1,71.22232142857143,72.12857142857143,2396.1,71.22232142857143,72.12857142857143,2504.7,71.22232142857143,72.12857142857143,2622.2,71.22232142857143,72.12857142857143,2735.9,71.22232142857143,72.12857142857143,2838,71.22232142857143,72.12857142857143,2953.5,162.22232142857143,133.12857142857143,3075.6,305.22232142857143,374.12857142857143,3177.1,319.22232142857143,414.12857142857143,3286.4,319.22232142857143,414.12857142857143,3390,319.22232142857143,414.12857142857143,3499.4,319.22232142857143,414.12857142857143,3601.1,319.22232142857143,414.12857142857143,3716.8,319.22232142857143,414.12857142857143,3818.5,319.22232142857143,414.12857142857143,3918.6,319.22232142857143,414.12857142857143,4025.5,319.22232142857143,414.12857142857143,4136.1,319.22232142857143,414.12857142857143,4244.9,319.22232142857143,414.12857142857143,4353.6,319.22232142857143,414.12857142857143,4462.7,319.22232142857143,414.12857142857143,4566.7,319.22232142857143,414.12857142857143,4670.1,319.22232142857143,414.12857142857143,4783.1,319.22232142857143,414.12857142857143,4887.5,319.22232142857143,414.12857142857143,4991.5]","[5339.3,5339.3,2505.5,2031.5,802.3,""oops"",""up"",""right"",""bad_move"",7221.8,1878.3,1228.8,5343.5,649.5,""smooth"",""up"",""up"",""good_move"",10873.7,3647.4,3016.5,7226.3,630.9,""smooth"",""up"",""up"",""good_move"",20506.4,9631.2,2094,17923.7,488.7,""oops"",""up"",""up"",""good_move"",23917.6,3406.2,2847.9,20511.5,558.3,""oops"",""left"",""left"",""good_move"",27391.7,3467.4,2320.1,23924.3,1147.3,""oops"",""left"",""right"",""bad_move"",30574.2,3175.7,2618.2,27398.5,557.6,""oops"",""left"",""right"",""bad_move"",33626,3049,2591.9,30577.1,457,""smooth"",""left"",""left"",""good_move"",39956.6,6326.4,1785.4,37667.5,503.7,""oops"",""left"",""right"",""bad_move"",50115.7,10154.9,2214.3,47395,506.4,""oops"",""left"",""down"",""bad_move"",53280.8,3156.4,1940.6,50124.4,1215.8,""smooth"",""up"",""up"",""good_move"",57084.8,3772.4,1734,53312.4,2038.4,""oops"",""left"",""down"",""bad_move"",66549.3,9461.4,2188.1,63871.7,489.5,""smooth"",""left"",""left"",""good_move"",76865.8,10309,2426.8,73986.4,452.6,""oops"",""left"",""right"",""bad_move"",83384.1,6515.4,2143.4,80656.6,584.1,""oops"",""left"",""left"",""good_move"",93812,10426.4,2394.4,90954.3,463.3,""smooth"",""left"",""left"",""good_move"",97356,3514.7,3044.6,93841.4,470.1,""oops"",""left"",""up"",""good_move"",100789.7,3429.2,2357.6,97360.5,1071.6,""oops"",""left"",""down"",""bad_move""]","",""
"5023","","<div style=""width:500px;"">
  <p>What determined the result of this run?</p>
  </div>","54","html-slider-response","45","830729","0.0-5.0-1.7","87","1","2025-07-16 09:11:15","1f75c3e559b7213887762d5229550c2b","105.245.56.147","Mozilla/5.0 (Windows NT 10.0; Win64; x64) AppleWebKit/537.36 (KHTML, like Gecko) Chrome/138.0.0.0 Safari/537.36","WebKit","Chrome","138.0.0.0","Windows","10.0","https://app.prolific.com/","en-US,en;q=0.9","67eaee55a9b4d89e82b8df37","686e379bc37a29ffa5cdc956","687767c262cf630ff909e518","1","1","67eaee55a9b4d89e82b8df37","1","1","2025-07-16T09:25:43.351Z","","","","","","","","","","","AttribQ","","50","","","","","","","","","","","","","","","","","","","","","","","","","","","","",""
"3844","","<div style=""width:500px;"">
  <p>How much control did you have over the ball?</p>
  </div>","68","html-slider-response","46","834580","0.0-5.0-2.7","87","1","2025-07-16 09:11:15","1f75c3e559b7213887762d5229550c2b","105.245.56.147","Mozilla/5.0 (Windows NT 10.0; Win64; x64) AppleWebKit/537.36 (KHTML, like Gecko) Chrome/138.0.0.0 Safari/537.36","WebKit","Chrome","138.0.0.0","Windows","10.0","https://app.prolific.com/","en-US,en;q=0.9","67eaee55a9b4d89e82b8df37","686e379bc37a29ffa5cdc956","687767c262cf630ff909e518","1","1","67eaee55a9b4d89e82b8df37","1","1","2025-07-16T09:25:47.203Z","","","","","","","","","","","ControlQ","","50","","","","","","","","","","","","","","","","","","","","","","","","","","","","",""
"8798","","<div style=""width:500px;"">
  <p>How would you describe your current emotional state?</p>
  </div>","1","html-slider-response","47","843384","0.0-5.0-3.7","87","1","2025-07-16 09:11:15","1f75c3e559b7213887762d5229550c2b","105.245.56.147","Mozilla/5.0 (Windows NT 10.0; Win64; x64) AppleWebKit/537.36 (KHTML, like Gecko) Chrome/138.0.0.0 Safari/537.36","WebKit","Chrome","138.0.0.0","Windows","10.0","https://app.prolific.com/","en-US,en;q=0.9","67eaee55a9b4d89e82b8df37","686e379bc37a29ffa5cdc956","687767c262cf630ff909e518","1","1","67eaee55a9b4d89e82b8df37","1","1","2025-07-16T09:25:56.006Z","","","","","","","","","","","StressQ","","50","","","","","","","","","","","","","","","","","","","","","","","","","","","","",""
"5214","","<div style=""width:500px;"">
  <p>What best describes how you currently feel?</p>
  </div>","75","html-slider-response","48","848603","0.0-5.0-4.7","87","1","2025-07-16 09:11:15","1f75c3e559b7213887762d5229550c2b","105.245.56.147","Mozilla/5.0 (Windows NT 10.0; Win64; x64) AppleWebKit/537.36 (KHTML, like Gecko) Chrome/138.0.0.0 Safari/537.36","WebKit","Chrome","138.0.0.0","Windows","10.0","https://app.prolific.com/","en-US,en;q=0.9","67eaee55a9b4d89e82b8df37","686e379bc37a29ffa5cdc956","687767c262cf630ff909e518","1","1","67eaee55a9b4d89e82b8df37","1","1","2025-07-16T09:26:01.226Z","","","","","","","","","","","MotivationQ","","50","","","","","","","","","","","","","","","","","","","","","","","","","","","","",""
"","","","","ctl-task-cpt","49","887786","0.0-5.0-0.8","87","1","2025-07-16 09:11:15","1f75c3e559b7213887762d5229550c2b","105.245.56.147","Mozilla/5.0 (Windows NT 10.0; Win64; x64) AppleWebKit/537.36 (KHTML, like Gecko) Chrome/138.0.0.0 Safari/537.36","WebKit","Chrome","138.0.0.0","Windows","10.0","https://app.prolific.com/","en-US,en;q=0.9","67eaee55a9b4d89e82b8df37","686e379bc37a29ffa5cdc956","687767c262cf630ff909e518","1","1","67eaee55a9b4d89e82b8df37","1","1","2025-07-16T09:26:40.409Z","","","","","","","","","","","","","","win-only","3","g1:SW,g2:NE","0.2","9","0","882190.8","2015","7024.1","36151.1","1","4","4","6","1","1","1","25","24","0.1893939393939394","1889.4","3000","1995","[""down"",""left""]","{""num_key_presses"":6,""num_perfect"":1,""num_errors"":0,""num_randdir"":5,""num_randdir_good_moves"":4,""num_whilered"":0,""num_whileblue"":0,""num_blue"":2,""num_good_moves"":5}","[294.22232142857143,294.12857142857143,1.1,294.22232142857143,294.12857142857143,116.3,294.22232142857143,294.12857142857143,228.6,294.22232142857143,294.12857142857143,334.4,294.22232142857143,294.12857142857143,435.8,294.22232142857143,294.12857142857143,552.7,294.22232142857143,294.12857142857143,654.4,294.22232142857143,294.12857142857143,777.3,294.22232142857143,294.12857142857143,879.6,294.22232142857143,294.12857142857143,992.7,279.22232142857143,310.12857142857143,1095.9,131.22232142857143,498.12857142857143,1230,90.22232142857143,542.1285714285714,1346.7,73.22232142857143,544.1285714285714,1455,69.22232142857143,546.1285714285714,1574.1,66.22232142857143,546.1285714285714,1688.3,66.22232142857143,546.1285714285714,1805.9,66.22232142857143,546.1285714285714,1916.5,66.22232142857143,546.1285714285714,2045.5,66.22232142857143,546.1285714285714,2157.1,66.22232142857143,546.1285714285714,2272.8,66.22232142857143,546.1285714285714,2387.4,81.22232142857143,542.1285714285714,2490.1,238.22232142857143,552.1285714285714,2607.8,251.22232142857143,611.1285714285714,2717.6,201.22232142857143,651.1285714285714,2818.7,199.22232142857143,651.1285714285714,2934.8,199.22232142857143,651.1285714285714,3040.5,199.22232142857143,651.1285714285714,3156.3,199.22232142857143,651.1285714285714,3258.1,199.22232142857143,651.1285714285714,3377.8,199.22232142857143,651.1285714285714,3484.2,199.22232142857143,651.1285714285714,3587.7,199.22232142857143,651.1285714285714,3687.8,199.22232142857143,651.1285714285714,3794,199.22232142857143,651.1285714285714,3897.4,199.22232142857143,651.1285714285714,4015.1,199.22232142857143,651.1285714285714,4126.8,199.22232142857143,651.1285714285714,4235.8,199.22232142857143,651.1285714285714,4344.8,199.22232142857143,651.1285714285714,4455.5,199.22232142857143,651.1285714285714,4560.9,199.22232142857143,651.1285714285714,4669.8,199.22232142857143,651.1285714285714,4773,199.22232142857143,651.1285714285714,4879.1,199.22232142857143,651.1285714285714,4980.4]","[1574.8,1574.8,1000,0,574.8,""oops"",""down"",""up"",""bad_move"",6438.3,4859,1639.7,1579.4,3219.3,""oops"",""down"",""down"",""good_move"",13570.6,7128,2686.8,10390.2,493.7,""oops"",""down"",""left"",""good_move"",21012.4,7440.9,2231.7,18247.8,534.8,""oops"",""down"",""left"",""good_move"",24951.6,3915.2,2233.8,21036.4,1681.4,""smooth"",""down"",""down"",""good_move"",28776.4,3791.3,2950.2,24985.1,841.1,""oops"",""down"",""down"",""good_move""]","",""
"7200","","<div style=""width:500px;"">
  <p>What determined the result of this run?</p>
  </div>","87","html-slider-response","50","894994","0.0-5.0-1.8","87","1","2025-07-16 09:11:15","1f75c3e559b7213887762d5229550c2b","105.245.56.147","Mozilla/5.0 (Windows NT 10.0; Win64; x64) AppleWebKit/537.36 (KHTML, like Gecko) Chrome/138.0.0.0 Safari/537.36","WebKit","Chrome","138.0.0.0","Windows","10.0","https://app.prolific.com/","en-US,en;q=0.9","67eaee55a9b4d89e82b8df37","686e379bc37a29ffa5cdc956","687767c262cf630ff909e518","1","1","67eaee55a9b4d89e82b8df37","1","1","2025-07-16T09:26:47.616Z","","","","","","","","","","","AttribQ","","50","","","","","","","","","","","","","","","","","","","","","","","","","","","","",""
"4482","","<div style=""width:500px;"">
  <p>How much control did you have over the ball?</p>
  </div>","95","html-slider-response","51","899481","0.0-5.0-2.8","87","1","2025-07-16 09:11:15","1f75c3e559b7213887762d5229550c2b","105.245.56.147","Mozilla/5.0 (Windows NT 10.0; Win64; x64) AppleWebKit/537.36 (KHTML, like Gecko) Chrome/138.0.0.0 Safari/537.36","WebKit","Chrome","138.0.0.0","Windows","10.0","https://app.prolific.com/","en-US,en;q=0.9","67eaee55a9b4d89e82b8df37","686e379bc37a29ffa5cdc956","687767c262cf630ff909e518","1","1","67eaee55a9b4d89e82b8df37","1","1","2025-07-16T09:26:52.104Z","","","","","","","","","","","ControlQ","","50","","","","","","","","","","","","","","","","","","","","","","","","","","","","",""
"8745","","<div style=""width:500px;"">
  <p>How would you describe your current emotional state?</p>
  </div>","0","html-slider-response","52","908236","0.0-5.0-3.8","87","1","2025-07-16 09:11:15","1f75c3e559b7213887762d5229550c2b","105.245.56.147","Mozilla/5.0 (Windows NT 10.0; Win64; x64) AppleWebKit/537.36 (KHTML, like Gecko) Chrome/138.0.0.0 Safari/537.36","WebKit","Chrome","138.0.0.0","Windows","10.0","https://app.prolific.com/","en-US,en;q=0.9","67eaee55a9b4d89e82b8df37","686e379bc37a29ffa5cdc956","687767c262cf630ff909e518","1","1","67eaee55a9b4d89e82b8df37","1","1","2025-07-16T09:27:00.860Z","","","","","","","","","","","StressQ","","50","","","","","","","","","","","","","","","","","","","","","","","","","","","","",""
"10661","","<div style=""width:500px;"">
  <p>What best describes how you currently feel?</p>
  </div>","91","html-slider-response","53","918907","0.0-5.0-4.8","87","1","2025-07-16 09:11:15","1f75c3e559b7213887762d5229550c2b","105.245.56.147","Mozilla/5.0 (Windows NT 10.0; Win64; x64) AppleWebKit/537.36 (KHTML, like Gecko) Chrome/138.0.0.0 Safari/537.36","WebKit","Chrome","138.0.0.0","Windows","10.0","https://app.prolific.com/","en-US,en;q=0.9","67eaee55a9b4d89e82b8df37","686e379bc37a29ffa5cdc956","687767c262cf630ff909e518","1","1","67eaee55a9b4d89e82b8df37","1","1","2025-07-16T09:27:11.531Z","","","","","","","","","","","MotivationQ","","50","","","","","","","","","","","","","","","","","","","","","","","","","","","","",""
"","","","","ctl-task-cpt","54","989149","0.0-5.0-0.9","87","1","2025-07-16 09:11:15","1f75c3e559b7213887762d5229550c2b","105.245.56.147","Mozilla/5.0 (Windows NT 10.0; Win64; x64) AppleWebKit/537.36 (KHTML, like Gecko) Chrome/138.0.0.0 Safari/537.36","WebKit","Chrome","138.0.0.0","Windows","10.0","https://app.prolific.com/","en-US,en;q=0.9","67eaee55a9b4d89e82b8df37","686e379bc37a29ffa5cdc956","687767c262cf630ff909e518","1","1","67eaee55a9b4d89e82b8df37","1","1","2025-07-16T09:28:21.771Z","","","","","","","","","","","","","","win-only","1","g1:NE,g2:SW","0.4","10","0","952497.9","2828.1","7850.2","67192.6","1","4","8","6","2","8","8","33","25","0.25","3079.3","3000","730","[""down"",""left""]","{""num_key_presses"":12,""num_perfect"":6,""num_errors"":0,""num_randdir"":6,""num_randdir_good_moves"":3,""num_whilered"":0,""num_whileblue"":0,""num_blue"":3,""num_good_moves"":9}","[298.22232142857143,293.12857142857143,11,298.22232142857143,293.12857142857143,112.9,298.22232142857143,293.12857142857143,232.7,298.22232142857143,293.12857142857143,334.7,298.22232142857143,293.12857142857143,450.8,298.22232142857143,293.12857142857143,553.8,298.22232142857143,293.12857142857143,658,298.22232142857143,293.12857142857143,765.6,298.22232142857143,293.12857142857143,882.7,298.22232142857143,293.12857142857143,984.5,298.22232142857143,293.12857142857143,1089.1,298.22232142857143,293.12857142857143,1201.4,298.22232142857143,293.12857142857143,1314.5,298.22232142857143,293.12857142857143,1435.6,298.22232142857143,293.12857142857143,1554.8,298.22232142857143,293.12857142857143,1667.6,298.22232142857143,293.12857142857143,1781.1,298.22232142857143,293.12857142857143,1891.3,298.22232142857143,293.12857142857143,2005.4,298.22232142857143,293.12857142857143,2117.2,293.22232142857143,293.12857142857143,2217.8,117.22232142857143,396.12857142857143,2344.9,77.22232142857143,441.12857142857143,2465,74.22232142857143,467.12857142857143,2565.4,65.22232142857143,507.12857142857143,2674.7,63.222321428571426,517.1285714285714,2790.7,63.222321428571426,521.1285714285714,2901.5,63.222321428571426,521.1285714285714,3002.1,63.222321428571426,521.1285714285714,3105.8,63.222321428571426,521.1285714285714,3223.6,63.222321428571426,521.1285714285714,3341.8,63.222321428571426,521.1285714285714,3458.2,63.222321428571426,521.1285714285714,3573.2,63.222321428571426,521.1285714285714,3687.3,145.22232142857143,479.12857142857143,3795.7,392.22232142857143,414.12857142857143,3902.3,402.22232142857143,411.12857142857143,4015.4,402.22232142857143,411.12857142857143,4124.5,402.22232142857143,411.12857142857143,4231.4,402.22232142857143,411.12857142857143,4333,402.22232142857143,411.12857142857143,4442,402.22232142857143,411.12857142857143,4543.5,402.22232142857143,411.12857142857143,4664.3,402.22232142857143,411.12857142857143,4776.7,402.22232142857143,411.12857142857143,4886.8,402.22232142857143,411.12857142857143,4998.4]","[1752.3,1752.3,1000,0,752.3,""smooth"",""down"",""down"",""good_move"",9323.7,7530,2563.9,6232.6,527.2,""oops"",""down"",""down"",""good_move"",12368.1,3041.1,2348,9327,693.1,""oops"",""down"",""up"",""bad_move"",16812.7,4414.8,2550.6,12397.9,1864.2,""oops"",""down"",""down"",""good_move"",20587,3746.6,2338.7,16841.1,1407.9,""oops"",""down"",""right"",""bad_move"",23801.2,3203.7,2592.8,20597.7,610.9,""smooth"",""down"",""down"",""good_move"",27615.7,3811.2,1980.9,23804.5,1830.3,""smooth"",""left"",""left"",""good_move"",40010.6,12390.8,3484.6,35910.7,615.4,""smooth"",""left"",""left"",""good_move"",44626.8,4609.5,3132.5,40017.4,1477,""oops"",""left"",""left"",""good_move"",49397.6,4768.6,2591.5,44629,2177.1,""oops"",""left"",""right"",""bad_move"",53657.1,4252.3,2947.3,49404.9,1305,""smooth"",""left"",""left"",""good_move"",58905.7,5245.8,3082.7,53659.9,2163.1,""smooth"",""left"",""left"",""good_move""]","",""
"5445","","<div style=""width:500px;"">
  <p>What determined the result of this run?</p>
  </div>","99","html-slider-response","55","994597","0.0-5.0-1.9","87","1","2025-07-16 09:11:15","1f75c3e559b7213887762d5229550c2b","105.245.56.147","Mozilla/5.0 (Windows NT 10.0; Win64; x64) AppleWebKit/537.36 (KHTML, like Gecko) Chrome/138.0.0.0 Safari/537.36","WebKit","Chrome","138.0.0.0","Windows","10.0","https://app.prolific.com/","en-US,en;q=0.9","67eaee55a9b4d89e82b8df37","686e379bc37a29ffa5cdc956","687767c262cf630ff909e518","1","1","67eaee55a9b4d89e82b8df37","1","1","2025-07-16T09:28:27.219Z","","","","","","","","","","","AttribQ","","50","","","","","","","","","","","","","","","","","","","","","","","","","","","","",""
"6402","","<div style=""width:500px;"">
  <p>How much control did you have over the ball?</p>
  </div>","96","html-slider-response","56","1001006","0.0-5.0-2.9","87","1","2025-07-16 09:11:15","1f75c3e559b7213887762d5229550c2b","105.245.56.147","Mozilla/5.0 (Windows NT 10.0; Win64; x64) AppleWebKit/537.36 (KHTML, like Gecko) Chrome/138.0.0.0 Safari/537.36","WebKit","Chrome","138.0.0.0","Windows","10.0","https://app.prolific.com/","en-US,en;q=0.9","67eaee55a9b4d89e82b8df37","686e379bc37a29ffa5cdc956","687767c262cf630ff909e518","1","1","67eaee55a9b4d89e82b8df37","1","1","2025-07-16T09:28:33.628Z","","","","","","","","","","","ControlQ","","50","","","","","","","","","","","","","","","","","","","","","","","","","","","","",""
"5362","","<div style=""width:500px;"">
  <p>How would you describe your current emotional state?</p>
  </div>","1","html-slider-response","57","1006379","0.0-5.0-3.9","87","1","2025-07-16 09:11:15","1f75c3e559b7213887762d5229550c2b","105.245.56.147","Mozilla/5.0 (Windows NT 10.0; Win64; x64) AppleWebKit/537.36 (KHTML, like Gecko) Chrome/138.0.0.0 Safari/537.36","WebKit","Chrome","138.0.0.0","Windows","10.0","https://app.prolific.com/","en-US,en;q=0.9","67eaee55a9b4d89e82b8df37","686e379bc37a29ffa5cdc956","687767c262cf630ff909e518","1","1","67eaee55a9b4d89e82b8df37","1","1","2025-07-16T09:28:39.002Z","","","","","","","","","","","StressQ","","50","","","","","","","","","","","","","","","","","","","","","","","","","","","","",""
"7719","","<div style=""width:500px;"">
  <p>What best describes how you currently feel?</p>
  </div>","96","html-slider-response","58","1014104","0.0-5.0-4.9","87","1","2025-07-16 09:11:15","1f75c3e559b7213887762d5229550c2b","105.245.56.147","Mozilla/5.0 (Windows NT 10.0; Win64; x64) AppleWebKit/537.36 (KHTML, like Gecko) Chrome/138.0.0.0 Safari/537.36","WebKit","Chrome","138.0.0.0","Windows","10.0","https://app.prolific.com/","en-US,en;q=0.9","67eaee55a9b4d89e82b8df37","686e379bc37a29ffa5cdc956","687767c262cf630ff909e518","1","1","67eaee55a9b4d89e82b8df37","1","1","2025-07-16T09:28:46.728Z","","","","","","","","","","","MotivationQ","","50","","","","","","","","","","","","","","","","","","","","","","","","","","","","",""
"","","","","ctl-task-cpt","59","1051358","0.0-5.0-0.10","87","1","2025-07-16 09:11:15","1f75c3e559b7213887762d5229550c2b","105.245.56.147","Mozilla/5.0 (Windows NT 10.0; Win64; x64) AppleWebKit/537.36 (KHTML, like Gecko) Chrome/138.0.0.0 Safari/537.36","WebKit","Chrome","138.0.0.0","Windows","10.0","https://app.prolific.com/","en-US,en;q=0.9","67eaee55a9b4d89e82b8df37","686e379bc37a29ffa5cdc956","687767c262cf630ff909e518","1","1","67eaee55a9b4d89e82b8df37","1","1","2025-07-16T09:29:23.981Z","","","","","","","","","","","","","","win-only","1","g1:NE,g2:SW","0.5","11","0","1047694.9","2887.4","7919.1","34209.2","1","4","4","6","2","4","4","37","33","0.2803030303030303","2966.2","3000","1660","[""down"",""left""]","{""num_key_presses"":6,""num_perfect"":4,""num_errors"":0,""num_randdir"":2,""num_randdir_good_moves"":2,""num_whilered"":0,""num_whileblue"":0,""num_blue"":1,""num_good_moves"":6}","[293.22232142857143,300.12857142857143,1.8,293.22232142857143,300.12857142857143,104.9,293.22232142857143,300.12857142857143,218,293.22232142857143,300.12857142857143,319.7,293.22232142857143,300.12857142857143,450.5,293.22232142857143,300.12857142857143,554.2,293.22232142857143,300.12857142857143,656.6,293.22232142857143,300.12857142857143,771.8,293.22232142857143,300.12857142857143,891.5,293.22232142857143,300.12857142857143,999.8,293.22232142857143,300.12857142857143,1106.4,293.22232142857143,300.12857142857143,1216.4,293.22232142857143,300.12857142857143,1333.5,293.22232142857143,300.12857142857143,1443.4,293.22232142857143,300.12857142857143,1545.1,293.22232142857143,300.12857142857143,1655.4,293.22232142857143,300.12857142857143,1770.3,293.22232142857143,300.12857142857143,1882.8,293.22232142857143,300.12857142857143,1998.7,75.22232142857143,410.12857142857143,2113.6,47.222321428571426,425.12857142857143,2217.2,47.222321428571426,425.12857142857143,2330.2,14.222321428571426,496.12857142857143,2432.6,37.222321428571426,538.1285714285714,2549.6,41.222321428571426,545.1285714285714,2669.2,41.222321428571426,545.1285714285714,2805.9,41.222321428571426,545.1285714285714,2928.2,41.222321428571426,545.1285714285714,3035.4,41.222321428571426,545.1285714285714,3143.8,41.222321428571426,545.1285714285714,3257.5,41.222321428571426,545.1285714285714,3372.3,41.222321428571426,545.1285714285714,3479.4,41.222321428571426,545.1285714285714,3585,41.222321428571426,545.1285714285714,3703,41.222321428571426,545.1285714285714,3805.7,41.222321428571426,545.1285714285714,3909.7,41.222321428571426,545.1285714285714,4023.4,41.222321428571426,545.1285714285714,4139.7,41.222321428571426,545.1285714285714,4262.5,41.222321428571426,545.1285714285714,4366.1,41.222321428571426,545.1285714285714,4475,41.222321428571426,545.1285714285714,4591.2,41.222321428571426,545.1285714285714,4705.1,41.222321428571426,545.1285714285714,4821.7,41.222321428571426,545.1285714285714,4937.6]","[1792.1,1792.1,1000,0,792.1,""oops"",""down"",""left"",""good_move"",6416.7,4617.7,2785.4,1799,1832.3,""smooth"",""down"",""down"",""good_move"",10056,3635.8,2020.6,6420.2,1615.2,""oops"",""down"",""down"",""good_move"",13435.5,3376.4,1974.3,10059.1,1402.3,""smooth"",""down"",""down"",""good_move"",17806.2,4368.1,3153,13438.1,1215.1,""smooth"",""left"",""left"",""good_move"",25691.8,7882.6,2199.2,22786.9,705.7,""smooth"",""left"",""left"",""good_move""]","",""
"11969","","<div style=""width:500px;"">
  <p>What determined the result of this run?</p>
  </div>","94","html-slider-response","60","1063334","0.0-5.0-1.10","87","1","2025-07-16 09:11:15","1f75c3e559b7213887762d5229550c2b","105.245.56.147","Mozilla/5.0 (Windows NT 10.0; Win64; x64) AppleWebKit/537.36 (KHTML, like Gecko) Chrome/138.0.0.0 Safari/537.36","WebKit","Chrome","138.0.0.0","Windows","10.0","https://app.prolific.com/","en-US,en;q=0.9","67eaee55a9b4d89e82b8df37","686e379bc37a29ffa5cdc956","687767c262cf630ff909e518","1","1","67eaee55a9b4d89e82b8df37","1","1","2025-07-16T09:29:35.957Z","","","","","","","","","","","AttribQ","","50","","","","","","","","","","","","","","","","","","","","","","","","","","","","",""
"6800","","<div style=""width:500px;"">
  <p>How much control did you have over the ball?</p>
  </div>","90","html-slider-response","61","1070139","0.0-5.0-2.10","87","1","2025-07-16 09:11:15","1f75c3e559b7213887762d5229550c2b","105.245.56.147","Mozilla/5.0 (Windows NT 10.0; Win64; x64) AppleWebKit/537.36 (KHTML, like Gecko) Chrome/138.0.0.0 Safari/537.36","WebKit","Chrome","138.0.0.0","Windows","10.0","https://app.prolific.com/","en-US,en;q=0.9","67eaee55a9b4d89e82b8df37","686e379bc37a29ffa5cdc956","687767c262cf630ff909e518","1","1","67eaee55a9b4d89e82b8df37","1","1","2025-07-16T09:29:42.762Z","","","","","","","","","","","ControlQ","","50","","","","","","","","","","","","","","","","","","","","","","","","","","","","",""
"4684","","<div style=""width:500px;"">
  <p>How would you describe your current emotional state?</p>
  </div>","1","html-slider-response","62","1074829","0.0-5.0-3.10","87","1","2025-07-16 09:11:15","1f75c3e559b7213887762d5229550c2b","105.245.56.147","Mozilla/5.0 (Windows NT 10.0; Win64; x64) AppleWebKit/537.36 (KHTML, like Gecko) Chrome/138.0.0.0 Safari/537.36","WebKit","Chrome","138.0.0.0","Windows","10.0","https://app.prolific.com/","en-US,en;q=0.9","67eaee55a9b4d89e82b8df37","686e379bc37a29ffa5cdc956","687767c262cf630ff909e518","1","1","67eaee55a9b4d89e82b8df37","1","1","2025-07-16T09:29:47.452Z","","","","","","","","","","","StressQ","","50","","","","","","","","","","","","","","","","","","","","","","","","","","","","",""
"8976","","<div style=""width:500px;"">
  <p>What best describes how you currently feel?</p>
  </div>","94","html-slider-response","63","1083811","0.0-5.0-4.10","87","1","2025-07-16 09:11:15","1f75c3e559b7213887762d5229550c2b","105.245.56.147","Mozilla/5.0 (Windows NT 10.0; Win64; x64) AppleWebKit/537.36 (KHTML, like Gecko) Chrome/138.0.0.0 Safari/537.36","WebKit","Chrome","138.0.0.0","Windows","10.0","https://app.prolific.com/","en-US,en;q=0.9","67eaee55a9b4d89e82b8df37","686e379bc37a29ffa5cdc956","687767c262cf630ff909e518","1","1","67eaee55a9b4d89e82b8df37","1","1","2025-07-16T09:29:56.434Z","","","","","","","","","","","MotivationQ","","50","","","","","","","","","","","","","","","","","","","","","","","","","","","","",""
"","","","","ctl-task-cpt","64","1169406","0.0-5.0-0.11","87","1","2025-07-16 09:11:15","1f75c3e559b7213887762d5229550c2b","105.245.56.147","Mozilla/5.0 (Windows NT 10.0; Win64; x64) AppleWebKit/537.36 (KHTML, like Gecko) Chrome/138.0.0.0 Safari/537.36","WebKit","Chrome","138.0.0.0","Windows","10.0","https://app.prolific.com/","en-US,en;q=0.9","67eaee55a9b4d89e82b8df37","686e379bc37a29ffa5cdc956","687767c262cf630ff909e518","1","1","67eaee55a9b4d89e82b8df37","1","1","2025-07-16T09:31:22.029Z","","","","","","","","","","","","","","win-only","2","g1:SE,g2:NW","0.6","12","0","1117398.8","7635.3","12655.2","82561.8","1","4","8","6","2","8","8","45","37","0.3409090909090909","1918.7","3000","145","[""left"",""up""]","{""num_key_presses"":14,""num_perfect"":10,""num_errors"":0,""num_randdir"":4,""num_randdir_good_moves"":0,""num_whilered"":0,""num_whileblue"":0,""num_blue"":1,""num_good_moves"":10}","[294.22232142857143,294.12857142857143,3.1,294.22232142857143,294.12857142857143,121.4,294.22232142857143,294.12857142857143,230,294.22232142857143,294.12857142857143,353.3,294.22232142857143,294.12857142857143,460.7,294.22232142857143,294.12857142857143,577.1,191.22232142857143,159.12857142857143,700.3,179.22232142857143,136.12857142857143,822.7,179.22232142857143,136.12857142857143,928.2,134.22232142857143,115.12857142857143,1049.9,99.22232142857143,74.12857142857143,1178.4,96.22232142857143,61.128571428571426,1306,96.22232142857143,61.128571428571426,1430.7,95.22232142857143,61.128571428571426,1546.1,64.22232142857143,61.128571428571426,1653.3,63.222321428571426,61.128571428571426,1779.7,63.222321428571426,61.128571428571426,1889.9,63.222321428571426,61.128571428571426,2002,63.222321428571426,61.128571428571426,2120.9,63.222321428571426,61.128571428571426,2243.8,63.222321428571426,61.128571428571426,2356.4,63.222321428571426,61.128571428571426,2481.8,63.222321428571426,61.128571428571426,2593.8,63.222321428571426,61.128571428571426,2712.1,63.222321428571426,61.128571428571426,2821.2,63.222321428571426,61.128571428571426,2941.7,63.222321428571426,61.128571428571426,3053.6,63.222321428571426,61.128571428571426,3168.2,63.222321428571426,61.128571428571426,3273.3,63.222321428571426,61.128571428571426,3384.8,63.222321428571426,61.128571428571426,3497.8,63.222321428571426,61.128571428571426,3601.3,68.22232142857143,60.128571428571426,3727.8,146.22232142857143,102.12857142857143,3861.1,176.22232142857143,143.12857142857143,3962.3,175.22232142857143,147.12857142857143,4063.7,167.22232142857143,167.12857142857143,4166.2,167.22232142857143,167.12857142857143,4271.6,167.22232142857143,167.12857142857143,4381.5,167.22232142857143,167.12857142857143,4490.8,167.22232142857143,167.12857142857143,4615.6,167.22232142857143,167.12857142857143,4722.4,167.22232142857143,167.12857142857143,4831.8,167.22232142857143,167.12857142857143,4951.2]","[1652.7,1652.7,1000,0,652.8,""oops"",""up"",""right"",""bad_move"",5749.6,4091.2,3170.4,1658.5,920.7,""oops"",""up"",""down"",""bad_move"",9182.5,3427.9,2522.5,5754.6,905.4,""smooth"",""up"",""up"",""good_move"",14571.4,5385.8,2202.9,9185.6,3182.9,""smooth"",""up"",""up"",""good_move"",19694.6,5118.1,2618.9,14576.5,2499.2,""smooth"",""up"",""up"",""good_move"",24709.7,5011.1,2845,19698.6,2166.1,""oops"",""up"",""right"",""bad_move"",28482.9,3765.9,2534.3,24717.1,1231.6,""smooth"",""up"",""up"",""good_move"",33917.5,5431.4,2425.7,28486.1,3005.7,""smooth"",""left"",""left"",""good_move"",38966.9,5042.1,3398.3,33924.8,1643.8,""smooth"",""left"",""left"",""good_move"",44313.2,5344.7,2525.1,38968.6,2819.5,""oops"",""left"",""right"",""bad_move"",52253.3,7937,2882.9,48411.1,959.3,""smooth"",""left"",""left"",""good_move"",58138.8,5875.9,2549.1,52262.9,3326.8,""smooth"",""left"",""left"",""good_move"",63743.8,5601.8,2050.1,58142,3551.7,""smooth"",""left"",""left"",""good_move"",69502,5757,1954.1,63745.1,3802.9,""smooth"",""left"",""left"",""good_move""]","",""
"11820","","<div style=""width:500px;"">
  <p>What determined the result of this run?</p>
  </div>","95","html-slider-response","65","1181234","0.0-5.0-1.11","87","1","2025-07-16 09:11:15","1f75c3e559b7213887762d5229550c2b","105.245.56.147","Mozilla/5.0 (Windows NT 10.0; Win64; x64) AppleWebKit/537.36 (KHTML, like Gecko) Chrome/138.0.0.0 Safari/537.36","WebKit","Chrome","138.0.0.0","Windows","10.0","https://app.prolific.com/","en-US,en;q=0.9","67eaee55a9b4d89e82b8df37","686e379bc37a29ffa5cdc956","687767c262cf630ff909e518","1","1","67eaee55a9b4d89e82b8df37","1","1","2025-07-16T09:31:33.856Z","","","","","","","","","","","AttribQ","","50","","","","","","","","","","","","","","","","","","","","","","","","","","","","",""
"3503","","<div style=""width:500px;"">
  <p>How much control did you have over the ball?</p>
  </div>","91","html-slider-response","66","1184741","0.0-5.0-2.11","87","1","2025-07-16 09:11:15","1f75c3e559b7213887762d5229550c2b","105.245.56.147","Mozilla/5.0 (Windows NT 10.0; Win64; x64) AppleWebKit/537.36 (KHTML, like Gecko) Chrome/138.0.0.0 Safari/537.36","WebKit","Chrome","138.0.0.0","Windows","10.0","https://app.prolific.com/","en-US,en;q=0.9","67eaee55a9b4d89e82b8df37","686e379bc37a29ffa5cdc956","687767c262cf630ff909e518","1","1","67eaee55a9b4d89e82b8df37","1","1","2025-07-16T09:31:37.364Z","","","","","","","","","","","ControlQ","","50","","","","","","","","","","","","","","","","","","","","","","","","","","","","",""
"15950","","<div style=""width:500px;"">
  <p>How would you describe your current emotional state?</p>
  </div>","0","html-slider-response","67","1200697","0.0-5.0-3.11","87","1","2025-07-16 09:11:15","1f75c3e559b7213887762d5229550c2b","105.245.56.147","Mozilla/5.0 (Windows NT 10.0; Win64; x64) AppleWebKit/537.36 (KHTML, like Gecko) Chrome/138.0.0.0 Safari/537.36","WebKit","Chrome","138.0.0.0","Windows","10.0","https://app.prolific.com/","en-US,en;q=0.9","67eaee55a9b4d89e82b8df37","686e379bc37a29ffa5cdc956","687767c262cf630ff909e518","1","1","67eaee55a9b4d89e82b8df37","1","1","2025-07-16T09:31:53.319Z","","","","","","","","","","","StressQ","","50","","","","","","","","","","","","","","","","","","","","","","","","","","","","",""
"3617","","<div style=""width:500px;"">
  <p>What best describes how you currently feel?</p>
  </div>","99","html-slider-response","68","1204319","0.0-5.0-4.11","87","1","2025-07-16 09:11:15","1f75c3e559b7213887762d5229550c2b","105.245.56.147","Mozilla/5.0 (Windows NT 10.0; Win64; x64) AppleWebKit/537.36 (KHTML, like Gecko) Chrome/138.0.0.0 Safari/537.36","WebKit","Chrome","138.0.0.0","Windows","10.0","https://app.prolific.com/","en-US,en;q=0.9","67eaee55a9b4d89e82b8df37","686e379bc37a29ffa5cdc956","687767c262cf630ff909e518","1","1","67eaee55a9b4d89e82b8df37","1","1","2025-07-16T09:31:56.941Z","","","","","","","","","","","MotivationQ","","50","","","","","","","","","","","","","","","","","","","","","","","","","","","","",""
"","","","","ctl-task-cpt","69","1284888","0.0-5.0-0.12","87","1","2025-07-16 09:11:15","1f75c3e559b7213887762d5229550c2b","105.245.56.147","Mozilla/5.0 (Windows NT 10.0; Win64; x64) AppleWebKit/537.36 (KHTML, like Gecko) Chrome/138.0.0.0 Safari/537.36","WebKit","Chrome","138.0.0.0","Windows","10.0","https://app.prolific.com/","en-US,en;q=0.9","67eaee55a9b4d89e82b8df37","686e379bc37a29ffa5cdc956","687767c262cf630ff909e518","1","1","67eaee55a9b4d89e82b8df37","1","1","2025-07-16T09:33:17.511Z","","","","","","","","","","","","","","win-only","1","g1:NE,g2:SW","0.7","13","0","1237929.9","2351.7","7376.3","77509.7","1","4","4","6","2","4","4","49","45","0.3712121212121212","1611.7","3000","220","[""down"",""left""]","{""num_key_presses"":10,""num_perfect"":7,""num_errors"":0,""num_randdir"":3,""num_randdir_good_moves"":1,""num_whilered"":0,""num_whileblue"":0,""num_blue"":6,""num_good_moves"":8}","[299.22232142857143,296.12857142857143,1.6,299.22232142857143,296.12857142857143,121.3,299.22232142857143,296.12857142857143,232.9,299.22232142857143,296.12857142857143,346.5,299.22232142857143,296.12857142857143,447.2,299.22232142857143,296.12857142857143,574.4,299.22232142857143,296.12857142857143,695.5,299.22232142857143,296.12857142857143,815.6,91.22232142857143,517.1285714285714,941.7,50.222321428571426,563.1285714285714,1053.5,45.222321428571426,572.1285714285714,1156.6,42.222321428571426,564.1285714285714,1275.2,42.222321428571426,561.1285714285714,1400.7,42.222321428571426,561.1285714285714,1504.8,42.222321428571426,561.1285714285714,1628.7,42.222321428571426,561.1285714285714,1775.7,42.222321428571426,561.1285714285714,1876.4,42.222321428571426,561.1285714285714,1992.4,42.222321428571426,561.1285714285714,2096.2,42.222321428571426,561.1285714285714,2207.4,42.222321428571426,561.1285714285714,2330.4,42.222321428571426,561.1285714285714,2451,42.222321428571426,561.1285714285714,2568.3,42.222321428571426,561.1285714285714,2668.7,42.222321428571426,561.1285714285714,2794.8,42.222321428571426,561.1285714285714,2915.9,42.222321428571426,561.1285714285714,3035.8,42.222321428571426,561.1285714285714,3144.2,42.222321428571426,561.1285714285714,3255.8,42.222321428571426,561.1285714285714,3374.6,42.222321428571426,561.1285714285714,3488.1,42.222321428571426,561.1285714285714,3588.9,42.222321428571426,561.1285714285714,3723.4,42.222321428571426,561.1285714285714,3850.9,42.222321428571426,561.1285714285714,3961.7,42.222321428571426,561.1285714285714,4062.5,42.222321428571426,561.1285714285714,4180.7,42.222321428571426,561.1285714285714,4294.7,42.222321428571426,561.1285714285714,4414.1,42.222321428571426,561.1285714285714,4527.7,42.222321428571426,561.1285714285714,4642,42.222321428571426,561.1285714285714,4757.6,42.222321428571426,561.1285714285714,4858.8,42.222321428571426,561.1285714285714,4961]","[1659.7,1659.7,1000,0,659.7,""smooth"",""down"",""down"",""good_move"",5428,3766.6,2434.7,1661.4,1331.9,""smooth"",""down"",""down"",""good_move"",12757.3,7323.7,2154.8,9417.6,1184.9,""smooth"",""down"",""down"",""good_move"",31068.1,18309.8,2817.8,27606.1,644.2,""smooth"",""left"",""left"",""good_move"",36925.2,5848.6,2649,31076.6,3199.6,""smooth"",""left"",""left"",""good_move"",46058.3,9131.2,3189.2,42223.4,645.7,""oops"",""left"",""right"",""bad_move"",50923,4856,3134.5,46067,1721.5,""oops"",""left"",""left"",""good_move"",57795,6867.4,1940.4,50928,4926.8,""oops"",""left"",""right"",""bad_move"",62480.4,4683.5,2678.9,57797,2004.5,""smooth"",""left"",""left"",""good_move"",69708.2,7221.6,2694.4,62486.6,4527.3,""smooth"",""left"",""left"",""good_move""]","",""
"5477","","<div style=""width:500px;"">
  <p>What determined the result of this run?</p>
  </div>","91","html-slider-response","70","1290376","0.0-5.0-1.12","87","1","2025-07-16 09:11:15","1f75c3e559b7213887762d5229550c2b","105.245.56.147","Mozilla/5.0 (Windows NT 10.0; Win64; x64) AppleWebKit/537.36 (KHTML, like Gecko) Chrome/138.0.0.0 Safari/537.36","WebKit","Chrome","138.0.0.0","Windows","10.0","https://app.prolific.com/","en-US,en;q=0.9","67eaee55a9b4d89e82b8df37","686e379bc37a29ffa5cdc956","687767c262cf630ff909e518","1","1","67eaee55a9b4d89e82b8df37","1","1","2025-07-16T09:33:22.998Z","","","","","","","","","","","AttribQ","","50","","","","","","","","","","","","","","","","","","","","","","","","","","","","",""
"3305","","<div style=""width:500px;"">
  <p>How much control did you have over the ball?</p>
  </div>","92","html-slider-response","71","1293689","0.0-5.0-2.12","87","1","2025-07-16 09:11:15","1f75c3e559b7213887762d5229550c2b","105.245.56.147","Mozilla/5.0 (Windows NT 10.0; Win64; x64) AppleWebKit/537.36 (KHTML, like Gecko) Chrome/138.0.0.0 Safari/537.36","WebKit","Chrome","138.0.0.0","Windows","10.0","https://app.prolific.com/","en-US,en;q=0.9","67eaee55a9b4d89e82b8df37","686e379bc37a29ffa5cdc956","687767c262cf630ff909e518","1","1","67eaee55a9b4d89e82b8df37","1","1","2025-07-16T09:33:26.311Z","","","","","","","","","","","ControlQ","","50","","","","","","","","","","","","","","","","","","","","","","","","","","","","",""
"5230","","<div style=""width:500px;"">
  <p>How would you describe your current emotional state?</p>
  </div>","3","html-slider-response","72","1298922","0.0-5.0-3.12","87","1","2025-07-16 09:11:15","1f75c3e559b7213887762d5229550c2b","105.245.56.147","Mozilla/5.0 (Windows NT 10.0; Win64; x64) AppleWebKit/537.36 (KHTML, like Gecko) Chrome/138.0.0.0 Safari/537.36","WebKit","Chrome","138.0.0.0","Windows","10.0","https://app.prolific.com/","en-US,en;q=0.9","67eaee55a9b4d89e82b8df37","686e379bc37a29ffa5cdc956","687767c262cf630ff909e518","1","1","67eaee55a9b4d89e82b8df37","1","1","2025-07-16T09:33:31.544Z","","","","","","","","","","","StressQ","","50","","","","","","","","","","","","","","","","","","","","","","","","","","","","",""
"5691","","<div style=""width:500px;"">
  <p>What best describes how you currently feel?</p>
  </div>","96","html-slider-response","73","1304618","0.0-5.0-4.12","87","1","2025-07-16 09:11:15","1f75c3e559b7213887762d5229550c2b","105.245.56.147","Mozilla/5.0 (Windows NT 10.0; Win64; x64) AppleWebKit/537.36 (KHTML, like Gecko) Chrome/138.0.0.0 Safari/537.36","WebKit","Chrome","138.0.0.0","Windows","10.0","https://app.prolific.com/","en-US,en;q=0.9","67eaee55a9b4d89e82b8df37","686e379bc37a29ffa5cdc956","687767c262cf630ff909e518","1","1","67eaee55a9b4d89e82b8df37","1","1","2025-07-16T09:33:37.241Z","","","","","","","","","","","MotivationQ","","50","","","","","","","","","","","","","","","","","","","","","","","","","","","","",""
"","","","","ctl-task-cpt","74","1350790","0.0-5.0-0.13","87","1","2025-07-16 09:11:15","1f75c3e559b7213887762d5229550c2b","105.245.56.147","Mozilla/5.0 (Windows NT 10.0; Win64; x64) AppleWebKit/537.36 (KHTML, like Gecko) Chrome/138.0.0.0 Safari/537.36","WebKit","Chrome","138.0.0.0","Windows","10.0","https://app.prolific.com/","en-US,en;q=0.9","67eaee55a9b4d89e82b8df37","686e379bc37a29ffa5cdc956","687767c262cf630ff909e518","1","1","67eaee55a9b4d89e82b8df37","1","1","2025-07-16T09:34:23.412Z","","","","","","","","","","","","","","win-only","0","g1:NW,g2:SE","0.8","14","0","1338210.5","5776.6","10797.6","43123.2","1","4","8","6","2","8","8","57","49","0.4318181818181818","1756.8","3000","1300","[""down"",""right""]","{""num_key_presses"":6,""num_perfect"":6,""num_errors"":0,""num_randdir"":0,""num_randdir_good_moves"":0,""num_whilered"":0,""num_whileblue"":0,""num_blue"":2,""num_good_moves"":6}","[294.22232142857143,301.12857142857143,1.7,294.22232142857143,301.12857142857143,123.3,294.22232142857143,301.12857142857143,231.4,294.22232142857143,301.12857142857143,343.5,294.22232142857143,301.12857142857143,464.6,294.22232142857143,301.12857142857143,592.6,294.22232142857143,301.12857142857143,710.4,294.22232142857143,301.12857142857143,831.3,298.22232142857143,301.12857142857143,950.4,471.22232142857143,441.12857142857143,1077.5,552.2223214285714,554.1285714285714,1179.6,553.2223214285714,575.1285714285714,1282.9,553.2223214285714,560.1285714285714,1399.6,553.2223214285714,558.1285714285714,1528,553.2223214285714,558.1285714285714,1628,553.2223214285714,558.1285714285714,1730.1,553.2223214285714,558.1285714285714,1850.8,553.2223214285714,558.1285714285714,1994.6,553.2223214285714,558.1285714285714,2116.9,553.2223214285714,558.1285714285714,2229.8,553.2223214285714,558.1285714285714,2346.6,553.2223214285714,558.1285714285714,2474.7,553.2223214285714,558.1285714285714,2617.1,553.2223214285714,558.1285714285714,2717.8,553.2223214285714,558.1285714285714,2846,553.2223214285714,558.1285714285714,2975.5,553.2223214285714,558.1285714285714,3094.7,553.2223214285714,558.1285714285714,3202.7,553.2223214285714,558.1285714285714,3317.6,553.2223214285714,558.1285714285714,3448.8,553.2223214285714,558.1285714285714,3559.1,553.2223214285714,558.1285714285714,3690,553.2223214285714,558.1285714285714,3793.6,553.2223214285714,558.1285714285714,3914.9,553.2223214285714,558.1285714285714,4018.8,553.2223214285714,558.1285714285714,4125.3,553.2223214285714,558.1285714285714,4249.5,553.2223214285714,558.1285714285714,4360.5,553.2223214285714,558.1285714285714,4467.6,553.2223214285714,558.1285714285714,4578,553.2223214285714,558.1285714285714,4696.3,553.2223214285714,558.1285714285714,4810.7,553.2223214285714,558.1285714285714,4925.9]","[1624.6,1624.6,1000,0,624.6,""smooth"",""right"",""right"",""good_move"",7343.1,5714.9,2789.9,1628.4,2925,""smooth"",""right"",""right"",""good_move"",12032.5,4686.2,2659.9,7346.4,2026.2,""smooth"",""right"",""right"",""good_move"",16029.2,3993.1,2615.4,12036.1,1377.7,""smooth"",""down"",""down"",""good_move"",23860.8,7827.6,2925.6,18994.9,1940.4,""smooth"",""down"",""down"",""good_move"",31894.8,8032.6,2488.3,27550.7,1855.8,""smooth"",""down"",""down"",""good_move""]","",""
"3982","","<div style=""width:500px;"">
  <p>What determined the result of this run?</p>
  </div>","94","html-slider-response","75","1354778","0.0-5.0-1.13","87","1","2025-07-16 09:11:15","1f75c3e559b7213887762d5229550c2b","105.245.56.147","Mozilla/5.0 (Windows NT 10.0; Win64; x64) AppleWebKit/537.36 (KHTML, like Gecko) Chrome/138.0.0.0 Safari/537.36","WebKit","Chrome","138.0.0.0","Windows","10.0","https://app.prolific.com/","en-US,en;q=0.9","67eaee55a9b4d89e82b8df37","686e379bc37a29ffa5cdc956","687767c262cf630ff909e518","1","1","67eaee55a9b4d89e82b8df37","1","1","2025-07-16T09:34:27.401Z","","","","","","","","","","","AttribQ","","50","","","","","","","","","","","","","","","","","","","","","","","","","","","","",""
"3256","","<div style=""width:500px;"">
  <p>How much control did you have over the ball?</p>
