"rt","response_timestamp","stimulus","response","trial_type","trial_index","time_elapsed","internal_node_id","run_id","condition","recorded_at","source_code_version","ip","user_agent","device","browser","browser_version","platform","platform_version","referer","accept_language","PROLIFIC_PID","STUDY_ID","SESSION_ID","WEEK","BATCH","prolific_id","week","batch","realtime","success","responses","item_order","radio_event_ids","radio_event_times","key_event_times","mouse_event_times","straightlining","zigzagging","honeypot","eventType","view_history","slider_start","which_type","canvas_config","goals_layout","control_level","trial_number","tutorial_trial_number","trial_start_time","phase1_start_time","phase2_start_time","phase3_start_time","goal_1_value","goal_1_distance","goal_2_value","goal_2_distance","goal_selected","outcome","outcome_total","participant_final_score","participant_initial_score","participant_final_score_prop","goal_choice_rt","allocated_time","allocated_time_remaining","goal_direction","counts","mouse_movements","key_presses","question_order","question_id"
"30099","1752654727930","<p style='font-size:40px;line-height:1.25'><strong>Welcome to the experiment!</strong></p><p style='font-size:1.1em;line-height:1.25'>Thank you for participanting in our experiment again! You will be asked to play the Dysfunctional Ball Game again. We will briefly recap the rules before we start.</p><p style='font-size:1.1em;line-height:1.25'>Press <strong>Next</strong> to continue.</p>","0","custom-html-button-response","0","30104","0.0-0.0","70","1","2025-07-16 08:31:33","1f75c3e559b7213887762d5229550c2b","105.245.180.190","Mozilla/5.0 (Windows NT 10.0; Win64; x64) AppleWebKit/537.36 (KHTML, like Gecko) Chrome/138.0.0.0 Safari/537.36","WebKit","Chrome","138.0.0.0","Windows","10.0","https://app.prolific.com/","en-US,en;q=0.9","67b89f64c09d83ec36fdd403","686e379bc37a29ffa5cdc956","6877604c65b3f0bc65c1e381","1","1","67b89f64c09d83ec36fdd403","1","1","2025-07-16T08:32:07.933Z","","","","","","","","","","","","","","","","","","","","","","","","","","","","","","","","","","","","","","","","","",""
"20313","","","","fullscreen","1","51435","0.0-1.0","70","1","2025-07-16 08:31:33","1f75c3e559b7213887762d5229550c2b","105.245.180.190","Mozilla/5.0 (Windows NT 10.0; Win64; x64) AppleWebKit/537.36 (KHTML, like Gecko) Chrome/138.0.0.0 Safari/537.36","WebKit","Chrome","138.0.0.0","Windows","10.0","https://app.prolific.com/","en-US,en;q=0.9","67b89f64c09d83ec36fdd403","686e379bc37a29ffa5cdc956","6877604c65b3f0bc65c1e381","1","1","67b89f64c09d83ec36fdd403","1","1","","true","","","","","","","","","","","","","","","","","","","","","","","","","","","","","","","","","","","","","","","","",""
"5890","1752654755155","<p style='font-size:1.1em;line-height:1.25'>In the following, we will ask you a few questions relating to your feelings in the last 24 hours.<br></p><p style='font-size:1.1em;line-height:1.25'>Press the <strong>Next</strong> button to continue.</p>","0","custom-html-button-response","2","57327","0.0-2.0-0.0","70","1","2025-07-16 08:31:33","1f75c3e559b7213887762d5229550c2b","105.245.180.190","Mozilla/5.0 (Windows NT 10.0; Win64; x64) AppleWebKit/537.36 (KHTML, like Gecko) Chrome/138.0.0.0 Safari/537.36","WebKit","Chrome","138.0.0.0","Windows","10.0","https://app.prolific.com/","en-US,en;q=0.9","67b89f64c09d83ec36fdd403","686e379bc37a29ffa5cdc956","6877604c65b3f0bc65c1e381","1","1","67b89f64c09d83ec36fdd403","1","1","2025-07-16T08:32:35.156Z","","","","","","","","","","","","","","","","","","","","","","","","","","","","","","","","","","","","","","","","","",""
"91313.59999996424","","","","survey-template","3","148655","0.0-2.0-1.0","70","1","2025-07-16 08:31:33","1f75c3e559b7213887762d5229550c2b","105.245.180.190","Mozilla/5.0 (Windows NT 10.0; Win64; x64) AppleWebKit/537.36 (KHTML, like Gecko) Chrome/138.0.0.0 Safari/537.36","WebKit","Chrome","138.0.0.0","Windows","10.0","https://app.prolific.com/","en-US,en;q=0.9","67b89f64c09d83ec36fdd403","686e379bc37a29ffa5cdc956","6877604c65b3f0bc65c1e381","1","1","67b89f64c09d83ec36fdd403","1","1","2025-07-16T08:34:06.484Z","","{""Q01"":""2"",""Q02"":""1"",""Q03"":""0"",""Q04"":""0"",""Q05"":""0"",""Q06"":""0"",""Q07"":""0"",""Q08"":""2"",""Q09"":""0"",""Q10"":""0"",""Q11"":""0"",""Q12"":""3"",""Q13"":""5"",""Q14"":""4"",""Q15"":""4"",""Q16"":""0"",""Q17"":""0"",""Q18"":""0"",""Q19"":""3"",""Q20"":""0"",""Q21"":""0"",""Q22"":""0""}","[0,1,2,3,4,5,6,7,8,9,10,11,12,13,14,15,16,17,18,19,20,21]","[""Q01"",""Q02"",""Q03"",""Q03"",""Q03"",""Q04"",""Q05"",""Q06"",""Q07"",""Q08"",""Q09"",""Q10"",""Q08"",""Q11"",""Q12"",""Q13"",""Q14"",""Q15"",""Q16"",""Q17"",""Q18"",""Q19"",""Q20"",""Q21"",""Q22""]","[3345,5896.099999964237,9455.699999988079,12823.099999964237,14182.199999988079,16562.69999998808,19026.599999964237,22946.399999976158,23934.19999998808,26184.5,28066.099999964237,28957.69999998808,32936.09999996424,37535.299999952316,41651.39999997616,45072.69999998808,48608.09999996424,51724,64403.69999998808,66304.39999997616,67622.39999997616,72423.19999998808,78077.69999998808,85203.59999996424,89595.89999997616]","[]","[0.2999999523162842,3345,5896.099999964237,9455.699999988079,12041.799999952316,12823.099999964237,14182.199999988079,16562.69999998808,19026.599999964237,20254.099999964237,22946.399999976158,23934.19999998808,26184.5,28066.099999964237,28957.69999998808,32936.09999996424,37535.299999952316,41651.39999997616,45072.69999998808,48608.09999996424,51724,64403.69999998808,66304.39999997616,67622.39999997616,72423.19999998808,78077.69999998808,79244.09999996424,81066.09999996424,82499.89999997616,85203.59999996424,86802.59999996424,88581.19999998808,89595.89999997616,91300.89999997616]","0.6363636363636364","0.14285714285714285","0","drsp","","","","","","","","","","","","","","","","","","","","","","","","","","","","","","",""
"22060.19999998808","","","","survey-template","4","170719","0.0-2.0-2.0","70","1","2025-07-16 08:31:33","1f75c3e559b7213887762d5229550c2b","105.245.180.190","Mozilla/5.0 (Windows NT 10.0; Win64; x64) AppleWebKit/537.36 (KHTML, like Gecko) Chrome/138.0.0.0 Safari/537.36","WebKit","Chrome","138.0.0.0","Windows","10.0","https://app.prolific.com/","en-US,en;q=0.9","67b89f64c09d83ec36fdd403","686e379bc37a29ffa5cdc956","6877604c65b3f0bc65c1e381","1","1","67b89f64c09d83ec36fdd403","1","1","2025-07-16T08:34:28.547Z","","{""Q01"":""1"",""Q02"":""3"",""Q03"":""0""}","[0,1,2]","[""Q01"",""Q02"",""Q03""]","[5505.399999976158,13882.699999988079,16778.399999976158]","[]","[5505.399999976158,11117.5,13882.699999988079,16778.399999976158,22056.099999964237]","0.3333333333333333","0.5","0","stress","","","","","","","","","","","","","","","","","","","","","","","","","","","","","","",""
"49735","","","","instructions","5","220457","0.0-3.0-0.0","70","1","2025-07-16 08:31:33","1f75c3e559b7213887762d5229550c2b","105.245.180.190","Mozilla/5.0 (Windows NT 10.0; Win64; x64) AppleWebKit/537.36 (KHTML, like Gecko) Chrome/138.0.0.0 Safari/537.36","WebKit","Chrome","138.0.0.0","Windows","10.0","https://app.prolific.com/","en-US,en;q=0.9","67b89f64c09d83ec36fdd403","686e379bc37a29ffa5cdc956","6877604c65b3f0bc65c1e381","1","1","67b89f64c09d83ec36fdd403","1","1","","","","","","","","","","","","","[{""page_index"":0,""viewing_time"":49735}]","","","","","","","","","","","","","","","","","","","","","","","","","","","","","",""
"10581","","<p>Before you start with this game please answer the following three questions yourself. </p>
  <p>Through this game, we measure several aspects of your cognitive performance, such as reaction times, multi-tasking capabilities </p>
  <p>and the ability to assess the situation you are in.</p>
  <p></p>
  <p><b>How good do you usually are in such tasks?</b></p>","100","html-slider-response","6","231044","0.0-4.0-0.0","70","1","2025-07-16 08:31:33","1f75c3e559b7213887762d5229550c2b","105.245.180.190","Mozilla/5.0 (Windows NT 10.0; Win64; x64) AppleWebKit/537.36 (KHTML, like Gecko) Chrome/138.0.0.0 Safari/537.36","WebKit","Chrome","138.0.0.0","Windows","10.0","https://app.prolific.com/","en-US,en;q=0.9","67b89f64c09d83ec36fdd403","686e379bc37a29ffa5cdc956","6877604c65b3f0bc65c1e381","1","1","67b89f64c09d83ec36fdd403","1","1","2025-07-16T08:35:28.872Z","","","","","","","","","","","PreSkillQ","","50","","","","","","","","","","","","","","","","","","","","","","","","","","","","",""
"6096","","<div style=""width:500px;"">
  <p>How well do you think you will perform in this task compared to other participants?</p>
  </div>","100","html-slider-response","7","237144","0.0-4.0-1.0","70","1","2025-07-16 08:31:33","1f75c3e559b7213887762d5229550c2b","105.245.180.190","Mozilla/5.0 (Windows NT 10.0; Win64; x64) AppleWebKit/537.36 (KHTML, like Gecko) Chrome/138.0.0.0 Safari/537.36","WebKit","Chrome","138.0.0.0","Windows","10.0","https://app.prolific.com/","en-US,en;q=0.9","67b89f64c09d83ec36fdd403","686e379bc37a29ffa5cdc956","6877604c65b3f0bc65c1e381","1","1","67b89f64c09d83ec36fdd403","1","1","2025-07-16T08:35:34.972Z","","","","","","","","","","","PrePerfQ","","50","","","","","","","","","","","","","","","","","","","","","","","","","","","","",""
"3755","","<div style=""width:500px;"">
  <p>What best describes how you currently feel?</p>
  </div>","100","html-slider-response","8","240901","0.0-4.0-2.0","70","1","2025-07-16 08:31:33","1f75c3e559b7213887762d5229550c2b","105.245.180.190","Mozilla/5.0 (Windows NT 10.0; Win64; x64) AppleWebKit/537.36 (KHTML, like Gecko) Chrome/138.0.0.0 Safari/537.36","WebKit","Chrome","138.0.0.0","Windows","10.0","https://app.prolific.com/","en-US,en;q=0.9","67b89f64c09d83ec36fdd403","686e379bc37a29ffa5cdc956","6877604c65b3f0bc65c1e381","1","1","67b89f64c09d83ec36fdd403","1","1","2025-07-16T08:35:38.730Z","","","","","","","","","","","PreMotivationQ","","50","","","","","","","","","","","","","","","","","","","","","","","","","","","","",""
"","","","","ctl-task-cpt","9","272173","0.0-5.0-0.0","70","1","2025-07-16 08:31:33","1f75c3e559b7213887762d5229550c2b","105.245.180.190","Mozilla/5.0 (Windows NT 10.0; Win64; x64) AppleWebKit/537.36 (KHTML, like Gecko) Chrome/138.0.0.0 Safari/537.36","WebKit","Chrome","138.0.0.0","Windows","10.0","https://app.prolific.com/","en-US,en;q=0.9","67b89f64c09d83ec36fdd403","686e379bc37a29ffa5cdc956","6877604c65b3f0bc65c1e381","1","1","67b89f64c09d83ec36fdd403","1","1","2025-07-16T08:36:10.001Z","","","","","","","","","","","","","","win-only","0","g1:NW,g2:SE","1","1","0","243885.5","2611.3","7613.8","28259","1","4","4","6","2","4","3","3","0","0.022727272727272728","1621.9","3000","1335","[""down"",""right""]","{""num_key_presses"":6,""num_perfect"":5,""num_errors"":1,""num_randdir"":0,""num_randdir_good_moves"":0,""num_whilered"":0,""num_whileblue"":1,""num_blue"":2,""num_good_moves"":6}","[295.22232142857143,295.12857142857143,3.2,295.22232142857143,295.12857142857143,102.8,295.22232142857143,295.12857142857143,216.6,295.22232142857143,294.12857142857143,326.1,286.22232142857143,286.12857142857143,432.1,287.22232142857143,286.12857142857143,542.7,287.22232142857143,281.12857142857143,645.5,286.22232142857143,281.12857142857143,757.2,286.22232142857143,285.12857142857143,859.3,345.22232142857143,351.12857142857143,959.3,361.22232142857143,367.12857142857143,1059.4,459.22232142857143,328.12857142857143,1167.2,511.22232142857143,357.12857142857143,1271,521.2223214285714,495.12857142857143,1376.4,536.2223214285714,525.1285714285714,1477.2,535.2223214285714,557.1285714285714,1581.7,535.2223214285714,560.1285714285714,1681.7,535.2223214285714,560.1285714285714,1782.7,535.2223214285714,560.1285714285714,1884.6,535.2223214285714,560.1285714285714,1994,535.2223214285714,560.1285714285714,2094.3,535.2223214285714,560.1285714285714,2194.5,535.2223214285714,560.1285714285714,2298.2,535.2223214285714,560.1285714285714,2398.5,535.2223214285714,560.1285714285714,2499,535.2223214285714,560.1285714285714,2602.4,535.2223214285714,560.1285714285714,2709.3,535.2223214285714,560.1285714285714,2811.2,535.2223214285714,560.1285714285714,2912.3,535.2223214285714,560.1285714285714,3015.1,535.2223214285714,560.1285714285714,3127.6,535.2223214285714,560.1285714285714,3230.6,535.2223214285714,560.1285714285714,3331,535.2223214285714,560.1285714285714,3437,535.2223214285714,560.1285714285714,3540.1,535.2223214285714,560.1285714285714,3645.4,535.2223214285714,560.1285714285714,3747.7,535.2223214285714,560.1285714285714,3851.6,535.2223214285714,560.1285714285714,3959.1,535.2223214285714,560.1285714285714,4059.1,535.2223214285714,560.1285714285714,4161,535.2223214285714,560.1285714285714,4263.2,535.2223214285714,560.1285714285714,4370.7,535.2223214285714,560.1285714285714,4476.5,535.2223214285714,560.1285714285714,4580.8,535.2223214285714,560.1285714285714,4680.9,535.2223214285714,560.1285714285714,4781,535.2223214285714,560.1285714285714,4886.1,535.2223214285714,560.1285714285714,4997.2]","[1364.8,1364.8,1000,0,364.8,""smooth"",""right"",""right"",""good_move"",4444.7,3075.8,2559.9,1368.9,515.9,""smooth"",""right"",""right"",""good_move"",6645.4,2197.9,1714.3,4447.6,483.6,""smooth"",""right"",""right"",""good_move"",9880.4,3232.8,2799.1,6647.6,433.8,""smooth"",""down"",""down"",""good_move"",13777.7,3895.3,3560.2,9882.4,335.2,""while_blue"",""down"",""down"",""good_move"",20510,6728.9,3013.8,16988.3,507.9,""smooth"",""down"",""down"",""good_move""]","",""
"4346","","<div style=""width:500px;"">
  <p>What determined the result of this run?</p>
  </div>","100","html-slider-response","10","276521","0.0-5.0-1.0","70","1","2025-07-16 08:31:33","1f75c3e559b7213887762d5229550c2b","105.245.180.190","Mozilla/5.0 (Windows NT 10.0; Win64; x64) AppleWebKit/537.36 (KHTML, like Gecko) Chrome/138.0.0.0 Safari/537.36","WebKit","Chrome","138.0.0.0","Windows","10.0","https://app.prolific.com/","en-US,en;q=0.9","67b89f64c09d83ec36fdd403","686e379bc37a29ffa5cdc956","6877604c65b3f0bc65c1e381","1","1","67b89f64c09d83ec36fdd403","1","1","2025-07-16T08:36:14.350Z","","","","","","","","","","","AttribQ","","50","","","","","","","","","","","","","","","","","","","","","","","","","","","","",""
"3493","","<div style=""width:500px;"">
  <p>How much control did you have over the ball?</p>
  </div>","100","html-slider-response","11","280022","0.0-5.0-2.0","70","1","2025-07-16 08:31:33","1f75c3e559b7213887762d5229550c2b","105.245.180.190","Mozilla/5.0 (Windows NT 10.0; Win64; x64) AppleWebKit/537.36 (KHTML, like Gecko) Chrome/138.0.0.0 Safari/537.36","WebKit","Chrome","138.0.0.0","Windows","10.0","https://app.prolific.com/","en-US,en;q=0.9","67b89f64c09d83ec36fdd403","686e379bc37a29ffa5cdc956","6877604c65b3f0bc65c1e381","1","1","67b89f64c09d83ec36fdd403","1","1","2025-07-16T08:36:17.850Z","","","","","","","","","","","ControlQ","","50","","","","","","","","","","","","","","","","","","","","","","","","","","","","",""
"5093","","<div style=""width:500px;"">
  <p>How would you describe your current emotional state?</p>
  </div>","0","html-slider-response","12","285120","0.0-5.0-3.0","70","1","2025-07-16 08:31:33","1f75c3e559b7213887762d5229550c2b","105.245.180.190","Mozilla/5.0 (Windows NT 10.0; Win64; x64) AppleWebKit/537.36 (KHTML, like Gecko) Chrome/138.0.0.0 Safari/537.36","WebKit","Chrome","138.0.0.0","Windows","10.0","https://app.prolific.com/","en-US,en;q=0.9","67b89f64c09d83ec36fdd403","686e379bc37a29ffa5cdc956","6877604c65b3f0bc65c1e381","1","1","67b89f64c09d83ec36fdd403","1","1","2025-07-16T08:36:22.948Z","","","","","","","","","","","StressQ","","50","","","","","","","","","","","","","","","","","","","","","","","","","","","","",""
"5317","","<div style=""width:500px;"">
  <p>What best describes how you currently feel?</p>
  </div>","100","html-slider-response","13","290443","0.0-5.0-4.0","70","1","2025-07-16 08:31:33","1f75c3e559b7213887762d5229550c2b","105.245.180.190","Mozilla/5.0 (Windows NT 10.0; Win64; x64) AppleWebKit/537.36 (KHTML, like Gecko) Chrome/138.0.0.0 Safari/537.36","WebKit","Chrome","138.0.0.0","Windows","10.0","https://app.prolific.com/","en-US,en;q=0.9","67b89f64c09d83ec36fdd403","686e379bc37a29ffa5cdc956","6877604c65b3f0bc65c1e381","1","1","67b89f64c09d83ec36fdd403","1","1","2025-07-16T08:36:28.272Z","","","","","","","","","","","MotivationQ","","50","","","","","","","","","","","","","","","","","","","","","","","","","","","","",""
"","","","","ctl-task-cpt","14","321499","0.0-5.0-0.1","70","1","2025-07-16 08:31:33","1f75c3e559b7213887762d5229550c2b","105.245.180.190","Mozilla/5.0 (Windows NT 10.0; Win64; x64) AppleWebKit/537.36 (KHTML, like Gecko) Chrome/138.0.0.0 Safari/537.36","WebKit","Chrome","138.0.0.0","Windows","10.0","https://app.prolific.com/","en-US,en;q=0.9","67b89f64c09d83ec36fdd403","686e379bc37a29ffa5cdc956","6877604c65b3f0bc65c1e381","1","1","67b89f64c09d83ec36fdd403","1","1","2025-07-16T08:36:59.327Z","","","","","","","","","","","","","","win-only","1","g1:NE,g2:SW","0.9","2","0","293421.8","1213.2","6217.2","28042.5","1","4","8","6","2","8","7","10","3","0.07575757575757576","1420.5","3000","715","[""down"",""left""]","{""num_key_presses"":8,""num_perfect"":7,""num_errors"":1,""num_randdir"":0,""num_randdir_good_moves"":0,""num_whilered"":0,""num_whileblue"":1,""num_blue"":1,""num_good_moves"":7}","[291.22232142857143,297.12857142857143,9.9,291.22232142857143,297.12857142857143,105.6,291.22232142857143,297.12857142857143,215.1,291.22232142857143,297.12857142857143,319.9,291.22232142857143,297.12857142857143,427.3,299.22232142857143,296.12857142857143,529.5,316.22232142857143,293.12857142857143,629.7,315.22232142857143,310.12857142857143,737.9,252.22232142857143,408.12857142857143,840.1,175.22232142857143,469.12857142857143,945.4,141.22232142857143,500.12857142857143,1050.2,120.22232142857143,510.12857142857143,1150.7,90.22232142857143,537.1285714285714,1255.2,65.22232142857143,549.1285714285714,1357.2,59.222321428571426,549.1285714285714,1468.4,59.222321428571426,549.1285714285714,1573.6,59.222321428571426,549.1285714285714,1675.5,59.222321428571426,549.1285714285714,1778.6,59.222321428571426,549.1285714285714,1886.3,59.222321428571426,549.1285714285714,1989,139.22232142857143,513.1285714285714,2101.8,220.22232142857143,492.12857142857143,2202.4,289.22232142857143,475.12857142857143,2304.4,443.22232142857143,435.12857142857143,2411.1,443.22232142857143,435.12857142857143,2511.1,443.22232142857143,435.12857142857143,2612.9,443.22232142857143,435.12857142857143,2713,443.22232142857143,435.12857142857143,2818.1,443.22232142857143,435.12857142857143,2918.9,443.22232142857143,435.12857142857143,3035.5,443.22232142857143,435.12857142857143,3137.9,443.22232142857143,435.12857142857143,3245.4,443.22232142857143,435.12857142857143,3350.4,443.22232142857143,435.12857142857143,3459.6,443.22232142857143,435.12857142857143,3565.5,443.22232142857143,435.12857142857143,3667.1,443.22232142857143,435.12857142857143,3767.7,443.22232142857143,435.12857142857143,3870.7,443.22232142857143,435.12857142857143,3983.7,443.22232142857143,435.12857142857143,4083.9,443.22232142857143,435.12857142857143,4194,443.22232142857143,435.12857142857143,4294.6,443.22232142857143,435.12857142857143,4394.6,443.22232142857143,435.12857142857143,4497.4,443.22232142857143,435.12857142857143,4598.7,443.22232142857143,435.12857142857143,4700.6,443.22232142857143,435.12857142857143,4801.3,443.22232142857143,435.12857142857143,4902.3]","[1341,1340.9,1000,0.1,340.9,""smooth"",""down"",""down"",""good_move"",4247.2,2904.6,2446.7,1342.6,458,""smooth"",""down"",""down"",""good_move"",7660.7,3411.7,2933.6,4249,478.1,""smooth"",""down"",""down"",""good_move"",10579.4,2916.4,2535.6,7663.1,380.8,""smooth"",""left"",""left"",""good_move"",13542,2957.8,2564.2,10584.2,393.6,""smooth"",""left"",""left"",""good_move"",16312.4,2767.7,2348,13544.7,419.7,""while_blue"",""left"",""right"",""bad_move"",19428.2,3112.8,2462.9,16315.4,649.9,""smooth"",""left"",""left"",""good_move"",21690,2261,1836.7,19429,424.3,""smooth"",""left"",""left"",""good_move""]","",""
"3471","","<div style=""width:500px;"">
  <p>What determined the result of this run?</p>
  </div>","100","html-slider-response","15","324972","0.0-5.0-1.1","70","1","2025-07-16 08:31:33","1f75c3e559b7213887762d5229550c2b","105.245.180.190","Mozilla/5.0 (Windows NT 10.0; Win64; x64) AppleWebKit/537.36 (KHTML, like Gecko) Chrome/138.0.0.0 Safari/537.36","WebKit","Chrome","138.0.0.0","Windows","10.0","https://app.prolific.com/","en-US,en;q=0.9","67b89f64c09d83ec36fdd403","686e379bc37a29ffa5cdc956","6877604c65b3f0bc65c1e381","1","1","67b89f64c09d83ec36fdd403","1","1","2025-07-16T08:37:02.800Z","","","","","","","","","","","AttribQ","","50","","","","","","","","","","","","","","","","","","","","","","","","","","","","",""
"4165","","<div style=""width:500px;"">
  <p>How much control did you have over the ball?</p>
  </div>","100","html-slider-response","16","329141","0.0-5.0-2.1","70","1","2025-07-16 08:31:33","1f75c3e559b7213887762d5229550c2b","105.245.180.190","Mozilla/5.0 (Windows NT 10.0; Win64; x64) AppleWebKit/537.36 (KHTML, like Gecko) Chrome/138.0.0.0 Safari/537.36","WebKit","Chrome","138.0.0.0","Windows","10.0","https://app.prolific.com/","en-US,en;q=0.9","67b89f64c09d83ec36fdd403","686e379bc37a29ffa5cdc956","6877604c65b3f0bc65c1e381","1","1","67b89f64c09d83ec36fdd403","1","1","2025-07-16T08:37:06.970Z","","","","","","","","","","","ControlQ","","50","","","","","","","","","","","","","","","","","","","","","","","","","","","","",""
"2724","","<div style=""width:500px;"">
  <p>How would you describe your current emotional state?</p>
  </div>","0","html-slider-response","17","331869","0.0-5.0-3.1","70","1","2025-07-16 08:31:33","1f75c3e559b7213887762d5229550c2b","105.245.180.190","Mozilla/5.0 (Windows NT 10.0; Win64; x64) AppleWebKit/537.36 (KHTML, like Gecko) Chrome/138.0.0.0 Safari/537.36","WebKit","Chrome","138.0.0.0","Windows","10.0","https://app.prolific.com/","en-US,en;q=0.9","67b89f64c09d83ec36fdd403","686e379bc37a29ffa5cdc956","6877604c65b3f0bc65c1e381","1","1","67b89f64c09d83ec36fdd403","1","1","2025-07-16T08:37:09.698Z","","","","","","","","","","","StressQ","","50","","","","","","","","","","","","","","","","","","","","","","","","","","","","",""
"3429","","<div style=""width:500px;"">
  <p>What best describes how you currently feel?</p>
  </div>","100","html-slider-response","18","335302","0.0-5.0-4.1","70","1","2025-07-16 08:31:33","1f75c3e559b7213887762d5229550c2b","105.245.180.190","Mozilla/5.0 (Windows NT 10.0; Win64; x64) AppleWebKit/537.36 (KHTML, like Gecko) Chrome/138.0.0.0 Safari/537.36","WebKit","Chrome","138.0.0.0","Windows","10.0","https://app.prolific.com/","en-US,en;q=0.9","67b89f64c09d83ec36fdd403","686e379bc37a29ffa5cdc956","6877604c65b3f0bc65c1e381","1","1","67b89f64c09d83ec36fdd403","1","1","2025-07-16T08:37:13.130Z","","","","","","","","","","","MotivationQ","","50","","","","","","","","","","","","","","","","","","","","","","","","","","","","",""
"","","","","ctl-task-cpt","19","381725","0.0-5.0-0.2","70","1","2025-07-16 08:31:33","1f75c3e559b7213887762d5229550c2b","105.245.180.190","Mozilla/5.0 (Windows NT 10.0; Win64; x64) AppleWebKit/537.36 (KHTML, like Gecko) Chrome/138.0.0.0 Safari/537.36","WebKit","Chrome","138.0.0.0","Windows","10.0","https://app.prolific.com/","en-US,en;q=0.9","67b89f64c09d83ec36fdd403","686e379bc37a29ffa5cdc956","6877604c65b3f0bc65c1e381","1","1","67b89f64c09d83ec36fdd403","1","1","2025-07-16T08:37:59.553Z","","","","","","","","","","","","","","win-only","0","g1:NW,g2:SE","0.8","3","0","338282.6","1833","6837.5","43394.9","1","4","8","6","2","8","7","17","10","0.12878787878787878","1167.3","3000","260","[""down"",""right""]","{""num_key_presses"":9,""num_perfect"":7,""num_errors"":1,""num_randdir"":1,""num_randdir_good_moves"":0,""num_whilered"":0,""num_whileblue"":0,""num_blue"":3,""num_good_moves"":7}","[301.22232142857143,294.12857142857143,0.5,301.22232142857143,294.12857142857143,107.3,301.22232142857143,294.12857142857143,213.7,301.22232142857143,294.12857142857143,317.6,301.22232142857143,294.12857142857143,422.1,304.22232142857143,294.12857142857143,528.3,362.22232142857143,294.12857142857143,634.2,413.22232142857143,399.12857142857143,734.2,487.22232142857143,492.12857142857143,839.1,499.22232142857143,512.1285714285714,943,509.22232142857143,521.1285714285714,1049.5,514.2223214285714,523.1285714285714,1150.4,515.2223214285714,524.1285714285714,1258,515.2223214285714,524.1285714285714,1362,515.2223214285714,524.1285714285714,1470,515.2223214285714,524.1285714285714,1574.8,515.2223214285714,524.1285714285714,1680.1,515.2223214285714,524.1285714285714,1788.6,515.2223214285714,524.1285714285714,1890.2,515.2223214285714,524.1285714285714,1992.7,515.2223214285714,524.1285714285714,2093.9,515.2223214285714,524.1285714285714,2196.5,515.2223214285714,524.1285714285714,2312.1,515.2223214285714,524.1285714285714,2421.5,515.2223214285714,524.1285714285714,2524.5,515.2223214285714,524.1285714285714,2635.1,515.2223214285714,524.1285714285714,2740.5,515.2223214285714,524.1285714285714,2847.4,515.2223214285714,524.1285714285714,2950.3,515.2223214285714,524.1285714285714,3055.9,515.2223214285714,524.1285714285714,3159.9,515.2223214285714,524.1285714285714,3263.3,515.2223214285714,524.1285714285714,3367.6,515.2223214285714,524.1285714285714,3468.9,515.2223214285714,524.1285714285714,3573.6,515.2223214285714,524.1285714285714,3674.7,515.2223214285714,524.1285714285714,3780.6,515.2223214285714,524.1285714285714,3884.6,515.2223214285714,524.1285714285714,3991.4,515.2223214285714,524.1285714285714,4094,515.2223214285714,524.1285714285714,4195.6,515.2223214285714,524.1285714285714,4299.1,515.2223214285714,524.1285714285714,4402,515.2223214285714,524.1285714285714,4506.3,515.2223214285714,524.1285714285714,4610.8,515.2223214285714,524.1285714285714,4712.5,515.2223214285714,524.1285714285714,4812.8,515.2223214285714,524.1285714285714,4913.9]","[1355.8,1355.8,1000,0,355.8,""smooth"",""right"",""right"",""good_move"",3925.9,2568.5,2018.9,1357.4,549.6,""smooth"",""right"",""right"",""good_move"",9937.8,6009.9,2801.3,7358.2,-221.7,""error"",""-"",""-"",""no_move"",14367.7,4427.3,2992.4,10943.1,432.2,""smooth"",""right"",""right"",""good_move"",17575.5,3206.7,2629.5,14369,577,""oops"",""down"",""left"",""bad_move"",20790.8,3212.2,2796.4,17578.6,415.8,""smooth"",""down"",""down"",""good_move"",23132.3,2339.7,1783.8,20792.6,555.9,""smooth"",""right"",""right"",""good_move"",26558,3422.1,2982.4,23135.9,439.7,""smooth"",""down"",""down"",""good_move"",36417.3,9855,3166,32897.6,353.7,""smooth"",""down"",""down"",""good_move""]","",""
"4281","","<div style=""width:500px;"">
  <p>What determined the result of this run?</p>
  </div>","100","html-slider-response","20","386009","0.0-5.0-1.2","70","1","2025-07-16 08:31:33","1f75c3e559b7213887762d5229550c2b","105.245.180.190","Mozilla/5.0 (Windows NT 10.0; Win64; x64) AppleWebKit/537.36 (KHTML, like Gecko) Chrome/138.0.0.0 Safari/537.36","WebKit","Chrome","138.0.0.0","Windows","10.0","https://app.prolific.com/","en-US,en;q=0.9","67b89f64c09d83ec36fdd403","686e379bc37a29ffa5cdc956","6877604c65b3f0bc65c1e381","1","1","67b89f64c09d83ec36fdd403","1","1","2025-07-16T08:38:03.837Z","","","","","","","","","","","AttribQ","","50","","","","","","","","","","","","","","","","","","","","","","","","","","","","",""
"3208","","<div style=""width:500px;"">
  <p>How much control did you have over the ball?</p>
  </div>","100","html-slider-response","21","389221","0.0-5.0-2.2","70","1","2025-07-16 08:31:33","1f75c3e559b7213887762d5229550c2b","105.245.180.190","Mozilla/5.0 (Windows NT 10.0; Win64; x64) AppleWebKit/537.36 (KHTML, like Gecko) Chrome/138.0.0.0 Safari/537.36","WebKit","Chrome","138.0.0.0","Windows","10.0","https://app.prolific.com/","en-US,en;q=0.9","67b89f64c09d83ec36fdd403","686e379bc37a29ffa5cdc956","6877604c65b3f0bc65c1e381","1","1","67b89f64c09d83ec36fdd403","1","1","2025-07-16T08:38:07.049Z","","","","","","","","","","","ControlQ","","50","","","","","","","","","","","","","","","","","","","","","","","","","","","","",""
"2583","","<div style=""width:500px;"">
  <p>How would you describe your current emotional state?</p>
  </div>","0","html-slider-response","22","391807","0.0-5.0-3.2","70","1","2025-07-16 08:31:33","1f75c3e559b7213887762d5229550c2b","105.245.180.190","Mozilla/5.0 (Windows NT 10.0; Win64; x64) AppleWebKit/537.36 (KHTML, like Gecko) Chrome/138.0.0.0 Safari/537.36","WebKit","Chrome","138.0.0.0","Windows","10.0","https://app.prolific.com/","en-US,en;q=0.9","67b89f64c09d83ec36fdd403","686e379bc37a29ffa5cdc956","6877604c65b3f0bc65c1e381","1","1","67b89f64c09d83ec36fdd403","1","1","2025-07-16T08:38:09.635Z","","","","","","","","","","","StressQ","","50","","","","","","","","","","","","","","","","","","","","","","","","","","","","",""
"3644","","<div style=""width:500px;"">
  <p>What best describes how you currently feel?</p>
  </div>","100","html-slider-response","23","395452","0.0-5.0-4.2","70","1","2025-07-16 08:31:33","1f75c3e559b7213887762d5229550c2b","105.245.180.190","Mozilla/5.0 (Windows NT 10.0; Win64; x64) AppleWebKit/537.36 (KHTML, like Gecko) Chrome/138.0.0.0 Safari/537.36","WebKit","Chrome","138.0.0.0","Windows","10.0","https://app.prolific.com/","en-US,en;q=0.9","67b89f64c09d83ec36fdd403","686e379bc37a29ffa5cdc956","6877604c65b3f0bc65c1e381","1","1","67b89f64c09d83ec36fdd403","1","1","2025-07-16T08:38:13.281Z","","","","","","","","","","","MotivationQ","","50","","","","","","","","","","","","","","","","","","","","","","","","","","","","",""
"","","","","ctl-task-cpt","24","441502","0.0-5.0-0.3","70","1","2025-07-16 08:31:33","1f75c3e559b7213887762d5229550c2b","105.245.180.190","Mozilla/5.0 (Windows NT 10.0; Win64; x64) AppleWebKit/537.36 (KHTML, like Gecko) Chrome/138.0.0.0 Safari/537.36","WebKit","Chrome","138.0.0.0","Windows","10.0","https://app.prolific.com/","en-US,en;q=0.9","67b89f64c09d83ec36fdd403","686e379bc37a29ffa5cdc956","6877604c65b3f0bc65c1e381","1","1","67b89f64c09d83ec36fdd403","1","1","2025-07-16T08:38:59.330Z","","","","","","","","","","","","","","win-only","0","g1:NW,g2:SE","0.7","4","0","398432.5","1766.6","6783.6","43037.3","1","4","4","6","2","4","4","21","17","0.1590909090909091","1996.6","3000","30","[""down"",""right""]","{""num_key_presses"":10,""num_perfect"":7,""num_errors"":0,""num_randdir"":3,""num_randdir_good_moves"":1,""num_whilered"":0,""num_whileblue"":0,""num_blue"":3,""num_good_moves"":8}","[298.22232142857143,295.12857142857143,0.5,298.22232142857143,295.12857142857143,101.4,298.22232142857143,295.12857142857143,211.4,298.22232142857143,295.12857142857143,317.6,297.22232142857143,293.12857142857143,419.5,308.22232142857143,287.12857142857143,529.5,308.22232142857143,287.12857142857143,629.5,308.22232142857143,287.12857142857143,730.5,308.22232142857143,287.12857142857143,834.4,308.22232142857143,287.12857142857143,935.2,308.22232142857143,287.12857142857143,1040.2,308.22232142857143,287.12857142857143,1140.4,308.22232142857143,287.12857142857143,1241,308.22232142857143,287.12857142857143,1348.3,308.22232142857143,287.12857142857143,1450.5,397.22232142857143,387.12857142857143,1552.8,440.22232142857143,430.12857142857143,1654.9,495.22232142857143,468.12857142857143,1758.7,527.2223214285714,493.12857142857143,1863.4,536.2223214285714,499.12857142857143,1973.2,536.2223214285714,500.12857142857143,2076.3,536.2223214285714,500.12857142857143,2182.4,536.2223214285714,500.12857142857143,2286.2,536.2223214285714,500.12857142857143,2399.1,536.2223214285714,500.12857142857143,2501.8,536.2223214285714,500.12857142857143,2607.9,536.2223214285714,500.12857142857143,2716.7,536.2223214285714,500.12857142857143,2824.7,536.2223214285714,500.12857142857143,2933.6,536.2223214285714,500.12857142857143,3040.4,536.2223214285714,500.12857142857143,3148.5,536.2223214285714,500.12857142857143,3249.4,536.2223214285714,500.12857142857143,3350.1,536.2223214285714,500.12857142857143,3456,536.2223214285714,500.12857142857143,3558,536.2223214285714,500.12857142857143,3664.1,536.2223214285714,500.12857142857143,3766.6,536.2223214285714,500.12857142857143,3868.9,536.2223214285714,500.12857142857143,3969.2,536.2223214285714,500.12857142857143,4074.6,536.2223214285714,500.12857142857143,4176.7,536.2223214285714,500.12857142857143,4278.3,536.2223214285714,500.12857142857143,4380.4,536.2223214285714,500.12857142857143,4480.4,536.2223214285714,500.12857142857143,4582.2,536.2223214285714,500.12857142857143,4690.6,536.2223214285714,500.12857142857143,4795.5,536.2223214285714,500.12857142857143,4896.3,536.2223214285714,500.12857142857143,4996.8]","[1412.3,1412.3,1000,0,412.3,""smooth"",""right"",""right"",""good_move"",7491.3,6077.7,2399,4763.2,329.2,""smooth"",""down"",""down"",""good_move"",13179.8,5686.3,2017,10737.5,425.4,""smooth"",""down"",""down"",""good_move"",15741.6,2560.9,2021.8,13180.7,539.1,""smooth"",""right"",""right"",""good_move"",18789.9,3046.9,2718.2,15743,328.7,""oops"",""down"",""down"",""good_move"",20958.8,2167,1664.6,18791.9,502.4,""oops"",""right"",""up"",""bad_move"",23937.1,2976.3,2512.3,20960.8,464,""smooth"",""down"",""down"",""good_move"",26597,2657.5,2328.4,23939.5,329.2,""oops"",""right"",""left"",""bad_move"",33473,6872.6,2393.9,30689.6,389.5,""smooth"",""right"",""right"",""good_move"",36126.8,2653,2072.8,33473.8,580.2,""smooth"",""right"",""right"",""good_move""]","",""
"2923","","<div style=""width:500px;"">
  <p>What determined the result of this run?</p>
  </div>","100","html-slider-response","25","444430","0.0-5.0-1.3","70","1","2025-07-16 08:31:33","1f75c3e559b7213887762d5229550c2b","105.245.180.190","Mozilla/5.0 (Windows NT 10.0; Win64; x64) AppleWebKit/537.36 (KHTML, like Gecko) Chrome/138.0.0.0 Safari/537.36","WebKit","Chrome","138.0.0.0","Windows","10.0","https://app.prolific.com/","en-US,en;q=0.9","67b89f64c09d83ec36fdd403","686e379bc37a29ffa5cdc956","6877604c65b3f0bc65c1e381","1","1","67b89f64c09d83ec36fdd403","1","1","2025-07-16T08:39:02.258Z","","","","","","","","","","","AttribQ","","50","","","","","","","","","","","","","","","","","","","","","","","","","","","","",""
"4518","","<div style=""width:500px;"">
  <p>How much control did you have over the ball?</p>
  </div>","100","html-slider-response","26","448954","0.0-5.0-2.3","70","1","2025-07-16 08:31:33","1f75c3e559b7213887762d5229550c2b","105.245.180.190","Mozilla/5.0 (Windows NT 10.0; Win64; x64) AppleWebKit/537.36 (KHTML, like Gecko) Chrome/138.0.0.0 Safari/537.36","WebKit","Chrome","138.0.0.0","Windows","10.0","https://app.prolific.com/","en-US,en;q=0.9","67b89f64c09d83ec36fdd403","686e379bc37a29ffa5cdc956","6877604c65b3f0bc65c1e381","1","1","67b89f64c09d83ec36fdd403","1","1","2025-07-16T08:39:06.782Z","","","","","","","","","","","ControlQ","","50","","","","","","","","","","","","","","","","","","","","","","","","","","","","",""
"4380","","<div style=""width:500px;"">
  <p>How would you describe your current emotional state?</p>
  </div>","0","html-slider-response","27","453338","0.0-5.0-3.3","70","1","2025-07-16 08:31:33","1f75c3e559b7213887762d5229550c2b","105.245.180.190","Mozilla/5.0 (Windows NT 10.0; Win64; x64) AppleWebKit/537.36 (KHTML, like Gecko) Chrome/138.0.0.0 Safari/537.36","WebKit","Chrome","138.0.0.0","Windows","10.0","https://app.prolific.com/","en-US,en;q=0.9","67b89f64c09d83ec36fdd403","686e379bc37a29ffa5cdc956","6877604c65b3f0bc65c1e381","1","1","67b89f64c09d83ec36fdd403","1","1","2025-07-16T08:39:11.166Z","","","","","","","","","","","StressQ","","50","","","","","","","","","","","","","","","","","","","","","","","","","","","","",""
"4429","","<div style=""width:500px;"">
  <p>What best describes how you currently feel?</p>
  </div>","100","html-slider-response","28","457770","0.0-5.0-4.3","70","1","2025-07-16 08:31:33","1f75c3e559b7213887762d5229550c2b","105.245.180.190","Mozilla/5.0 (Windows NT 10.0; Win64; x64) AppleWebKit/537.36 (KHTML, like Gecko) Chrome/138.0.0.0 Safari/537.36","WebKit","Chrome","138.0.0.0","Windows","10.0","https://app.prolific.com/","en-US,en;q=0.9","67b89f64c09d83ec36fdd403","686e379bc37a29ffa5cdc956","6877604c65b3f0bc65c1e381","1","1","67b89f64c09d83ec36fdd403","1","1","2025-07-16T08:39:15.600Z","","","","","","","","","","","MotivationQ","","50","","","","","","","","","","","","","","","","","","","","","","","","","","","","",""
"","","","","ctl-task-cpt","29","502647","0.0-5.0-0.4","70","1","2025-07-16 08:31:33","1f75c3e559b7213887762d5229550c2b","105.245.180.190","Mozilla/5.0 (Windows NT 10.0; Win64; x64) AppleWebKit/537.36 (KHTML, like Gecko) Chrome/138.0.0.0 Safari/537.36","WebKit","Chrome","138.0.0.0","Windows","10.0","https://app.prolific.com/","en-US,en;q=0.9","67b89f64c09d83ec36fdd403","686e379bc37a29ffa5cdc956","6877604c65b3f0bc65c1e381","1","1","67b89f64c09d83ec36fdd403","1","1","2025-07-16T08:40:00.476Z","","","","","","","","","","","","","","win-only","1","g1:NE,g2:SW","0.6","5","0","460753.4","1399.3","6412.7","41851.7","1","4","8","6","2","-8","-8","13","21","0.09848484848484848","1073.2","3000","-1975","[""down"",""left""]","{""num_key_presses"":9,""num_perfect"":6,""num_errors"":0,""num_randdir"":3,""num_randdir_good_moves"":1,""num_whilered"":0,""num_whileblue"":0,""num_blue"":2,""num_good_moves"":7}","[292.22232142857143,292.12857142857143,15.5,292.22232142857143,292.12857142857143,103.3,292.22232142857143,292.12857142857143,220.2,292.22232142857143,292.12857142857143,328.5,292.22232142857143,292.12857142857143,431,292.22232142857143,292.12857142857143,541.7,191.22232142857143,417.12857142857143,654,81.22232142857143,578.1285714285714,756.7,75.22232142857143,573.1285714285714,862.8,71.22232142857143,567.1285714285714,963.7,68.22232142857143,563.1285714285714,1063.7,68.22232142857143,563.1285714285714,1170.8,68.22232142857143,563.1285714285714,1275.8,68.22232142857143,563.1285714285714,1380.1,68.22232142857143,563.1285714285714,1485.8,142.22232142857143,534.1285714285714,1592.1,294.22232142857143,487.12857142857143,1696,323.22232142857143,488.12857142857143,1798.9,517.2223214285714,447.12857142857143,1913.4,610.2223214285714,441.12857142857143,2024.2,610.2223214285714,441.12857142857143,2128,610.2223214285714,441.12857142857143,2228.8,610.2223214285714,441.12857142857143,2333.6,610.2223214285714,441.12857142857143,2440.9,610.2223214285714,441.12857142857143,2545.9,610.2223214285714,441.12857142857143,2648.1,610.2223214285714,441.12857142857143,2752.4,610.2223214285714,441.12857142857143,2853.1,610.2223214285714,441.12857142857143,2958.6,610.2223214285714,441.12857142857143,3066.9,610.2223214285714,441.12857142857143,3176.2,610.2223214285714,441.12857142857143,3276.8,610.2223214285714,441.12857142857143,3381.2,610.2223214285714,441.12857142857143,3483.9,610.2223214285714,441.12857142857143,3589.1,610.2223214285714,441.12857142857143,3690.7,610.2223214285714,441.12857142857143,3792.7,610.2223214285714,441.12857142857143,3894,610.2223214285714,441.12857142857143,3997.1,610.2223214285714,441.12857142857143,4098,610.2223214285714,441.12857142857143,4209.3,610.2223214285714,441.12857142857143,4309.5,610.2223214285714,441.12857142857143,4414.4,610.2223214285714,441.12857142857143,4514.8,610.2223214285714,441.12857142857143,4616.3,610.2223214285714,441.12857142857143,4726.2,610.2223214285714,441.12857142857143,4833.8,610.2223214285714,441.12857142857143,4942.8]","[1469.3,1469.4,1000,0,469.4,""oops"",""down"",""down"",""good_move"",4334.1,2862.3,2482.7,1471.9,379.6,""smooth"",""down"",""down"",""good_move"",7506.5,3168.1,2744.6,4338.4,423.5,""smooth"",""left"",""left"",""good_move"",13584.6,6063.4,2223.6,10968.3,392.7,""oops"",""left"",""right"",""bad_move"",16906.9,3308.7,2853.2,13598.2,455.5,""smooth"",""down"",""down"",""good_move"",20191.7,3281,2714.4,16910.7,566.6,""oops"",""left"",""up"",""bad_move"",23463.9,3270.5,2650.2,20193.5,620.3,""smooth"",""left"",""left"",""good_move"",29560.8,6092.8,2186.3,26863.9,510.6,""smooth"",""down"",""down"",""good_move"",32791.1,3229.5,2692,29561.6,537.5,""smooth"",""left"",""left"",""good_move""]","",""
"4825","","<div style=""width:500px;"">
  <p>What determined the result of this run?</p>
  </div>","11","html-slider-response","30","507474","0.0-5.0-1.4","70","1","2025-07-16 08:31:33","1f75c3e559b7213887762d5229550c2b","105.245.180.190","Mozilla/5.0 (Windows NT 10.0; Win64; x64) AppleWebKit/537.36 (KHTML, like Gecko) Chrome/138.0.0.0 Safari/537.36","WebKit","Chrome","138.0.0.0","Windows","10.0","https://app.prolific.com/","en-US,en;q=0.9","67b89f64c09d83ec36fdd403","686e379bc37a29ffa5cdc956","6877604c65b3f0bc65c1e381","1","1","67b89f64c09d83ec36fdd403","1","1","2025-07-16T08:40:05.304Z","","","","","","","","","","","AttribQ","","50","","","","","","","","","","","","","","","","","","","","","","","","","","","","",""
"6148","","<div style=""width:500px;"">
  <p>How much control did you have over the ball?</p>
  </div>","100","html-slider-response","31","513627","0.0-5.0-2.4","70","1","2025-07-16 08:31:33","1f75c3e559b7213887762d5229550c2b","105.245.180.190","Mozilla/5.0 (Windows NT 10.0; Win64; x64) AppleWebKit/537.36 (KHTML, like Gecko) Chrome/138.0.0.0 Safari/537.36","WebKit","Chrome","138.0.0.0","Windows","10.0","https://app.prolific.com/","en-US,en;q=0.9","67b89f64c09d83ec36fdd403","686e379bc37a29ffa5cdc956","6877604c65b3f0bc65c1e381","1","1","67b89f64c09d83ec36fdd403","1","1","2025-07-16T08:40:11.457Z","","","","","","","","","","","ControlQ","","50","","","","","","","","","","","","","","","","","","","","","","","","","","","","",""
"3995","","<div style=""width:500px;"">
  <p>How would you describe your current emotional state?</p>
  </div>","0","html-slider-response","32","517630","0.0-5.0-3.4","70","1","2025-07-16 08:31:33","1f75c3e559b7213887762d5229550c2b","105.245.180.190","Mozilla/5.0 (Windows NT 10.0; Win64; x64) AppleWebKit/537.36 (KHTML, like Gecko) Chrome/138.0.0.0 Safari/537.36","WebKit","Chrome","138.0.0.0","Windows","10.0","https://app.prolific.com/","en-US,en;q=0.9","67b89f64c09d83ec36fdd403","686e379bc37a29ffa5cdc956","6877604c65b3f0bc65c1e381","1","1","67b89f64c09d83ec36fdd403","1","1","2025-07-16T08:40:15.458Z","","","","","","","","","","","StressQ","","50","","","","","","","","","","","","","","","","","","","","","","","","","","","","",""
"3210","","<div style=""width:500px;"">
  <p>What best describes how you currently feel?</p>
  </div>","100","html-slider-response","33","520844","0.0-5.0-4.4","70","1","2025-07-16 08:31:33","1f75c3e559b7213887762d5229550c2b","105.245.180.190","Mozilla/5.0 (Windows NT 10.0; Win64; x64) AppleWebKit/537.36 (KHTML, like Gecko) Chrome/138.0.0.0 Safari/537.36","WebKit","Chrome","138.0.0.0","Windows","10.0","https://app.prolific.com/","en-US,en;q=0.9","67b89f64c09d83ec36fdd403","686e379bc37a29ffa5cdc956","6877604c65b3f0bc65c1e381","1","1","67b89f64c09d83ec36fdd403","1","1","2025-07-16T08:40:18.674Z","","","","","","","","","","","MotivationQ","","50","","","","","","","","","","","","","","","","","","","","","","","","","","","","",""
"","","","","ctl-task-cpt","34","571035","0.0-5.0-0.5","70","1","2025-07-16 08:31:33","1f75c3e559b7213887762d5229550c2b","105.245.180.190","Mozilla/5.0 (Windows NT 10.0; Win64; x64) AppleWebKit/537.36 (KHTML, like Gecko) Chrome/138.0.0.0 Safari/537.36","WebKit","Chrome","138.0.0.0","Windows","10.0","https://app.prolific.com/","en-US,en;q=0.9","67b89f64c09d83ec36fdd403","686e379bc37a29ffa5cdc956","6877604c65b3f0bc65c1e381","1","1","67b89f64c09d83ec36fdd403","1","1","2025-07-16T08:41:08.863Z","","","","","","","","","","","","","","win-only","3","g1:SW,g2:NE","0.5","6","0","523827.7","1096.2","6098.5","47175","1","4","4","6","2","-4","-4","9","13","0.06818181818181818","1676.2","3000","-1925","[""up"",""right""]","{""num_key_presses"":9,""num_perfect"":5,""num_errors"":0,""num_randdir"":4,""num_randdir_good_moves"":1,""num_whilered"":0,""num_whileblue"":0,""num_blue"":3,""num_good_moves"":6}","[300.22232142857143,295.12857142857143,0.6,300.22232142857143,295.12857142857143,103.7,300.22232142857143,295.12857142857143,217.6,300.22232142857143,295.12857142857143,331.9,300.22232142857143,295.12857142857143,433.1,286.22232142857143,302.12857142857143,540.5,73.22232142857143,491.12857142857143,648.2,237.22232142857143,342.12857142857143,760.2,425.22232142857143,158.12857142857143,883.2,442.22232142857143,129.12857142857143,983.2,444.22232142857143,125.12857142857143,1090.4,486.22232142857143,92.12857142857143,1196.3,517.2223214285714,63.128571428571426,1297.4,533.2223214285714,39.128571428571426,1407.5,534.2223214285714,42.128571428571426,1514,534.2223214285714,45.128571428571426,1616.6,534.2223214285714,47.128571428571426,1716.7,534.2223214285714,47.128571428571426,1817.8,534.2223214285714,47.128571428571426,1928.4,534.2223214285714,47.128571428571426,2041.7,534.2223214285714,50.128571428571426,2142.3,545.2223214285714,64.12857142857143,2244.8,632.2223214285714,53.128571428571426,2345.1,632.2223214285714,53.128571428571426,2457.2,632.2223214285714,53.128571428571426,2565.5,632.2223214285714,53.128571428571426,2665.6,632.2223214285714,53.128571428571426,2770.3,632.2223214285714,53.128571428571426,2878.7,632.2223214285714,53.128571428571426,2980.8,632.2223214285714,53.128571428571426,3081.4,632.2223214285714,53.128571428571426,3181.8,632.2223214285714,53.128571428571426,3290.4,632.2223214285714,53.128571428571426,3391,632.2223214285714,53.128571428571426,3491.7,632.2223214285714,53.128571428571426,3594.4,632.2223214285714,53.128571428571426,3698.6,632.2223214285714,53.128571428571426,3805.2,632.2223214285714,53.128571428571426,3906.1,632.2223214285714,53.128571428571426,4014.9,632.2223214285714,53.128571428571426,4121.5,632.2223214285714,53.128571428571426,4227.1,632.2223214285714,53.128571428571426,4333.8,632.2223214285714,53.128571428571426,4441.2,632.2223214285714,53.128571428571426,4541.4,632.2223214285714,53.128571428571426,4649,632.2223214285714,53.128571428571426,4751.1,632.2223214285714,53.128571428571426,4865,632.2223214285714,53.128571428571426,4965]","[9300.7,9300.6,3011.6,5827.6,461.5,""oops"",""right"",""down"",""bad_move"",12487.4,3180.7,2055.6,9306.7,1125.1,""oops"",""right"",""left"",""bad_move"",15779.6,3288.6,2933,12491,355.6,""smooth"",""right"",""right"",""good_move"",18439.4,2655.2,2220.5,15784.2,434.7,""smooth"",""right"",""right"",""good_move"",21555,3107,2719.1,18448,387.9,""oops"",""right"",""right"",""good_move"",24286.4,2729.7,2304.7,21556.8,424.9,""smooth"",""right"",""right"",""good_move"",27605.5,3315.9,2893,24289.6,422.9,""smooth"",""up"",""up"",""good_move"",35238.6,7630.9,2939,32005.4,294.2,""smooth"",""up"",""up"",""good_move"",38263.7,3023,2551.7,35240.7,471.3,""oops"",""up"",""left"",""bad_move""]","",""
"26991","","<div style=""width:500px;"">
  <p>What determined the result of this run?</p>
  </div>","100","html-slider-response","35","598028","0.0-5.0-1.5","70","1","2025-07-16 08:31:33","1f75c3e559b7213887762d5229550c2b","105.245.180.190","Mozilla/5.0 (Windows NT 10.0; Win64; x64) AppleWebKit/537.36 (KHTML, like Gecko) Chrome/138.0.0.0 Safari/537.36","WebKit","Chrome","138.0.0.0","Windows","10.0","https://app.prolific.com/","en-US,en;q=0.9","67b89f64c09d83ec36fdd403","686e379bc37a29ffa5cdc956","6877604c65b3f0bc65c1e381","1","1","67b89f64c09d83ec36fdd403","1","1","2025-07-16T08:41:35.857Z","","","","","","","","","","","AttribQ","","50","","","","","","","","","","","","","","","","","","","","","","","","","","","","",""
"45020","","<div style=""width:500px;"">
  <p>How much control did you have over the ball?</p>
  </div>","98","html-slider-response","36","643052","0.0-5.0-2.5","70","1","2025-07-16 08:31:33","1f75c3e559b7213887762d5229550c2b","105.245.180.190","Mozilla/5.0 (Windows NT 10.0; Win64; x64) AppleWebKit/537.36 (KHTML, like Gecko) Chrome/138.0.0.0 Safari/537.36","WebKit","Chrome","138.0.0.0","Windows","10.0","https://app.prolific.com/","en-US,en;q=0.9","67b89f64c09d83ec36fdd403","686e379bc37a29ffa5cdc956","6877604c65b3f0bc65c1e381","1","1","67b89f64c09d83ec36fdd403","1","1","2025-07-16T08:42:20.880Z","","","","","","","","","","","ControlQ","","50","","","","","","","","","","","","","","","","","","","","","","","","","","","","",""
"4145","","<div style=""width:500px;"">
  <p>How would you describe your current emotional state?</p>
  </div>","76","html-slider-response","37","647200","0.0-5.0-3.5","70","1","2025-07-16 08:31:33","1f75c3e559b7213887762d5229550c2b","105.245.180.190","Mozilla/5.0 (Windows NT 10.0; Win64; x64) AppleWebKit/537.36 (KHTML, like Gecko) Chrome/138.0.0.0 Safari/537.36","WebKit","Chrome","138.0.0.0","Windows","10.0","https://app.prolific.com/","en-US,en;q=0.9","67b89f64c09d83ec36fdd403","686e379bc37a29ffa5cdc956","6877604c65b3f0bc65c1e381","1","1","67b89f64c09d83ec36fdd403","1","1","2025-07-16T08:42:25.029Z","","","","","","","","","","","StressQ","","50","","","","","","","","","","","","","","","","","","","","","","","","","","","","",""
"4279","","<div style=""width:500px;"">
  <p>What best describes how you currently feel?</p>
  </div>","100","html-slider-response","38","651483","0.0-5.0-4.5","70","1","2025-07-16 08:31:33","1f75c3e559b7213887762d5229550c2b","105.245.180.190","Mozilla/5.0 (Windows NT 10.0; Win64; x64) AppleWebKit/537.36 (KHTML, like Gecko) Chrome/138.0.0.0 Safari/537.36","WebKit","Chrome","138.0.0.0","Windows","10.0","https://app.prolific.com/","en-US,en;q=0.9","67b89f64c09d83ec36fdd403","686e379bc37a29ffa5cdc956","6877604c65b3f0bc65c1e381","1","1","67b89f64c09d83ec36fdd403","1","1","2025-07-16T08:42:29.312Z","","","","","","","","","","","MotivationQ","","50","","","","","","","","","","","","","","","","","","","","","","","","","","","","",""
"","","","","ctl-task-cpt","39","698854","0.0-5.0-0.6","70","1","2025-07-16 08:31:33","1f75c3e559b7213887762d5229550c2b","105.245.180.190","Mozilla/5.0 (Windows NT 10.0; Win64; x64) AppleWebKit/537.36 (KHTML, like Gecko) Chrome/138.0.0.0 Safari/537.36","WebKit","Chrome","138.0.0.0","Windows","10.0","https://app.prolific.com/","en-US,en;q=0.9","67b89f64c09d83ec36fdd403","686e379bc37a29ffa5cdc956","6877604c65b3f0bc65c1e381","1","1","67b89f64c09d83ec36fdd403","1","1","2025-07-16T08:43:16.682Z","","","","","","","","","","","","","","win-only","2","g1:SE,g2:NW","0.4","7","0","654465.9","1422.9","6436.8","44345.7","1","4","4","6","2","-4","-5","4","9","0.030303030303030304","1611.3","3000","-2015","[""left"",""up""]","{""num_key_presses"":11,""num_perfect"":4,""num_errors"":1,""num_randdir"":6,""num_randdir_good_moves"":0,""num_whilered"":0,""num_whileblue"":0,""num_blue"":1,""num_good_moves"":4}","[297.22232142857143,300.12857142857143,10.5,297.22232142857143,300.12857142857143,104.5,297.22232142857143,300.12857142857143,212.7,297.22232142857143,300.12857142857143,322.2,297.22232142857143,300.12857142857143,423,303.22232142857143,321.12857142857143,532.6,322.22232142857143,353.12857142857143,635.5,327.22232142857143,361.12857142857143,738.3,342.22232142857143,369.12857142857143,841.5,301.22232142857143,329.12857142857143,946.5,13.222321428571426,100.12857142857143,1056.7,-14.777678571428574,78.12857142857143,1157.8,-27.777678571428574,59.128571428571426,1261.9,-21.777678571428574,55.128571428571426,1371.9,-3.7776785714285737,60.128571428571426,1480.5,19.222321428571426,64.12857142857143,1588.6,20.222321428571426,64.12857142857143,1695.1,20.222321428571426,64.12857142857143,1797.3,20.222321428571426,64.12857142857143,1899.9,20.222321428571426,64.12857142857143,2008.7,20.222321428571426,73.12857142857143,2111.8,20.222321428571426,73.12857142857143,2228.9,20.222321428571426,73.12857142857143,2329.1,51.222321428571426,103.12857142857143,2437.4,187.22232142857143,219.12857142857143,2546.8,349.22232142857143,373.12857142857143,2648.6,358.22232142857143,376.12857142857143,2752,358.22232142857143,376.12857142857143,2859.2,358.22232142857143,376.12857142857143,2962.8,358.22232142857143,376.12857142857143,3063.1,358.22232142857143,376.12857142857143,3168.4,358.22232142857143,376.12857142857143,3269.4,358.22232142857143,376.12857142857143,3375,358.22232142857143,376.12857142857143,3475.2,358.22232142857143,376.12857142857143,3588.7,358.22232142857143,376.12857142857143,3693.5,358.22232142857143,376.12857142857143,3794.6,358.22232142857143,376.12857142857143,3895.4,358.22232142857143,376.12857142857143,3997.8,358.22232142857143,376.12857142857143,4097.9,358.22232142857143,376.12857142857143,4198.5,358.22232142857143,376.12857142857143,4302.6,358.22232142857143,376.12857142857143,4406.3,358.22232142857143,376.12857142857143,4512.1,358.22232142857143,376.12857142857143,4618.1,358.22232142857143,376.12857142857143,4726,358.22232142857143,376.12857142857143,4828.9,358.22232142857143,376.12857142857143,4935.5]","[399.8,399.8,1000,0,-600.2,""error"",""-"",""-"",""no_move"",4424.1,4021.4,2533.5,1403.5,487.1,""smooth"",""up"",""up"",""good_move"",7805.3,3377,2905.1,4428.4,471.8,""oops"",""up"",""right"",""bad_move"",11220.1,3398.7,2970,7821.4,428.7,""smooth"",""up"",""up"",""good_move"",13971.8,2749.2,2393.1,11222.7,356.1,""smooth"",""up"",""up"",""good_move"",16697.5,2721.6,2410.4,13976.3,311.2,""smooth"",""left"",""left"",""good_move"",20195,3491.7,3119.4,16703.3,372.4,""oops"",""left"",""right"",""bad_move"",23281.6,3082,2689.9,20199.6,392.1,""oops"",""left"",""down"",""bad_move"",25389.2,2103.1,1704.3,23286.2,398.7,""oops"",""left"",""right"",""bad_move"",32111.9,6717.9,2851.8,28838.4,421.7,""oops"",""up"",""down"",""bad_move"",35211.4,3097,2259,32114.5,837.9,""oops"",""up"",""down"",""bad_move""]","",""
"5573","","<div style=""width:500px;"">
  <p>What determined the result of this run?</p>
  </div>","4","html-slider-response","40","704429","0.0-5.0-1.6","70","1","2025-07-16 08:31:33","1f75c3e559b7213887762d5229550c2b","105.245.180.190","Mozilla/5.0 (Windows NT 10.0; Win64; x64) AppleWebKit/537.36 (KHTML, like Gecko) Chrome/138.0.0.0 Safari/537.36","WebKit","Chrome","138.0.0.0","Windows","10.0","https://app.prolific.com/","en-US,en;q=0.9","67b89f64c09d83ec36fdd403","686e379bc37a29ffa5cdc956","6877604c65b3f0bc65c1e381","1","1","67b89f64c09d83ec36fdd403","1","1","2025-07-16T08:43:22.257Z","","","","","","","","","","","AttribQ","","50","","","","","","","","","","","","","","","","","","","","","","","","","","","","",""
"4172","","<div style=""width:500px;"">
  <p>How much control did you have over the ball?</p>
  </div>","0","html-slider-response","41","708605","0.0-5.0-2.6","70","1","2025-07-16 08:31:33","1f75c3e559b7213887762d5229550c2b","105.245.180.190","Mozilla/5.0 (Windows NT 10.0; Win64; x64) AppleWebKit/537.36 (KHTML, like Gecko) Chrome/138.0.0.0 Safari/537.36","WebKit","Chrome","138.0.0.0","Windows","10.0","https://app.prolific.com/","en-US,en;q=0.9","67b89f64c09d83ec36fdd403","686e379bc37a29ffa5cdc956","6877604c65b3f0bc65c1e381","1","1","67b89f64c09d83ec36fdd403","1","1","2025-07-16T08:43:26.434Z","","","","","","","","","","","ControlQ","","50","","","","","","","","","","","","","","","","","","","","","","","","","","","","",""
"2839","","<div style=""width:500px;"">
  <p>How would you describe your current emotional state?</p>
  </div>","70","html-slider-response","42","711451","0.0-5.0-3.6","70","1","2025-07-16 08:31:33","1f75c3e559b7213887762d5229550c2b","105.245.180.190","Mozilla/5.0 (Windows NT 10.0; Win64; x64) AppleWebKit/537.36 (KHTML, like Gecko) Chrome/138.0.0.0 Safari/537.36","WebKit","Chrome","138.0.0.0","Windows","10.0","https://app.prolific.com/","en-US,en;q=0.9","67b89f64c09d83ec36fdd403","686e379bc37a29ffa5cdc956","6877604c65b3f0bc65c1e381","1","1","67b89f64c09d83ec36fdd403","1","1","2025-07-16T08:43:29.279Z","","","","","","","","","","","StressQ","","50","","","","","","","","","","","","","","","","","","","","","","","","","","","","",""
"5595","","<div style=""width:500px;"">
  <p>What best describes how you currently feel?</p>
  </div>","100","html-slider-response","43","717051","0.0-5.0-4.6","70","1","2025-07-16 08:31:33","1f75c3e559b7213887762d5229550c2b","105.245.180.190","Mozilla/5.0 (Windows NT 10.0; Win64; x64) AppleWebKit/537.36 (KHTML, like Gecko) Chrome/138.0.0.0 Safari/537.36","WebKit","Chrome","138.0.0.0","Windows","10.0","https://app.prolific.com/","en-US,en;q=0.9","67b89f64c09d83ec36fdd403","686e379bc37a29ffa5cdc956","6877604c65b3f0bc65c1e381","1","1","67b89f64c09d83ec36fdd403","1","1","2025-07-16T08:43:34.879Z","","","","","","","","","","","MotivationQ","","50","","","","","","","","","","","","","","","","","","","","","","","","","","","","",""
"","","","","ctl-task-cpt","44","761161","0.0-5.0-0.7","70","1","2025-07-16 08:31:33","1f75c3e559b7213887762d5229550c2b","105.245.180.190","Mozilla/5.0 (Windows NT 10.0; Win64; x64) AppleWebKit/537.36 (KHTML, like Gecko) Chrome/138.0.0.0 Safari/537.36","WebKit","Chrome","138.0.0.0","Windows","10.0","https://app.prolific.com/","en-US,en;q=0.9","67b89f64c09d83ec36fdd403","686e379bc37a29ffa5cdc956","6877604c65b3f0bc65c1e381","1","1","67b89f64c09d83ec36fdd403","1","1","2025-07-16T08:44:18.989Z","","","","","","","","","","","","","","win-only","1","g1:NE,g2:SW","0.3","8","0","720031","1846.4","6847.7","41083.6","1","4","8","6","2","-8","-9","0","4","0","3208.5","3000","-1930","[""down"",""left""]","{""num_key_presses"":11,""num_perfect"":3,""num_errors"":1,""num_randdir"":7,""num_randdir_good_moves"":3,""num_whilered"":0,""num_whileblue"":0,""num_blue"":0,""num_good_moves"":6}","[290.22232142857143,294.12857142857143,0.5,290.22232142857143,294.12857142857143,101.4,290.22232142857143,294.12857142857143,202.1,290.22232142857143,294.12857142857143,302.4,290.22232142857143,294.12857142857143,406,290.22232142857143,294.12857142857143,518.5,290.22232142857143,294.12857142857143,620.6,301.22232142857143,293.12857142857143,723.5,303.22232142857143,293.12857142857143,830.4,305.22232142857143,291.12857142857143,934.3,306.22232142857143,290.12857142857143,1035.1,307.22232142857143,289.12857142857143,1138,311.22232142857143,287.12857142857143,1239.4,315.22232142857143,285.12857142857143,1345,316.22232142857143,284.12857142857143,1449.3,317.22232142857143,284.12857142857143,1549.9,317.22232142857143,284.12857142857143,1654.7,317.22232142857143,284.12857142857143,1756,317.22232142857143,284.12857142857143,1863.3,317.22232142857143,284.12857142857143,1966.6,317.22232142857143,284.12857142857143,2070.6,317.22232142857143,284.12857142857143,2171.7,317.22232142857143,284.12857142857143,2274.2,317.22232142857143,284.12857142857143,2374.2,317.22232142857143,284.12857142857143,2479.8,29.222321428571426,603.1285714285714,2587,1.2223214285714263,654.1285714285714,2692.6,-50.777678571428574,663.1285714285714,2795,-61.777678571428574,650.1285714285714,2905.6,16.222321428571426,555.1285714285714,3016.8,32.222321428571426,544.1285714285714,3125.2,43.222321428571426,535.1285714285714,3229.1,43.222321428571426,535.1285714285714,3340.3,43.222321428571426,535.1285714285714,3447.5,43.222321428571426,535.1285714285714,3555.2,43.222321428571426,535.1285714285714,3663.5,43.222321428571426,535.1285714285714,3766.1,43.222321428571426,535.1285714285714,3869.1,43.222321428571426,535.1285714285714,3983.6,43.222321428571426,535.1285714285714,4084,43.222321428571426,535.1285714285714,4184.5,43.222321428571426,535.1285714285714,4295,43.222321428571426,535.1285714285714,4398.6,43.222321428571426,535.1285714285714,4502.1,43.222321428571426,535.1285714285714,4606.3,43.222321428571426,535.1285714285714,4707.4,43.222321428571426,535.1285714285714,4808.1,43.222321428571426,535.1285714285714,4926]","[464.8,464.8,1000,0,-535.2,""error"",""-"",""-"",""no_move"",4600.6,4134.9,2259.4,1471.1,870.1,""oops"",""down"",""right"",""bad_move"",7564.2,2959.2,2498.1,4605,461.2,""smooth"",""down"",""down"",""good_move"",10832.9,3266.2,2579.5,7566.7,686.7,""smooth"",""down"",""down"",""good_move"",13960.5,3123.5,2518.5,10837.1,605.1,""oops"",""left"",""down"",""good_move"",16769.8,2806.1,2445.6,13963.7,360.5,""oops"",""left"",""left"",""good_move"",19570.6,2796,2439,16774.6,357,""smooth"",""left"",""left"",""good_move"",22125.1,2553.2,2213.7,19571.9,339.5,""oops"",""left"",""right"",""bad_move"",24847.2,2720.3,2390.3,22127,330,""oops"",""left"",""right"",""bad_move"",27642.5,2790.4,2430.7,24852.1,359.7,""oops"",""left"",""right"",""bad_move"",30987.4,3343.8,3020.9,27643.6,322.9,""oops"",""left"",""left"",""good_move""]","",""
"4818","","<div style=""width:500px;"">
  <p>What determined the result of this run?</p>
  </div>","0","html-slider-response","45","765983","0.0-5.0-1.7","70","1","2025-07-16 08:31:33","1f75c3e559b7213887762d5229550c2b","105.245.180.190","Mozilla/5.0 (Windows NT 10.0; Win64; x64) AppleWebKit/537.36 (KHTML, like Gecko) Chrome/138.0.0.0 Safari/537.36","WebKit","Chrome","138.0.0.0","Windows","10.0","https://app.prolific.com/","en-US,en;q=0.9","67b89f64c09d83ec36fdd403","686e379bc37a29ffa5cdc956","6877604c65b3f0bc65c1e381","1","1","67b89f64c09d83ec36fdd403","1","1","2025-07-16T08:44:23.811Z","","","","","","","","","","","AttribQ","","50","","","","","","","","","","","","","","","","","","","","","","","","","","","","",""
"2977","","<div style=""width:500px;"">
  <p>How much control did you have over the ball?</p>
  </div>","0","html-slider-response","46","768963","0.0-5.0-2.7","70","1","2025-07-16 08:31:33","1f75c3e559b7213887762d5229550c2b","105.245.180.190","Mozilla/5.0 (Windows NT 10.0; Win64; x64) AppleWebKit/537.36 (KHTML, like Gecko) Chrome/138.0.0.0 Safari/537.36","WebKit","Chrome","138.0.0.0","Windows","10.0","https://app.prolific.com/","en-US,en;q=0.9","67b89f64c09d83ec36fdd403","686e379bc37a29ffa5cdc956","6877604c65b3f0bc65c1e381","1","1","67b89f64c09d83ec36fdd403","1","1","2025-07-16T08:44:26.792Z","","","","","","","","","","","ControlQ","","50","","","","","","","","","","","","","","","","","","","","","","","","","","","","",""
"2650","","<div style=""width:500px;"">
  <p>How would you describe your current emotional state?</p>
  </div>","62","html-slider-response","47","771619","0.0-5.0-3.7","70","1","2025-07-16 08:31:33","1f75c3e559b7213887762d5229550c2b","105.245.180.190","Mozilla/5.0 (Windows NT 10.0; Win64; x64) AppleWebKit/537.36 (KHTML, like Gecko) Chrome/138.0.0.0 Safari/537.36","WebKit","Chrome","138.0.0.0","Windows","10.0","https://app.prolific.com/","en-US,en;q=0.9","67b89f64c09d83ec36fdd403","686e379bc37a29ffa5cdc956","6877604c65b3f0bc65c1e381","1","1","67b89f64c09d83ec36fdd403","1","1","2025-07-16T08:44:29.447Z","","","","","","","","","","","StressQ","","50","","","","","","","","","","","","","","","","","","","","","","","","","","","","",""
"4128","","<div style=""width:500px;"">
  <p>What best describes how you currently feel?</p>
  </div>","100","html-slider-response","48","775751","0.0-5.0-4.7","70","1","2025-07-16 08:31:33","1f75c3e559b7213887762d5229550c2b","105.245.180.190","Mozilla/5.0 (Windows NT 10.0; Win64; x64) AppleWebKit/537.36 (KHTML, like Gecko) Chrome/138.0.0.0 Safari/537.36","WebKit","Chrome","138.0.0.0","Windows","10.0","https://app.prolific.com/","en-US,en;q=0.9","67b89f64c09d83ec36fdd403","686e379bc37a29ffa5cdc956","6877604c65b3f0bc65c1e381","1","1","67b89f64c09d83ec36fdd403","1","1","2025-07-16T08:44:33.580Z","","","","","","","","","","","MotivationQ","","50","","","","","","","","","","","","","","","","","","","","","","","","","","","","",""
"","","","","ctl-task-cpt","49","815883","0.0-5.0-0.8","70","1","2025-07-16 08:31:33","1f75c3e559b7213887762d5229550c2b","105.245.180.190","Mozilla/5.0 (Windows NT 10.0; Win64; x64) AppleWebKit/537.36 (KHTML, like Gecko) Chrome/138.0.0.0 Safari/537.36","WebKit","Chrome","138.0.0.0","Windows","10.0","https://app.prolific.com/","en-US,en;q=0.9","67b89f64c09d83ec36fdd403","686e379bc37a29ffa5cdc956","6877604c65b3f0bc65c1e381","1","1","67b89f64c09d83ec36fdd403","1","1","2025-07-16T08:45:13.711Z","","","","","","","","","","","","","","win-only","3","g1:SW,g2:NE","0.2","9","0","778733.6","1315","6334.3","37104.5","1","4","8","6","2","8","8","8","0","0.06060606060606061","1066.2","3000","1605","[""up"",""right""]","{""num_key_presses"":8,""num_perfect"":1,""num_errors"":0,""num_randdir"":7,""num_randdir_good_moves"":6,""num_whilered"":0,""num_whileblue"":0,""num_blue"":2,""num_good_moves"":7}","[294.22232142857143,298.12857142857143,8.1,294.22232142857143,298.12857142857143,111.3,294.22232142857143,298.12857142857143,240.4,294.22232142857143,298.12857142857143,349.7,297.22232142857143,295.12857142857143,454.8,426.22232142857143,149.12857142857143,561.7,497.22232142857143,79.12857142857143,677.9,528.2223214285714,47.128571428571426,789.4,528.2223214285714,54.128571428571426,894.4,529.2223214285714,55.128571428571426,995.2,530.2223214285714,57.128571428571426,1098.3,530.2223214285714,57.128571428571426,1220.5,530.2223214285714,57.128571428571426,1329.2,530.2223214285714,57.128571428571426,1435.9,530.2223214285714,57.128571428571426,1538.4,530.2223214285714,57.128571428571426,1645,530.2223214285714,57.128571428571426,1757.4,488.22232142857143,108.12857142857143,1863.5,436.22232142857143,221.12857142857143,1967.6,466.22232142857143,366.12857142857143,2078.1,556.2223214285714,436.12857142857143,2183.5,556.2223214285714,436.12857142857143,2287.8,556.2223214285714,436.12857142857143,2395.7,556.2223214285714,436.12857142857143,2498.4,556.2223214285714,436.12857142857143,2616.6,556.2223214285714,436.12857142857143,2724.7,556.2223214285714,436.12857142857143,2830.5,556.2223214285714,436.12857142857143,2944.2,556.2223214285714,436.12857142857143,3053.8,556.2223214285714,436.12857142857143,3156,556.2223214285714,436.12857142857143,3258.2,556.2223214285714,436.12857142857143,3371.4,556.2223214285714,436.12857142857143,3482.8,556.2223214285714,436.12857142857143,3595.5,556.2223214285714,436.12857142857143,3698.3,556.2223214285714,436.12857142857143,3799.3,556.2223214285714,436.12857142857143,3912.3,556.2223214285714,436.12857142857143,4013.4,556.2223214285714,436.12857142857143,4122.6,556.2223214285714,436.12857142857143,4232.1,556.2223214285714,436.12857142857143,4338.9,556.2223214285714,436.12857142857143,4446.3,556.2223214285714,436.12857142857143,4548.4,556.2223214285714,436.12857142857143,4664.2,556.2223214285714,436.12857142857143,4766.4,556.2223214285714,436.12857142857143,4874,556.2223214285714,436.12857142857143,4981.4]","[4187.2,4187.2,1750,2007.6,429.6,""oops"",""up"",""up"",""good_move"",7372.9,3183.2,2617.7,4189.8,565.5,""oops"",""right"",""right"",""good_move"",10360.5,2982.6,2625.3,7378,357.2,""oops"",""right"",""up"",""good_move"",18259.4,7894,2794.7,15110,354.7,""oops"",""right"",""left"",""bad_move"",20948.4,2685.5,2231.3,18262.9,454.2,""oops"",""up"",""right"",""good_move"",24284.4,3330.8,2731.1,20953.6,599.7,""oops"",""up"",""right"",""good_move"",27698.8,3409.8,3025.3,24289,384.5,""smooth"",""up"",""up"",""good_move"",30593.3,2891.4,2568.3,27702,323.1,""oops"",""right"",""right"",""good_move""]","",""
"2839","","<div style=""width:500px;"">
  <p>What determined the result of this run?</p>
  </div>","16","html-slider-response","50","818728","0.0-5.0-1.8","70","1","2025-07-16 08:31:33","1f75c3e559b7213887762d5229550c2b","105.245.180.190","Mozilla/5.0 (Windows NT 10.0; Win64; x64) AppleWebKit/537.36 (KHTML, like Gecko) Chrome/138.0.0.0 Safari/537.36","WebKit","Chrome","138.0.0.0","Windows","10.0","https://app.prolific.com/","en-US,en;q=0.9","67b89f64c09d83ec36fdd403","686e379bc37a29ffa5cdc956","6877604c65b3f0bc65c1e381","1","1","67b89f64c09d83ec36fdd403","1","1","2025-07-16T08:45:16.557Z","","","","","","","","","","","AttribQ","","50","","","","","","","","","","","","","","","","","","","","","","","","","","","","",""
"5071","","<div style=""width:500px;"">
  <p>How much control did you have over the ball?</p>
  </div>","0","html-slider-response","51","823804","0.0-5.0-2.8","70","1","2025-07-16 08:31:33","1f75c3e559b7213887762d5229550c2b","105.245.180.190","Mozilla/5.0 (Windows NT 10.0; Win64; x64) AppleWebKit/537.36 (KHTML, like Gecko) Chrome/138.0.0.0 Safari/537.36","WebKit","Chrome","138.0.0.0","Windows","10.0","https://app.prolific.com/","en-US,en;q=0.9","67b89f64c09d83ec36fdd403","686e379bc37a29ffa5cdc956","6877604c65b3f0bc65c1e381","1","1","67b89f64c09d83ec36fdd403","1","1","2025-07-16T08:45:21.633Z","","","","","","","","","","","ControlQ","","50","","","","","","","","","","","","","","","","","","","","","","","","","","","","",""
"5137","","<div style=""width:500px;"">
  <p>How would you describe your current emotional state?</p>
  </div>","69","html-slider-response","52","828946","0.0-5.0-3.8","70","1","2025-07-16 08:31:33","1f75c3e559b7213887762d5229550c2b","105.245.180.190","Mozilla/5.0 (Windows NT 10.0; Win64; x64) AppleWebKit/537.36 (KHTML, like Gecko) Chrome/138.0.0.0 Safari/537.36","WebKit","Chrome","138.0.0.0","Windows","10.0","https://app.prolific.com/","en-US,en;q=0.9","67b89f64c09d83ec36fdd403","686e379bc37a29ffa5cdc956","6877604c65b3f0bc65c1e381","1","1","67b89f64c09d83ec36fdd403","1","1","2025-07-16T08:45:26.775Z","","","","","","","","","","","StressQ","","50","","","","","","","","","","","","","","","","","","","","","","","","","","","","",""
"2939","","<div style=""width:500px;"">
  <p>What best describes how you currently feel?</p>
  </div>","100","html-slider-response","53","831890","0.0-5.0-4.8","70","1","2025-07-16 08:31:33","1f75c3e559b7213887762d5229550c2b","105.245.180.190","Mozilla/5.0 (Windows NT 10.0; Win64; x64) AppleWebKit/537.36 (KHTML, like Gecko) Chrome/138.0.0.0 Safari/537.36","WebKit","Chrome","138.0.0.0","Windows","10.0","https://app.prolific.com/","en-US,en;q=0.9","67b89f64c09d83ec36fdd403","686e379bc37a29ffa5cdc956","6877604c65b3f0bc65c1e381","1","1","67b89f64c09d83ec36fdd403","1","1","2025-07-16T08:45:29.718Z","","","","","","","","","","","MotivationQ","","50","","","","","","","","","","","","","","","","","","","","","","","","","","","","",""
"","","","","ctl-task-cpt","54","941693","0.0-5.0-0.9","70","1","2025-07-16 08:31:33","1f75c3e559b7213887762d5229550c2b","105.245.180.190","Mozilla/5.0 (Windows NT 10.0; Win64; x64) AppleWebKit/537.36 (KHTML, like Gecko) Chrome/138.0.0.0 Safari/537.36","WebKit","Chrome","138.0.0.0","Windows","10.0","https://app.prolific.com/","en-US,en;q=0.9","67b89f64c09d83ec36fdd403","686e379bc37a29ffa5cdc956","6877604c65b3f0bc65c1e381","1","1","67b89f64c09d83ec36fdd403","1","1","2025-07-16T08:47:19.521Z","","","","","","","","","","","","","","win-only","2","g1:SE,g2:NW","0.4","10","0","834870.1","2351.6","7363.4","106774.5","1","4","4","6","2","-4","-5","3","8","0.022727272727272728","1786.4","3000","-770","[""left"",""up""]","{""num_key_presses"":24,""num_perfect"":9,""num_errors"":1,""num_randdir"":14,""num_randdir_good_moves"":4,""num_whilered"":0,""num_whileblue"":0,""num_blue"":4,""num_good_moves"":12}","[294.22232142857143,300.12857142857143,0.9,294.22232142857143,300.12857142857143,104.8,294.22232142857143,300.12857142857143,221.6,294.22232142857143,300.12857142857143,326.6,294.22232142857143,300.12857142857143,436.3,294.22232142857143,301.12857142857143,544.2,294.22232142857143,304.12857142857143,647.1,294.22232142857143,300.12857142857143,750.1,315.22232142857143,302.12857142857143,850.8,268.22232142857143,263.12857142857143,956.4,163.22232142857143,166.12857142857143,1065.3,154.22232142857143,158.12857142857143,1179.1,150.22232142857143,151.12857142857143,1281.1,114.22232142857143,82.12857142857143,1386.6,101.22232142857143,61.128571428571426,1489,87.22232142857143,53.128571428571426,1597.8,86.22232142857143,55.128571428571426,1703.8,87.22232142857143,57.128571428571426,1810.5,87.22232142857143,57.128571428571426,1917.8,87.22232142857143,57.128571428571426,2024.3,87.22232142857143,57.128571428571426,2135.3,87.22232142857143,57.128571428571426,2239.1,87.22232142857143,57.128571428571426,2352.4,87.22232142857143,57.128571428571426,2454.8,87.22232142857143,57.128571428571426,2562.7,87.22232142857143,57.128571428571426,2664.6,87.22232142857143,57.128571428571426,2777.6,87.22232142857143,57.128571428571426,2885.7,87.22232142857143,57.128571428571426,2995.7,87.22232142857143,57.128571428571426,3107.2,87.22232142857143,57.128571428571426,3218.8,87.22232142857143,57.128571428571426,3319.9,87.22232142857143,57.128571428571426,3432.8,87.22232142857143,57.128571428571426,3534.5,87.22232142857143,57.128571428571426,3640,87.22232142857143,57.128571428571426,3749.9,87.22232142857143,57.128571428571426,3867.5,87.22232142857143,57.128571428571426,3984.5,87.22232142857143,57.128571428571426,4093.1,87.22232142857143,57.128571428571426,4206.3,87.22232142857143,57.128571428571426,4324.4,87.22232142857143,57.128571428571426,4425.1,87.22232142857143,57.128571428571426,4532.5,87.22232142857143,57.128571428571426,4641.3,87.22232142857143,57.128571428571426,4752.6,87.22232142857143,57.128571428571426,4855.5,87.22232142857143,57.128571428571426,4958.3]","[1538.6,1538.6,1000,0,538.6,""oops"",""up"",""down"",""bad_move"",4998.9,3458,2985.1,1541.1,473,""smooth"",""up"",""up"",""good_move"",9674.5,4670.4,2857.3,5004.1,1813.1,""oops"",""left"",""down"",""bad_move"",12144.8,2465.1,2071.6,9679.7,393.5,""oops"",""left"",""down"",""bad_move"",15499,3349.3,2955.7,12149.7,393.6,""oops"",""left"",""right"",""bad_move"",18786.6,3284.4,2649.9,15502.2,634.5,""oops"",""up"",""left"",""good_move"",21906.3,3114.7,2183.7,18791.6,931,""smooth"",""up"",""up"",""good_move"",25609.7,3700,2408.7,21909.7,1291.3,""oops"",""up"",""left"",""good_move"",32359.6,6744.9,2274.6,29717.2,367.8,""smooth"",""up"",""up"",""good_move"",39516.9,7155.2,3050.4,36155.1,311.4,""smooth"",""up"",""up"",""good_move"",42631.7,3111.8,2762.2,39520,349.6,""oops"",""up"",""down"",""bad_move"",46313.5,3678.3,3262.9,42635.2,415.4,""oops"",""left"",""down"",""bad_move"",53005.2,6686.9,2617.5,49915.5,472.2,""oops"",""right"",""left"",""good_move"",59067.2,6058.6,2302.2,56364,401.1,""smooth"",""left"",""left"",""good_move"",61768.8,2699.3,2271.5,59069.5,427.8,""oops"",""up"",""right"",""bad_move"",64543.9,2768.6,2364.6,61775.3,404,""smooth"",""down"",""down"",""bad_move"",67569.5,3020.9,2436.3,64548.6,584.6,""smooth"",""up"",""up"",""good_move"",71383.6,3810.4,2231.9,67573.2,1578.5,""smooth"",""up"",""up"",""good_move"",76865.5,5476.6,1900.4,71388.9,3576.3,""oops"",""right"",""down"",""bad_move"",80267.6,3399.2,2706.9,76868.4,692.3,""oops"",""up"",""left"",""good_move"",86451.8,6180,1693.5,80271.8,4486.5,""smooth"",""up"",""up"",""good_move"",88167.1,1713.2,2717,86454,-1003.9,""error"",""-"",""-"",""no_move"",93028.8,4857.6,2769.9,89177.2,1081.7,""oops"",""up"",""right"",""bad_move"",96138.3,3107.3,2342.7,93031.1,764.5,""oops"",""up"",""down"",""bad_move""]","",""
"4275","","<div style=""width:500px;"">
  <p>What determined the result of this run?</p>
  </div>","1","html-slider-response","55","945972","0.0-5.0-1.9","70","1","2025-07-16 08:31:33","1f75c3e559b7213887762d5229550c2b","105.245.180.190","Mozilla/5.0 (Windows NT 10.0; Win64; x64) AppleWebKit/537.36 (KHTML, like Gecko) Chrome/138.0.0.0 Safari/537.36","WebKit","Chrome","138.0.0.0","Windows","10.0","https://app.prolific.com/","en-US,en;q=0.9","67b89f64c09d83ec36fdd403","686e379bc37a29ffa5cdc956","6877604c65b3f0bc65c1e381","1","1","67b89f64c09d83ec36fdd403","1","1","2025-07-16T08:47:23.801Z","","","","","","","","","","","AttribQ","","50","","","","","","","","","","","","","","","","","","","","","","","","","","","","",""
"4668","","<div style=""width:500px;"">
  <p>How much control did you have over the ball?</p>
  </div>","1","html-slider-response","56","950647","0.0-5.0-2.9","70","1","2025-07-16 08:31:33","1f75c3e559b7213887762d5229550c2b","105.245.180.190","Mozilla/5.0 (Windows NT 10.0; Win64; x64) AppleWebKit/537.36 (KHTML, like Gecko) Chrome/138.0.0.0 Safari/537.36","WebKit","Chrome","138.0.0.0","Windows","10.0","https://app.prolific.com/","en-US,en;q=0.9","67b89f64c09d83ec36fdd403","686e379bc37a29ffa5cdc956","6877604c65b3f0bc65c1e381","1","1","67b89f64c09d83ec36fdd403","1","1","2025-07-16T08:47:28.476Z","","","","","","","","","","","ControlQ","","50","","","","","","","","","","","","","","","","","","","","","","","","","","","","",""
"4638","","<div style=""width:500px;"">
  <p>How would you describe your current emotional state?</p>
  </div>","62","html-slider-response","57","955295","0.0-5.0-3.9","70","1","2025-07-16 08:31:33","1f75c3e559b7213887762d5229550c2b","105.245.180.190","Mozilla/5.0 (Windows NT 10.0; Win64; x64) AppleWebKit/537.36 (KHTML, like Gecko) Chrome/138.0.0.0 Safari/537.36","WebKit","Chrome","138.0.0.0","Windows","10.0","https://app.prolific.com/","en-US,en;q=0.9","67b89f64c09d83ec36fdd403","686e379bc37a29ffa5cdc956","6877604c65b3f0bc65c1e381","1","1","67b89f64c09d83ec36fdd403","1","1","2025-07-16T08:47:33.123Z","","","","","","","","","","","StressQ","","50","","","","","","","","","","","","","","","","","","","","","","","","","","","","",""
"3273","","<div style=""width:500px;"">
  <p>What best describes how you currently feel?</p>
  </div>","87","html-slider-response","58","958572","0.0-5.0-4.9","70","1","2025-07-16 08:31:33","1f75c3e559b7213887762d5229550c2b","105.245.180.190","Mozilla/5.0 (Windows NT 10.0; Win64; x64) AppleWebKit/537.36 (KHTML, like Gecko) Chrome/138.0.0.0 Safari/537.36","WebKit","Chrome","138.0.0.0","Windows","10.0","https://app.prolific.com/","en-US,en;q=0.9","67b89f64c09d83ec36fdd403","686e379bc37a29ffa5cdc956","6877604c65b3f0bc65c1e381","1","1","67b89f64c09d83ec36fdd403","1","1","2025-07-16T08:47:36.401Z","","","","","","","","","","","MotivationQ","","50","","","","","","","","","","","","","","","","","","","","","","","","","","","","",""
"","","","","ctl-task-cpt","59","1026763","0.0-5.0-0.10","70","1","2025-07-16 08:31:33","1f75c3e559b7213887762d5229550c2b","105.245.180.190","Mozilla/5.0 (Windows NT 10.0; Win64; x64) AppleWebKit/537.36 (KHTML, like Gecko) Chrome/138.0.0.0 Safari/537.36","WebKit","Chrome","138.0.0.0","Windows","10.0","https://app.prolific.com/","en-US,en;q=0.9","67b89f64c09d83ec36fdd403","686e379bc37a29ffa5cdc956","6877604c65b3f0bc65c1e381","1","1","67b89f64c09d83ec36fdd403","1","1","2025-07-16T08:48:44.591Z","","","","","","","","","","","","","","win-only","2","g1:SE,g2:NW","0.5","11","0","961555.5","1060.1","6082.6","65129.5","1","4","4","6","2","4","4","7","3","0.05303030303030303","1989.6","3000","1855","[""left"",""up""]","{""num_key_presses"":12,""num_perfect"":7,""num_errors"":0,""num_randdir"":5,""num_randdir_good_moves"":3,""num_whilered"":0,""num_whileblue"":0,""num_blue"":1,""num_good_moves"":9}","[295.22232142857143,299.12857142857143,8.5,295.22232142857143,299.12857142857143,103.8,295.22232142857143,299.12857142857143,222.6,295.22232142857143,299.12857142857143,349.4,295.22232142857143,299.12857142857143,455.5,295.22232142857143,299.12857142857143,556.7,295.22232142857143,299.12857142857143,681.7,295.22232142857143,299.12857142857143,797.7,290.22232142857143,293.12857142857143,915.6,251.22232142857143,242.12857142857143,1016.8,251.22232142857143,242.12857142857143,1117.4,251.22232142857143,242.12857142857143,1224.1,251.22232142857143,242.12857142857143,1324.7,176.22232142857143,177.12857142857143,1437.1,117.22232142857143,127.12857142857143,1547.8,108.22232142857143,122.12857142857143,1653,88.22232142857143,106.12857142857143,1763.9,58.222321428571426,68.12857142857143,1873.7,54.222321428571426,59.128571428571426,2003.5,54.222321428571426,59.128571428571426,2105.9,54.222321428571426,59.128571428571426,2233.6,54.222321428571426,59.128571428571426,2348,55.222321428571426,59.128571428571426,2463.9,70.22232142857143,66.12857142857143,2575.4,187.22232142857143,166.12857142857143,2691.4,485.22232142857143,404.12857142857143,2803,978.2223214285714,433.12857142857143,2923.3,978.2223214285714,433.12857142857143,3034.1,978.2223214285714,433.12857142857143,3140.9,978.2223214285714,433.12857142857143,3245.3,978.2223214285714,433.12857142857143,3356.7,978.2223214285714,433.12857142857143,3464.4,978.2223214285714,433.12857142857143,3575.4,978.2223214285714,433.12857142857143,3685.7,978.2223214285714,433.12857142857143,3791.3,978.2223214285714,433.12857142857143,3896,978.2223214285714,433.12857142857143,4005.8,978.2223214285714,433.12857142857143,4118.8,978.2223214285714,433.12857142857143,4233.2,978.2223214285714,433.12857142857143,4340.2,978.2223214285714,433.12857142857143,4453.1,978.2223214285714,433.12857142857143,4572.7,978.2223214285714,433.12857142857143,4685.7,978.2223214285714,433.12857142857143,4800.3,978.2223214285714,433.12857142857143,4902.4]","[1445.4,1445.5,1000,0,445.5,""smooth"",""left"",""left"",""good_move"",10842.7,9395.8,2694.6,7688.4,459.7,""smooth"",""left"",""left"",""good_move"",17307.6,6462.6,2109.2,10845,4353.4,""oops"",""up"",""down"",""bad_move"",20817.5,3506.9,3095.7,17310.6,411.2,""smooth"",""left"",""left"",""good_move"",25206.7,4384.6,2516.2,20822.1,1868.4,""oops"",""up"",""up"",""good_move"",27940,2726.3,2351.5,25213.7,374.8,""smooth"",""right"",""right"",""bad_move"",30433.4,2489.3,1962.7,27944.1,526.6,""oops"",""up"",""right"",""bad_move"",33864.3,3426.7,2962.5,30437.6,464.2,""smooth"",""up"",""up"",""good_move"",38416.1,4547.1,2561.2,33869,1985.9,""oops"",""left"",""left"",""good_move"",44631.8,6210.4,2472.9,38421.5,3737.5,""oops"",""up"",""left"",""good_move"",51233.1,6599,2702,44634.2,3897,""smooth"",""up"",""up"",""good_move"",58305.1,7069.8,3329,51235.3,3740.8,""smooth"",""up"",""up"",""good_move""]","",""
"13619","","<div style=""width:500px;"">
  <p>What determined the result of this run?</p>
  </div>","86","html-slider-response","60","1040386","0.0-5.0-1.10","70","1","2025-07-16 08:31:33","1f75c3e559b7213887762d5229550c2b","105.245.180.190","Mozilla/5.0 (Windows NT 10.0; Win64; x64) AppleWebKit/537.36 (KHTML, like Gecko) Chrome/138.0.0.0 Safari/537.36","WebKit","Chrome","138.0.0.0","Windows","10.0","https://app.prolific.com/","en-US,en;q=0.9","67b89f64c09d83ec36fdd403","686e379bc37a29ffa5cdc956","6877604c65b3f0bc65c1e381","1","1","67b89f64c09d83ec36fdd403","1","1","2025-07-16T08:48:58.216Z","","","","","","","","","","","AttribQ","","50","","","","","","","","","","","","","","","","","","","","","","","","","","","","",""
"9409","","<div style=""width:500px;"">
  <p>How much control did you have over the ball?</p>
  </div>","2","html-slider-response","61","1049802","0.0-5.0-2.10","70","1","2025-07-16 08:31:33","1f75c3e559b7213887762d5229550c2b","105.245.180.190","Mozilla/5.0 (Windows NT 10.0; Win64; x64) AppleWebKit/537.36 (KHTML, like Gecko) Chrome/138.0.0.0 Safari/537.36","WebKit","Chrome","138.0.0.0","Windows","10.0","https://app.prolific.com/","en-US,en;q=0.9","67b89f64c09d83ec36fdd403","686e379bc37a29ffa5cdc956","6877604c65b3f0bc65c1e381","1","1","67b89f64c09d83ec36fdd403","1","1","2025-07-16T08:49:07.631Z","","","","","","","","","","","ControlQ","","50","","","","","","","","","","","","","","","","","","","","","","","","","","","","",""
"4780","","<div style=""width:500px;"">
  <p>How would you describe your current emotional state?</p>
  </div>","71","html-slider-response","62","1054590","0.0-5.0-3.10","70","1","2025-07-16 08:31:33","1f75c3e559b7213887762d5229550c2b","105.245.180.190","Mozilla/5.0 (Windows NT 10.0; Win64; x64) AppleWebKit/537.36 (KHTML, like Gecko) Chrome/138.0.0.0 Safari/537.36","WebKit","Chrome","138.0.0.0","Windows","10.0","https://app.prolific.com/","en-US,en;q=0.9","67b89f64c09d83ec36fdd403","686e379bc37a29ffa5cdc956","6877604c65b3f0bc65c1e381","1","1","67b89f64c09d83ec36fdd403","1","1","2025-07-16T08:49:12.419Z","","","","","","","","","","","StressQ","","50","","","","","","","","","","","","","","","","","","","","","","","","","","","","",""
"4803","","<div style=""width:500px;"">
  <p>What best describes how you currently feel?</p>
  </div>","98","html-slider-response","63","1059400","0.0-5.0-4.10","70","1","2025-07-16 08:31:33","1f75c3e559b7213887762d5229550c2b","105.245.180.190","Mozilla/5.0 (Windows NT 10.0; Win64; x64) AppleWebKit/537.36 (KHTML, like Gecko) Chrome/138.0.0.0 Safari/537.36","WebKit","Chrome","138.0.0.0","Windows","10.0","https://app.prolific.com/","en-US,en;q=0.9","67b89f64c09d83ec36fdd403","686e379bc37a29ffa5cdc956","6877604c65b3f0bc65c1e381","1","1","67b89f64c09d83ec36fdd403","1","1","2025-07-16T08:49:17.229Z","","","","","","","","","","","MotivationQ","","50","","","","","","","","","","","","","","","","","","","","","","","","","","","","",""
"","","","","ctl-task-cpt","64","1094977","0.0-5.0-0.11","70","1","2025-07-16 08:31:33","1f75c3e559b7213887762d5229550c2b","105.245.180.190","Mozilla/5.0 (Windows NT 10.0; Win64; x64) AppleWebKit/537.36 (KHTML, like Gecko) Chrome/138.0.0.0 Safari/537.36","WebKit","Chrome","138.0.0.0","Windows","10.0","https://app.prolific.com/","en-US,en;q=0.9","67b89f64c09d83ec36fdd403","686e379bc37a29ffa5cdc956","6877604c65b3f0bc65c1e381","1","1","67b89f64c09d83ec36fdd403","1","1","2025-07-16T08:49:52.805Z","","","","","","","","","","","","","","win-only","1","g1:NE,g2:SW","0.6","12","0","1062384","4046.4","9061.3","32525.6","1","4","8","6","2","8","8","15","7","0.11363636363636363","1145.6","3000","2580","[""down"",""left""]","{""num_key_presses"":6,""num_perfect"":4,""num_errors"":0,""num_randdir"":2,""num_randdir_good_moves"":2,""num_whilered"":0,""num_whileblue"":0,""num_blue"":0,""num_good_moves"":6}","[299.22232142857143,289.12857142857143,0.8,299.22232142857143,289.12857142857143,118,299.22232142857143,289.12857142857143,237.7,299.22232142857143,289.12857142857143,345.5,299.22232142857143,289.12857142857143,466,299.22232142857143,289.12857142857143,600.3,107.22232142857143,471.12857142857143,706.5,9.222321428571426,528.1285714285714,811.7,41.222321428571426,534.1285714285714,916.2,49.222321428571426,535.1285714285714,1033.3,49.222321428571426,535.1285714285714,1170.1,49.222321428571426,535.1285714285714,1270.2,49.222321428571426,535.1285714285714,1373.1,49.222321428571426,535.1285714285714,1478.3,49.222321428571426,535.1285714285714,1591.9,49.222321428571426,535.1285714285714,1697,49.222321428571426,535.1285714285714,1824.1,49.222321428571426,535.1285714285714,1931.5,49.222321428571426,535.1285714285714,2036.8,49.222321428571426,535.1285714285714,2149.4,49.222321428571426,535.1285714285714,2257.7,49.222321428571426,535.1285714285714,2374.1,49.222321428571426,535.1285714285714,2494.8,49.222321428571426,535.1285714285714,2609.8,49.222321428571426,535.1285714285714,2735.3,49.222321428571426,535.1285714285714,2841.6,49.222321428571426,535.1285714285714,2952.9,49.222321428571426,535.1285714285714,3056.6,49.222321428571426,535.1285714285714,3172,49.222321428571426,535.1285714285714,3279.2,49.222321428571426,535.1285714285714,3386.7,49.222321428571426,535.1285714285714,3492,49.222321428571426,535.1285714285714,3596.8,49.222321428571426,535.1285714285714,3699.3,49.222321428571426,535.1285714285714,3810.1,49.222321428571426,535.1285714285714,3913,49.222321428571426,535.1285714285714,4031.6,49.222321428571426,535.1285714285714,4147.6,49.222321428571426,535.1285714285714,4252,49.222321428571426,535.1285714285714,4364.2,49.222321428571426,535.1285714285714,4468.2,49.222321428571426,535.1285714285714,4578.8,49.222321428571426,535.1285714285714,4682.1,49.222321428571426,535.1285714285714,4792.1,49.222321428571426,535.1285714285714,4898.6]","[1308.4,1308.4,1000,0,308.4,""smooth"",""down"",""down"",""good_move"",4877.3,3566.2,3137.8,1311.1,428.4,""oops"",""left"",""left"",""good_move"",9663,4779.5,1828.3,4883.5,2951.2,""smooth"",""down"",""down"",""good_move"",12979.7,3311.6,2782.5,9668.1,529.1,""smooth"",""left"",""left"",""good_move"",19661,6678.6,2009,12982.5,4669.5,""smooth"",""down"",""down"",""good_move"",22674.3,3011.1,2515.2,19663.2,495.9,""oops"",""left"",""left"",""good_move""]","",""
"5748","","<div style=""width:500px;"">
  <p>What determined the result of this run?</p>
  </div>","100","html-slider-response","65","1100730","0.0-5.0-1.11","70","1","2025-07-16 08:31:33","1f75c3e559b7213887762d5229550c2b","105.245.180.190","Mozilla/5.0 (Windows NT 10.0; Win64; x64) AppleWebKit/537.36 (KHTML, like Gecko) Chrome/138.0.0.0 Safari/537.36","WebKit","Chrome","138.0.0.0","Windows","10.0","https://app.prolific.com/","en-US,en;q=0.9","67b89f64c09d83ec36fdd403","686e379bc37a29ffa5cdc956","6877604c65b3f0bc65c1e381","1","1","67b89f64c09d83ec36fdd403","1","1","2025-07-16T08:49:58.559Z","","","","","","","","","","","AttribQ","","50","","","","","","","","","","","","","","","","","","","","","","","","","","","","",""
"2822","","<div style=""width:500px;"">
  <p>How much control did you have over the ball?</p>
  </div>","100","html-slider-response","66","1103560","0.0-5.0-2.11","70","1","2025-07-16 08:31:33","1f75c3e559b7213887762d5229550c2b","105.245.180.190","Mozilla/5.0 (Windows NT 10.0; Win64; x64) AppleWebKit/537.36 (KHTML, like Gecko) Chrome/138.0.0.0 Safari/537.36","WebKit","Chrome","138.0.0.0","Windows","10.0","https://app.prolific.com/","en-US,en;q=0.9","67b89f64c09d83ec36fdd403","686e379bc37a29ffa5cdc956","6877604c65b3f0bc65c1e381","1","1","67b89f64c09d83ec36fdd403","1","1","2025-07-16T08:50:01.388Z","","","","","","","","","","","ControlQ","","50","","","","","","","","","","","","","","","","","","","","","","","","","","","","",""
"5470","","<div style=""width:500px;"">
  <p>How would you describe your current emotional state?</p>
  </div>","0","html-slider-response","67","1109036","0.0-5.0-3.11","70","1","2025-07-16 08:31:33","1f75c3e559b7213887762d5229550c2b","105.245.180.190","Mozilla/5.0 (Windows NT 10.0; Win64; x64) AppleWebKit/537.36 (KHTML, like Gecko) Chrome/138.0.0.0 Safari/537.36","WebKit","Chrome","138.0.0.0","Windows","10.0","https://app.prolific.com/","en-US,en;q=0.9","67b89f64c09d83ec36fdd403","686e379bc37a29ffa5cdc956","6877604c65b3f0bc65c1e381","1","1","67b89f64c09d83ec36fdd403","1","1","2025-07-16T08:50:06.864Z","","","","","","","","","","","StressQ","","50","","","","","","","","","","","","","","","","","","","","","","","","","","","","",""
"3208","","<div style=""width:500px;"">
  <p>What best describes how you currently feel?</p>
  </div>","88","html-slider-response","68","1112252","0.0-5.0-4.11","70","1","2025-07-16 08:31:33","1f75c3e559b7213887762d5229550c2b","105.245.180.190","Mozilla/5.0 (Windows NT 10.0; Win64; x64) AppleWebKit/537.36 (KHTML, like Gecko) Chrome/138.0.0.0 Safari/537.36","WebKit","Chrome","138.0.0.0","Windows","10.0","https://app.prolific.com/","en-US,en;q=0.9","67b89f64c09d83ec36fdd403","686e379bc37a29ffa5cdc956","6877604c65b3f0bc65c1e381","1","1","67b89f64c09d83ec36fdd403","1","1","2025-07-16T08:50:10.080Z","","","","","","","","","","","MotivationQ","","50","","","","","","","","","","","","","","","","","","","","","","","","","","","","",""
"","","","","ctl-task-cpt","69","1178820","0.0-5.0-0.12","70","1","2025-07-16 08:31:33","1f75c3e559b7213887762d5229550c2b","105.245.180.190","Mozilla/5.0 (Windows NT 10.0; Win64; x64) AppleWebKit/537.36 (KHTML, like Gecko) Chrome/138.0.0.0 Safari/537.36","WebKit","Chrome","138.0.0.0","Windows","10.0","https://app.prolific.com/","en-US,en;q=0.9","67b89f64c09d83ec36fdd403","686e379bc37a29ffa5cdc956","6877604c65b3f0bc65c1e381","1","1","67b89f64c09d83ec36fdd403","1","1","2025-07-16T08:51:16.648Z","","","","","","","","","","","","","","win-only","1","g1:NE,g2:SW","0.7","13","0","1115237.3","1076.3","6091","63525.1","1","4","8","6","2","8","8","23","15","0.17424242424242425","1113.3","3000","1775","[""down"",""left""]","{""num_key_presses"":12,""num_perfect"":9,""num_errors"":0,""num_randdir"":3,""num_randdir_good_moves"":1,""num_whilered"":0,""num_whileblue"":0,""num_blue"":2,""num_good_moves"":9}","[295.22232142857143,301.12857142857143,10.7,295.22232142857143,301.12857142857143,125.9,295.22232142857143,301.12857142857143,299.7,295.22232142857143,301.12857142857143,470.2,292.22232142857143,304.12857142857143,637.5,185.22232142857143,419.12857142857143,811.5,57.222321428571426,520.1285714285714,976.2,37.222321428571426,532.1285714285714,1133.3,37.222321428571426,532.1285714285714,1285.2,37.222321428571426,532.1285714285714,1428.4,37.222321428571426,532.1285714285714,1564.9,37.222321428571426,532.1285714285714,1699.5,37.222321428571426,532.1285714285714,1835.9,37.222321428571426,532.1285714285714,1973.4,37.222321428571426,532.1285714285714,2114.4,37.222321428571426,532.1285714285714,2251.6,37.222321428571426,532.1285714285714,2384.3,37.222321428571426,532.1285714285714,2522.9,37.222321428571426,532.1285714285714,2662.3,37.222321428571426,532.1285714285714,2797.3,37.222321428571426,532.1285714285714,2934.9,37.222321428571426,532.1285714285714,3071.6,37.222321428571426,532.1285714285714,3214.3,37.222321428571426,532.1285714285714,3348,37.222321428571426,532.1285714285714,3485.2,37.222321428571426,532.1285714285714,3623.9,37.222321428571426,532.1285714285714,3760.2,37.222321428571426,532.1285714285714,3900.8,37.222321428571426,532.1285714285714,4036.8,37.222321428571426,532.1285714285714,4181.1,37.222321428571426,532.1285714285714,4319.9,37.222321428571426,532.1285714285714,4456.4,37.222321428571426,532.1285714285714,4596.2,37.222321428571426,532.1285714285714,4738.8,37.222321428571426,532.1285714285714,4876.8]","[1506.9,1506.9,1000,0,506.9,""smooth"",""up"",""up"",""bad_move"",10620.3,9111,2333.5,1509.4,6777.5,""smooth"",""left"",""left"",""good_move"",14228.2,3605.3,2436.6,10622.9,1168.7,""smooth"",""left"",""left"",""good_move"",22952.6,8720.3,3343.9,19253.1,355.6,""smooth"",""down"",""down"",""good_move"",25670,2713.7,1904.9,22956.3,808.8,""smooth"",""down"",""down"",""good_move"",28622.2,2946.1,2178.7,25676.1,767.4,""smooth"",""left"",""left"",""good_move"",36211.5,7586.1,3014.6,28625.4,4571.5,""oops"",""down"",""right"",""bad_move"",39714,3499.7,3110.3,36214.3,389.4,""oops"",""down"",""down"",""good_move"",46337.2,6619.2,2603.9,43159,574.3,""oops"",""left"",""right"",""bad_move"",49162.3,2823,2247.5,46339.3,575.5,""smooth"",""down"",""down"",""good_move"",52623.3,3455.3,3026.2,49168.1,429.1,""smooth"",""left"",""left"",""good_move"",56972.4,4345.8,2855.1,52626.7,1490.7,""smooth"",""left"",""left"",""good_move""]","",""
"4187","","<div style=""width:500px;"">
  <p>What determined the result of this run?</p>
  </div>","38","html-slider-response","70","1183010","0.0-5.0-1.12","70","1","2025-07-16 08:31:33","1f75c3e559b7213887762d5229550c2b","105.245.180.190","Mozilla/5.0 (Windows NT 10.0; Win64; x64) AppleWebKit/537.36 (KHTML, like Gecko) Chrome/138.0.0.0 Safari/537.36","WebKit","Chrome","138.0.0.0","Windows","10.0","https://app.prolific.com/","en-US,en;q=0.9","67b89f64c09d83ec36fdd403","686e379bc37a29ffa5cdc956","6877604c65b3f0bc65c1e381","1","1","67b89f64c09d83ec36fdd403","1","1","2025-07-16T08:51:20.839Z","","","","","","","","","","","AttribQ","","50","","","","","","","","","","","","","","","","","","","","","","","","","","","","",""
"3353","","<div style=""width:500px;"">
  <p>How much control did you have over the ball?</p>
  </div>","58","html-slider-response","71","1186373","0.0-5.0-2.12","70","1","2025-07-16 08:31:33","1f75c3e559b7213887762d5229550c2b","105.245.180.190","Mozilla/5.0 (Windows NT 10.0; Win64; x64) AppleWebKit/537.36 (KHTML, like Gecko) Chrome/138.0.0.0 Safari/537.36","WebKit","Chrome","138.0.0.0","Windows","10.0","https://app.prolific.com/","en-US,en;q=0.9","67b89f64c09d83ec36fdd403","686e379bc37a29ffa5cdc956","6877604c65b3f0bc65c1e381","1","1","67b89f64c09d83ec36fdd403","1","1","2025-07-16T08:51:24.202Z","","","","","","","","","","","ControlQ","","50","","","","","","","","","","","","","","","","","","","","","","","","","","","","",""
"3249","","<div style=""width:500px;"">
  <p>How would you describe your current emotional state?</p>
  </div>","15","html-slider-response","72","1189626","0.0-5.0-3.12","70","1","2025-07-16 08:31:33","1f75c3e559b7213887762d5229550c2b","105.245.180.190","Mozilla/5.0 (Windows NT 10.0; Win64; x64) AppleWebKit/537.36 (KHTML, like Gecko) Chrome/138.0.0.0 Safari/537.36","WebKit","Chrome","138.0.0.0","Windows","10.0","https://app.prolific.com/","en-US,en;q=0.9","67b89f64c09d83ec36fdd403","686e379bc37a29ffa5cdc956","6877604c65b3f0bc65c1e381","1","1","67b89f64c09d83ec36fdd403","1","1","2025-07-16T08:51:27.455Z","","","","","","","","","","","StressQ","","50","","","","","","","","","","","","","","","","","","","","","","","","","","","","",""
"2991","","<div style=""width:500px;"">
  <p>What best describes how you currently feel?</p>
  </div>","96","html-slider-response","73","1192623","0.0-5.0-4.12","70","1","2025-07-16 08:31:33","1f75c3e559b7213887762d5229550c2b","105.245.180.190","Mozilla/5.0 (Windows NT 10.0; Win64; x64) AppleWebKit/537.36 (KHTML, like Gecko) Chrome/138.0.0.0 Safari/537.36","WebKit","Chrome","138.0.0.0","Windows","10.0","https://app.prolific.com/","en-US,en;q=0.9","67b89f64c09d83ec36fdd403","686e379bc37a29ffa5cdc956","6877604c65b3f0bc65c1e381","1","1","67b89f64c09d83ec36fdd403","1","1","2025-07-16T08:51:30.452Z","","","","","","","","","","","MotivationQ","","50","","","","","","","","","","","","","","","","","","","","","","","","","","","","",""
