"rt","response_timestamp","stimulus","response","trial_type","trial_index","time_elapsed","internal_node_id","run_id","condition","recorded_at","source_code_version","ip","user_agent","device","browser","browser_version","platform","platform_version","referer","accept_language","PROLIFIC_PID","STUDY_ID","SESSION_ID","WEEK","BATCH","prolific_id","week","batch","realtime","success","responses","item_order","radio_event_ids","radio_event_times","key_event_times","mouse_event_times","straightlining","zigzagging","honeypot","eventType","view_history","slider_start","which_type","canvas_config","goals_layout","control_level","trial_number","tutorial_trial_number","trial_start_time","phase1_start_time","phase2_start_time","phase3_start_time","goal_1_value","goal_1_distance","goal_2_value","goal_2_distance","goal_selected","outcome","outcome_total","participant_final_score","participant_initial_score","participant_final_score_prop","goal_choice_rt","allocated_time","allocated_time_remaining","goal_direction","counts","mouse_movements","key_presses","question_order","question_id"
"67216","1753252486499","<p style='font-size:40px;line-height:1.25'><strong>Welcome to the experiment!</strong></p><p style='font-size:1.1em;line-height:1.25'>Thank you for participanting in our experiment again! You will be asked to play the Dysfunctional Ball Game again. We will briefly recap the rules before we start.</p><p style='font-size:1.1em;line-height:1.25'>Press <strong>Next</strong> to continue.</p>","0","custom-html-button-response","0","67221","0.0-0.0","151","1","2025-07-23 06:33:57","1f75c3e559b7213887762d5229550c2b","41.13.124.59","Mozilla/5.0 (Windows NT 10.0; Win64; x64) AppleWebKit/537.36 (KHTML, like Gecko) Chrome/138.0.0.0 Safari/537.36","WebKit","Chrome","138.0.0.0","Windows","10.0","https://app.prolific.com/","en-US,en;q=0.9","67b9e921b4b5ee4019522dbb","683db9eb0562dbf637994deb","6880815fb8435f949bbc0ee3","2","1","67b9e921b4b5ee4019522dbb","2","1","2025-07-23T06:34:46.501Z","","","","","","","","","","","","","","","","","","","","","","","","","","","","","","","","","","","","","","","","","",""
"16538","","","","fullscreen","1","84775","0.0-1.0","151","1","2025-07-23 06:33:57","1f75c3e559b7213887762d5229550c2b","41.13.124.59","Mozilla/5.0 (Windows NT 10.0; Win64; x64) AppleWebKit/537.36 (KHTML, like Gecko) Chrome/138.0.0.0 Safari/537.36","WebKit","Chrome","138.0.0.0","Windows","10.0","https://app.prolific.com/","en-US,en;q=0.9","67b9e921b4b5ee4019522dbb","683db9eb0562dbf637994deb","6880815fb8435f949bbc0ee3","2","1","67b9e921b4b5ee4019522dbb","2","1","","true","","","","","","","","","","","","","","","","","","","","","","","","","","","","","","","","","","","","","","","","",""
"5454","1753252509510","<p style='font-size:1.1em;line-height:1.25'>In the following, we will ask you a few questions relating to your feelings in the last 24 hours.<br></p><p style='font-size:1.1em;line-height:1.25'>Press the <strong>Next</strong> button to continue.</p>","0","custom-html-button-response","2","90232","0.0-2.0-0.0","151","1","2025-07-23 06:33:57","1f75c3e559b7213887762d5229550c2b","41.13.124.59","Mozilla/5.0 (Windows NT 10.0; Win64; x64) AppleWebKit/537.36 (KHTML, like Gecko) Chrome/138.0.0.0 Safari/537.36","WebKit","Chrome","138.0.0.0","Windows","10.0","https://app.prolific.com/","en-US,en;q=0.9","67b9e921b4b5ee4019522dbb","683db9eb0562dbf637994deb","6880815fb8435f949bbc0ee3","2","1","67b9e921b4b5ee4019522dbb","2","1","2025-07-23T06:35:09.511Z","","","","","","","","","","","","","","","","","","","","","","","","","","","","","","","","","","","","","","","","","",""
"199768.90000000224","","","","survey-template","3","290009","0.0-2.0-1.0","151","1","2025-07-23 06:33:57","1f75c3e559b7213887762d5229550c2b","41.13.124.59","Mozilla/5.0 (Windows NT 10.0; Win64; x64) AppleWebKit/537.36 (KHTML, like Gecko) Chrome/138.0.0.0 Safari/537.36","WebKit","Chrome","138.0.0.0","Windows","10.0","https://app.prolific.com/","en-US,en;q=0.9","67b9e921b4b5ee4019522dbb","683db9eb0562dbf637994deb","6880815fb8435f949bbc0ee3","2","1","67b9e921b4b5ee4019522dbb","2","1","2025-07-23T06:38:29.289Z","","{""Q01"":""1"",""Q02"":""0"",""Q03"":""0"",""Q04"":""0"",""Q05"":""1"",""Q06"":""0"",""Q07"":""0"",""Q08"":""0"",""Q09"":""0"",""Q10"":""0"",""Q11"":""0"",""Q12"":""2"",""Q13"":""5"",""Q14"":""2"",""Q15"":""0"",""Q16"":""0"",""Q17"":""0"",""Q18"":""0"",""Q19"":""0"",""Q20"":""0"",""Q21"":""0"",""Q22"":""0""}","[0,1,2,3,4,5,6,7,8,9,10,11,12,13,14,15,16,17,18,19,20,21]","[""Q01"",""Q02"",""Q03"",""Q04"",""Q05"",""Q06"",""Q07"",""Q08"",""Q10"",""Q11"",""Q12"",""Q13"",""Q14"",""Q15"",""Q16"",""Q17"",""Q18"",""Q19"",""Q20"",""Q21"",""Q22"",""Q01"",""Q09""]","[12182.10000000149,17351.5,20899.900000002235,23953.20000000298,27338.900000002235,32922.400000002235,36576.800000000745,40278.400000002235,50865.20000000298,55318.5,71992.60000000149,76956.10000000149,80679.90000000224,89499.30000000075,92333.70000000298,94202.10000000149,96968.70000000298,104273.5,116226.5,126383.5,132316.90000000224,153129.20000000298,188171.80000000075]","[]","[0.30000000074505806,12182.10000000149,17351.5,20899.900000002235,23953.20000000298,27338.900000002235,32922.400000002235,36576.800000000745,40278.400000002235,48979.900000002235,50865.20000000298,53983.70000000298,55318.5,71992.60000000149,76956.10000000149,80679.90000000224,89499.30000000075,92333.70000000298,94202.10000000149,96968.70000000298,104273.5,116226.5,126383.5,132316.90000000224,151742,153129.20000000298,175252.20000000298,188171.80000000075,199763.40000000224]","0.7727272727272727","0.14285714285714285","0","drsp","","","","","","","","","","","","","","","","","","","","","","","","","","","","","","",""
"27103.89999999851","","","","survey-template","4","317118","0.0-2.0-2.0","151","1","2025-07-23 06:33:57","1f75c3e559b7213887762d5229550c2b","41.13.124.59","Mozilla/5.0 (Windows NT 10.0; Win64; x64) AppleWebKit/537.36 (KHTML, like Gecko) Chrome/138.0.0.0 Safari/537.36","WebKit","Chrome","138.0.0.0","Windows","10.0","https://app.prolific.com/","en-US,en;q=0.9","67b9e921b4b5ee4019522dbb","683db9eb0562dbf637994deb","6880815fb8435f949bbc0ee3","2","1","67b9e921b4b5ee4019522dbb","2","1","2025-07-23T06:38:56.397Z","","{""Q01"":""0"",""Q02"":""0"",""Q03"":""0""}","[0,1,2]","[""Q01"",""Q02"",""Q03""]","[4757,17446.199999999255,25399.79999999702]","[]","[4757,17446.199999999255,25399.79999999702,27102.79999999702]","0.6666666666666666","1","0","stress","","","","","","","","","","","","","","","","","","","","","","","","","","","","","","",""
"26341","","","","instructions","5","343461","0.0-3.0-0.0","151","1","2025-07-23 06:33:57","1f75c3e559b7213887762d5229550c2b","41.13.124.59","Mozilla/5.0 (Windows NT 10.0; Win64; x64) AppleWebKit/537.36 (KHTML, like Gecko) Chrome/138.0.0.0 Safari/537.36","WebKit","Chrome","138.0.0.0","Windows","10.0","https://app.prolific.com/","en-US,en;q=0.9","67b9e921b4b5ee4019522dbb","683db9eb0562dbf637994deb","6880815fb8435f949bbc0ee3","2","1","67b9e921b4b5ee4019522dbb","2","1","","","","","","","","","","","","","[{""page_index"":0,""viewing_time"":26341}]","","","","","","","","","","","","","","","","","","","","","","","","","","","","","",""
"9550","","<p>Before you start with this game please answer the following three questions yourself. </p>
  <p>Through this game, we measure several aspects of your cognitive performance, such as reaction times, multi-tasking capabilities </p>
  <p>and the ability to assess the situation you are in.</p>
  <p></p>
  <p><b>How good do you usually are in such tasks?</b></p>","100","html-slider-response","6","353013","0.0-4.0-0.0","151","1","2025-07-23 06:33:57","1f75c3e559b7213887762d5229550c2b","41.13.124.59","Mozilla/5.0 (Windows NT 10.0; Win64; x64) AppleWebKit/537.36 (KHTML, like Gecko) Chrome/138.0.0.0 Safari/537.36","WebKit","Chrome","138.0.0.0","Windows","10.0","https://app.prolific.com/","en-US,en;q=0.9","67b9e921b4b5ee4019522dbb","683db9eb0562dbf637994deb","6880815fb8435f949bbc0ee3","2","1","67b9e921b4b5ee4019522dbb","2","1","2025-07-23T06:39:32.293Z","","","","","","","","","","","PreSkillQ","","50","","","","","","","","","","","","","","","","","","","","","","","","","","","","",""
"6019","","<div style=""width:500px;"">
  <p>How well do you think you will perform in this task compared to other participants?</p>
  </div>","71","html-slider-response","7","359035","0.0-4.0-1.0","151","1","2025-07-23 06:33:57","1f75c3e559b7213887762d5229550c2b","41.13.124.59","Mozilla/5.0 (Windows NT 10.0; Win64; x64) AppleWebKit/537.36 (KHTML, like Gecko) Chrome/138.0.0.0 Safari/537.36","WebKit","Chrome","138.0.0.0","Windows","10.0","https://app.prolific.com/","en-US,en;q=0.9","67b9e921b4b5ee4019522dbb","683db9eb0562dbf637994deb","6880815fb8435f949bbc0ee3","2","1","67b9e921b4b5ee4019522dbb","2","1","2025-07-23T06:39:38.314Z","","","","","","","","","","","PrePerfQ","","50","","","","","","","","","","","","","","","","","","","","","","","","","","","","",""
"4666","","<div style=""width:500px;"">
  <p>What best describes how you currently feel?</p>
  </div>","100","html-slider-response","8","363703","0.0-4.0-2.0","151","1","2025-07-23 06:33:57","1f75c3e559b7213887762d5229550c2b","41.13.124.59","Mozilla/5.0 (Windows NT 10.0; Win64; x64) AppleWebKit/537.36 (KHTML, like Gecko) Chrome/138.0.0.0 Safari/537.36","WebKit","Chrome","138.0.0.0","Windows","10.0","https://app.prolific.com/","en-US,en;q=0.9","67b9e921b4b5ee4019522dbb","683db9eb0562dbf637994deb","6880815fb8435f949bbc0ee3","2","1","67b9e921b4b5ee4019522dbb","2","1","2025-07-23T06:39:42.982Z","","","","","","","","","","","PreMotivationQ","","50","","","","","","","","","","","","","","","","","","","","","","","","","","","","",""
"","","","","ctl-task-cpt","9","396287","0.0-5.0-0.0","151","1","2025-07-23 06:33:57","1f75c3e559b7213887762d5229550c2b","41.13.124.59","Mozilla/5.0 (Windows NT 10.0; Win64; x64) AppleWebKit/537.36 (KHTML, like Gecko) Chrome/138.0.0.0 Safari/537.36","WebKit","Chrome","138.0.0.0","Windows","10.0","https://app.prolific.com/","en-US,en;q=0.9","67b9e921b4b5ee4019522dbb","683db9eb0562dbf637994deb","6880815fb8435f949bbc0ee3","2","1","67b9e921b4b5ee4019522dbb","2","1","2025-07-23T06:40:15.567Z","","","","","","","","","","","","","","win-only","3","g1:SW,g2:NE","1","1","0","368617.4","4791.3","9805.6","29565.1","1","4","4","6","2","4","4","4","0","0.030303030303030304","2494.9","3000","750","[""up"",""right""]","{""num_key_presses"":6,""num_perfect"":6,""num_errors"":0,""num_randdir"":0,""num_randdir_good_moves"":0,""num_whilered"":0,""num_whileblue"":0,""num_blue"":1,""num_good_moves"":6}","[294.22232142857143,301.12857142857143,2.2,294.22232142857143,301.12857142857143,116.1,294.22232142857143,301.12857142857143,238.8,294.22232142857143,301.12857142857143,340.9,294.22232142857143,301.12857142857143,445.2,294.22232142857143,301.12857142857143,562.8,294.22232142857143,301.12857142857143,664.6,294.22232142857143,301.12857142857143,777.2,294.22232142857143,301.12857142857143,877.3,294.22232142857143,301.12857142857143,977.5,294.22232142857143,301.12857142857143,1077.5,298.22232142857143,291.12857142857143,1179.8,294.22232142857143,295.12857142857143,1284.7,325.22232142857143,267.12857142857143,1395.9,418.22232142857143,168.12857142857143,1496,418.22232142857143,168.12857142857143,1610.9,418.22232142857143,168.12857142857143,1710.9,418.22232142857143,168.12857142857143,1810.9,502.22232142857143,56.128571428571426,1914,534.2223214285714,30.128571428571426,2014.3,539.2223214285714,27.128571428571426,2115.9,539.2223214285714,27.128571428571426,2230.4,539.2223214285714,27.128571428571426,2331.2,539.2223214285714,27.128571428571426,2435.3,539.2223214285714,27.128571428571426,2540.6,539.2223214285714,27.128571428571426,2641,539.2223214285714,27.128571428571426,2745.7,539.2223214285714,27.128571428571426,2879.6,539.2223214285714,27.128571428571426,2995.1,539.2223214285714,27.128571428571426,3110.5,539.2223214285714,27.128571428571426,3218.9,539.2223214285714,27.128571428571426,3321.4,539.2223214285714,27.128571428571426,3425.4,539.2223214285714,27.128571428571426,3525.4,539.2223214285714,27.128571428571426,3626.4,539.2223214285714,27.128571428571426,3730.4,539.2223214285714,27.128571428571426,3830.9,539.2223214285714,27.128571428571426,3931,539.2223214285714,27.128571428571426,4031.2,539.2223214285714,27.128571428571426,4145.1,539.2223214285714,27.128571428571426,4245.2,539.2223214285714,27.128571428571426,4350.4,539.2223214285714,27.128571428571426,4450.6,539.2223214285714,27.128571428571426,4550.6,539.2223214285714,27.128571428571426,4650.6,539.2223214285714,27.128571428571426,4750.6,539.2223214285714,27.128571428571426,4850.6,539.2223214285714,27.128571428571426,4950.8]","[1738.3,1738.2,1000,0.1,738.2,""smooth"",""up"",""up"",""good_move"",9268.7,7529.1,2647.4,5996.1,625.2,""smooth"",""up"",""up"",""good_move"",12056.3,2786.8,2220.7,9269.7,566,""smooth"",""right"",""right"",""good_move"",14170.7,2111.3,1605.5,12059.5,505.7,""smooth"",""right"",""right"",""good_move"",17105.3,2933.7,2423.7,14171.6,510,""smooth"",""up"",""up"",""good_move"",19639.8,2533.6,2176.5,17106.3,357,""smooth"",""right"",""right"",""good_move""]","",""
"4425","","<div style=""width:500px;"">
  <p>What determined the result of this run?</p>
  </div>","100","html-slider-response","10","400715","0.0-5.0-1.0","151","1","2025-07-23 06:33:57","1f75c3e559b7213887762d5229550c2b","41.13.124.59","Mozilla/5.0 (Windows NT 10.0; Win64; x64) AppleWebKit/537.36 (KHTML, like Gecko) Chrome/138.0.0.0 Safari/537.36","WebKit","Chrome","138.0.0.0","Windows","10.0","https://app.prolific.com/","en-US,en;q=0.9","67b9e921b4b5ee4019522dbb","683db9eb0562dbf637994deb","6880815fb8435f949bbc0ee3","2","1","67b9e921b4b5ee4019522dbb","2","1","2025-07-23T06:40:19.994Z","","","","","","","","","","","AttribQ","","50","","","","","","","","","","","","","","","","","","","","","","","","","","","","",""
"5698","","<div style=""width:500px;"">
  <p>How much control did you have over the ball?</p>
  </div>","100","html-slider-response","11","406415","0.0-5.0-2.0","151","1","2025-07-23 06:33:57","1f75c3e559b7213887762d5229550c2b","41.13.124.59","Mozilla/5.0 (Windows NT 10.0; Win64; x64) AppleWebKit/537.36 (KHTML, like Gecko) Chrome/138.0.0.0 Safari/537.36","WebKit","Chrome","138.0.0.0","Windows","10.0","https://app.prolific.com/","en-US,en;q=0.9","67b9e921b4b5ee4019522dbb","683db9eb0562dbf637994deb","6880815fb8435f949bbc0ee3","2","1","67b9e921b4b5ee4019522dbb","2","1","2025-07-23T06:40:25.695Z","","","","","","","","","","","ControlQ","","50","","","","","","","","","","","","","","","","","","","","","","","","","","","","",""
"3811","","<div style=""width:500px;"">
  <p>How would you describe your current emotional state?</p>
  </div>","1","html-slider-response","12","410228","0.0-5.0-3.0","151","1","2025-07-23 06:33:57","1f75c3e559b7213887762d5229550c2b","41.13.124.59","Mozilla/5.0 (Windows NT 10.0; Win64; x64) AppleWebKit/537.36 (KHTML, like Gecko) Chrome/138.0.0.0 Safari/537.36","WebKit","Chrome","138.0.0.0","Windows","10.0","https://app.prolific.com/","en-US,en;q=0.9","67b9e921b4b5ee4019522dbb","683db9eb0562dbf637994deb","6880815fb8435f949bbc0ee3","2","1","67b9e921b4b5ee4019522dbb","2","1","2025-07-23T06:40:29.508Z","","","","","","","","","","","StressQ","","50","","","","","","","","","","","","","","","","","","","","","","","","","","","","",""
"19912","","<div style=""width:500px;"">
  <p>What best describes how you currently feel?</p>
  </div>","100","html-slider-response","13","430143","0.0-5.0-4.0","151","1","2025-07-23 06:33:57","1f75c3e559b7213887762d5229550c2b","41.13.124.59","Mozilla/5.0 (Windows NT 10.0; Win64; x64) AppleWebKit/537.36 (KHTML, like Gecko) Chrome/138.0.0.0 Safari/537.36","WebKit","Chrome","138.0.0.0","Windows","10.0","https://app.prolific.com/","en-US,en;q=0.9","67b9e921b4b5ee4019522dbb","683db9eb0562dbf637994deb","6880815fb8435f949bbc0ee3","2","1","67b9e921b4b5ee4019522dbb","2","1","2025-07-23T06:40:49.422Z","","","","","","","","","","","MotivationQ","","50","","","","","","","","","","","","","","","","","","","","","","","","","","","","",""
"","","","","ctl-task-cpt","14","463566","0.0-5.0-0.1","151","1","2025-07-23 06:33:57","1f75c3e559b7213887762d5229550c2b","41.13.124.59","Mozilla/5.0 (Windows NT 10.0; Win64; x64) AppleWebKit/537.36 (KHTML, like Gecko) Chrome/138.0.0.0 Safari/537.36","WebKit","Chrome","138.0.0.0","Windows","10.0","https://app.prolific.com/","en-US,en;q=0.9","67b9e921b4b5ee4019522dbb","683db9eb0562dbf637994deb","6880815fb8435f949bbc0ee3","2","1","67b9e921b4b5ee4019522dbb","2","1","2025-07-23T06:41:22.846Z","","","","","","","","","","","","","","win-only","3","g1:SW,g2:NE","0.9","2","0","435056.8","3482.9","8501.3","30412.9","1","4","8","6","2","8","8","12","4","0.09090909090909091","2004.2","3000","1300","[""up"",""right""]","{""num_key_presses"":6,""num_perfect"":5,""num_errors"":0,""num_randdir"":1,""num_randdir_good_moves"":1,""num_whilered"":0,""num_whileblue"":0,""num_blue"":1,""num_good_moves"":6}","[297.22232142857143,296.12857142857143,0.7,297.22232142857143,296.12857142857143,104.7,297.22232142857143,296.12857142857143,209.9,297.22232142857143,296.12857142857143,315.5,297.22232142857143,296.12857142857143,440.8,297.22232142857143,296.12857142857143,543.7,297.22232142857143,296.12857142857143,644.1,297.22232142857143,296.12857142857143,744.7,297.22232142857143,296.12857142857143,848.9,297.22232142857143,296.12857142857143,950.3,313.22232142857143,285.12857142857143,1056.7,440.22232142857143,204.12857142857143,1158.6,440.22232142857143,204.12857142857143,1259.3,440.22232142857143,204.12857142857143,1359.3,440.22232142857143,204.12857142857143,1459.4,533.2223214285714,98.12857142857143,1577.9,544.2223214285714,82.12857142857143,1679.4,544.2223214285714,82.12857142857143,1779.6,544.2223214285714,82.12857142857143,1895.1,544.2223214285714,82.12857142857143,2001.3,544.2223214285714,82.12857142857143,2111.6,544.2223214285714,82.12857142857143,2214.6,544.2223214285714,82.12857142857143,2319.2,544.2223214285714,82.12857142857143,2424.4,544.2223214285714,82.12857142857143,2541.3,544.2223214285714,82.12857142857143,2641.9,544.2223214285714,82.12857142857143,2741.9,544.2223214285714,82.12857142857143,2844,544.2223214285714,82.12857142857143,2960.2,543.2223214285714,82.12857142857143,3076.8,543.2223214285714,82.12857142857143,3179.5,543.2223214285714,82.12857142857143,3283.5,529.2223214285714,102.12857142857143,3385.3,528.2223214285714,105.12857142857143,3489.9,528.2223214285714,105.12857142857143,3594.2,528.2223214285714,105.12857142857143,3700.9,528.2223214285714,105.12857142857143,3804,528.2223214285714,105.12857142857143,3904.6,528.2223214285714,105.12857142857143,4008.7,528.2223214285714,105.12857142857143,4123.8,528.2223214285714,105.12857142857143,4224,528.2223214285714,105.12857142857143,4329.4,528.2223214285714,105.12857142857143,4429.5,528.2223214285714,105.12857142857143,4559.7,528.2223214285714,105.12857142857143,4663.8,528.2223214285714,105.12857142857143,4777.2,528.2223214285714,105.12857142857143,4879.4,528.2223214285714,105.12857142857143,4979.8]","[5400.8,5400.8,2819.9,2005.7,575.2,""oops"",""up"",""up"",""good_move"",8395.8,2993.8,2572.6,5402,421.2,""smooth"",""right"",""right"",""good_move"",11845.3,3448,2819.4,8397.3,628.6,""smooth"",""up"",""up"",""good_move"",15794.5,3948.2,3393.6,11846.3,554.6,""smooth"",""right"",""right"",""good_move"",19012.4,3216.7,2691.7,15795.7,525,""smooth"",""up"",""up"",""good_move"",21747.4,2734,2339.6,19013.4,394.4,""smooth"",""right"",""right"",""good_move""]","",""
"4153","","<div style=""width:500px;"">
  <p>What determined the result of this run?</p>
  </div>","100","html-slider-response","15","467722","0.0-5.0-1.1","151","1","2025-07-23 06:33:57","1f75c3e559b7213887762d5229550c2b","41.13.124.59","Mozilla/5.0 (Windows NT 10.0; Win64; x64) AppleWebKit/537.36 (KHTML, like Gecko) Chrome/138.0.0.0 Safari/537.36","WebKit","Chrome","138.0.0.0","Windows","10.0","https://app.prolific.com/","en-US,en;q=0.9","67b9e921b4b5ee4019522dbb","683db9eb0562dbf637994deb","6880815fb8435f949bbc0ee3","2","1","67b9e921b4b5ee4019522dbb","2","1","2025-07-23T06:41:27.001Z","","","","","","","","","","","AttribQ","","50","","","","","","","","","","","","","","","","","","","","","","","","","","","","",""
"3342","","<div style=""width:500px;"">
  <p>How much control did you have over the ball?</p>
  </div>","100","html-slider-response","16","471067","0.0-5.0-2.1","151","1","2025-07-23 06:33:57","1f75c3e559b7213887762d5229550c2b","41.13.124.59","Mozilla/5.0 (Windows NT 10.0; Win64; x64) AppleWebKit/537.36 (KHTML, like Gecko) Chrome/138.0.0.0 Safari/537.36","WebKit","Chrome","138.0.0.0","Windows","10.0","https://app.prolific.com/","en-US,en;q=0.9","67b9e921b4b5ee4019522dbb","683db9eb0562dbf637994deb","6880815fb8435f949bbc0ee3","2","1","67b9e921b4b5ee4019522dbb","2","1","2025-07-23T06:41:30.346Z","","","","","","","","","","","ControlQ","","50","","","","","","","","","","","","","","","","","","","","","","","","","","","","",""
"3678","","<div style=""width:500px;"">
  <p>How would you describe your current emotional state?</p>
  </div>","0","html-slider-response","17","474746","0.0-5.0-3.1","151","1","2025-07-23 06:33:57","1f75c3e559b7213887762d5229550c2b","41.13.124.59","Mozilla/5.0 (Windows NT 10.0; Win64; x64) AppleWebKit/537.36 (KHTML, like Gecko) Chrome/138.0.0.0 Safari/537.36","WebKit","Chrome","138.0.0.0","Windows","10.0","https://app.prolific.com/","en-US,en;q=0.9","67b9e921b4b5ee4019522dbb","683db9eb0562dbf637994deb","6880815fb8435f949bbc0ee3","2","1","67b9e921b4b5ee4019522dbb","2","1","2025-07-23T06:41:34.026Z","","","","","","","","","","","StressQ","","50","","","","","","","","","","","","","","","","","","","","","","","","","","","","",""
"4568","","<div style=""width:500px;"">
  <p>What best describes how you currently feel?</p>
  </div>","100","html-slider-response","18","479317","0.0-5.0-4.1","151","1","2025-07-23 06:33:57","1f75c3e559b7213887762d5229550c2b","41.13.124.59","Mozilla/5.0 (Windows NT 10.0; Win64; x64) AppleWebKit/537.36 (KHTML, like Gecko) Chrome/138.0.0.0 Safari/537.36","WebKit","Chrome","138.0.0.0","Windows","10.0","https://app.prolific.com/","en-US,en;q=0.9","67b9e921b4b5ee4019522dbb","683db9eb0562dbf637994deb","6880815fb8435f949bbc0ee3","2","1","67b9e921b4b5ee4019522dbb","2","1","2025-07-23T06:41:38.596Z","","","","","","","","","","","MotivationQ","","50","","","","","","","","","","","","","","","","","","","","","","","","","","","","",""
"","","","","ctl-task-cpt","19","516925","0.0-5.0-0.2","151","1","2025-07-23 06:33:57","1f75c3e559b7213887762d5229550c2b","41.13.124.59","Mozilla/5.0 (Windows NT 10.0; Win64; x64) AppleWebKit/537.36 (KHTML, like Gecko) Chrome/138.0.0.0 Safari/537.36","WebKit","Chrome","138.0.0.0","Windows","10.0","https://app.prolific.com/","en-US,en;q=0.9","67b9e921b4b5ee4019522dbb","683db9eb0562dbf637994deb","6880815fb8435f949bbc0ee3","2","1","67b9e921b4b5ee4019522dbb","2","1","2025-07-23T06:42:16.205Z","","","","","","","","","","","","","","win-only","2","g1:SE,g2:NW","0.8","3","0","484231.2","2334.1","7353.9","34592.3","1","4","8","6","2","8","8","20","12","0.15151515151515152","2613.5","3000","775","[""left"",""up""]","{""num_key_presses"":8,""num_perfect"":7,""num_errors"":0,""num_randdir"":1,""num_randdir_good_moves"":0,""num_whilered"":0,""num_whileblue"":0,""num_blue"":1,""num_good_moves"":7}","[295.22232142857143,297.12857142857143,0.9,295.22232142857143,297.12857142857143,113.9,295.22232142857143,297.12857142857143,235.8,295.22232142857143,297.12857142857143,337.1,295.22232142857143,297.12857142857143,437.5,295.22232142857143,297.12857142857143,538.9,295.22232142857143,297.12857142857143,643.4,295.22232142857143,297.12857142857143,771.7,295.22232142857143,297.12857142857143,873.1,295.22232142857143,297.12857142857143,977.3,295.22232142857143,297.12857142857143,1085.1,295.22232142857143,297.12857142857143,1187.7,295.22232142857143,297.12857142857143,1287.7,295.22232142857143,297.12857142857143,1392.9,295.22232142857143,297.12857142857143,1496.9,295.22232142857143,297.12857142857143,1598.2,295.22232142857143,297.12857142857143,1705.2,295.22232142857143,297.12857142857143,1807.8,260.22232142857143,277.12857142857143,1917.9,83.22232142857143,184.12857142857143,2023.3,-0.7776785714285737,86.12857142857143,2128.2,-7.777678571428574,28.128571428571426,2229.2,-0.7776785714285737,26.128571428571426,2333.1,2.2223214285714263,26.128571428571426,2437.9,2.2223214285714263,26.128571428571426,2538.3,2.2223214285714263,26.128571428571426,2670.3,2.2223214285714263,26.128571428571426,2774,2.2223214285714263,26.128571428571426,2880.4,2.2223214285714263,26.128571428571426,2983.5,2.2223214285714263,26.128571428571426,3095.8,5.222321428571426,28.128571428571426,3197.4,105.22232142857143,133.12857142857143,3319.8,113.22232142857143,136.12857142857143,3423.2,113.22232142857143,136.12857142857143,3523.3,113.22232142857143,136.12857142857143,3631.8,113.22232142857143,136.12857142857143,3753.5,113.22232142857143,136.12857142857143,3875.6,113.22232142857143,136.12857142857143,3991.7,113.22232142857143,136.12857142857143,4092.1,113.22232142857143,136.12857142857143,4193.8,113.22232142857143,136.12857142857143,4345.4,113.22232142857143,136.12857142857143,4480.9,113.22232142857143,136.12857142857143,4582.6,113.22232142857143,136.12857142857143,4709,113.22232142857143,136.12857142857143,4813.1,113.22232142857143,136.12857142857143,4917.5]","[1462.8,1462.8,1000,0,462.8,""oops"",""left"",""down"",""bad_move"",5316.9,3853,2280.6,1463.9,1572.4,""smooth"",""left"",""left"",""good_move"",8151.3,2833.1,2195.1,5318.3,637.9,""smooth"",""left"",""left"",""good_move"",11178.3,3026,2602.8,8152.3,423.2,""smooth"",""up"",""up"",""good_move"",14219.6,3039.9,2438.2,11179.8,601.7,""smooth"",""up"",""up"",""good_move"",17745.3,3524.6,3015.9,14220.7,508.7,""smooth"",""up"",""up"",""good_move"",20475.3,2729.1,2236,17746.2,493.2,""smooth"",""up"",""up"",""good_move"",27088.8,6612.5,2206.9,24444.2,437.7,""smooth"",""left"",""left"",""good_move""]","",""
"5566","","<div style=""width:500px;"">
  <p>What determined the result of this run?</p>
  </div>","100","html-slider-response","20","522493","0.0-5.0-1.2","151","1","2025-07-23 06:33:57","1f75c3e559b7213887762d5229550c2b","41.13.124.59","Mozilla/5.0 (Windows NT 10.0; Win64; x64) AppleWebKit/537.36 (KHTML, like Gecko) Chrome/138.0.0.0 Safari/537.36","WebKit","Chrome","138.0.0.0","Windows","10.0","https://app.prolific.com/","en-US,en;q=0.9","67b9e921b4b5ee4019522dbb","683db9eb0562dbf637994deb","6880815fb8435f949bbc0ee3","2","1","67b9e921b4b5ee4019522dbb","2","1","2025-07-23T06:42:21.773Z","","","","","","","","","","","AttribQ","","50","","","","","","","","","","","","","","","","","","","","","","","","","","","","",""
"7569","","<div style=""width:500px;"">
  <p>How much control did you have over the ball?</p>
  </div>","100","html-slider-response","21","530066","0.0-5.0-2.2","151","1","2025-07-23 06:33:57","1f75c3e559b7213887762d5229550c2b","41.13.124.59","Mozilla/5.0 (Windows NT 10.0; Win64; x64) AppleWebKit/537.36 (KHTML, like Gecko) Chrome/138.0.0.0 Safari/537.36","WebKit","Chrome","138.0.0.0","Windows","10.0","https://app.prolific.com/","en-US,en;q=0.9","67b9e921b4b5ee4019522dbb","683db9eb0562dbf637994deb","6880815fb8435f949bbc0ee3","2","1","67b9e921b4b5ee4019522dbb","2","1","2025-07-23T06:42:29.345Z","","","","","","","","","","","ControlQ","","50","","","","","","","","","","","","","","","","","","","","","","","","","","","","",""
"6857","","<div style=""width:500px;"">
  <p>How would you describe your current emotional state?</p>
  </div>","0","html-slider-response","22","536925","0.0-5.0-3.2","151","1","2025-07-23 06:33:57","1f75c3e559b7213887762d5229550c2b","41.13.124.59","Mozilla/5.0 (Windows NT 10.0; Win64; x64) AppleWebKit/537.36 (KHTML, like Gecko) Chrome/138.0.0.0 Safari/537.36","WebKit","Chrome","138.0.0.0","Windows","10.0","https://app.prolific.com/","en-US,en;q=0.9","67b9e921b4b5ee4019522dbb","683db9eb0562dbf637994deb","6880815fb8435f949bbc0ee3","2","1","67b9e921b4b5ee4019522dbb","2","1","2025-07-23T06:42:36.204Z","","","","","","","","","","","StressQ","","50","","","","","","","","","","","","","","","","","","","","","","","","","","","","",""
"8590","","<div style=""width:500px;"">
  <p>What best describes how you currently feel?</p>
  </div>","100","html-slider-response","23","545518","0.0-5.0-4.2","151","1","2025-07-23 06:33:57","1f75c3e559b7213887762d5229550c2b","41.13.124.59","Mozilla/5.0 (Windows NT 10.0; Win64; x64) AppleWebKit/537.36 (KHTML, like Gecko) Chrome/138.0.0.0 Safari/537.36","WebKit","Chrome","138.0.0.0","Windows","10.0","https://app.prolific.com/","en-US,en;q=0.9","67b9e921b4b5ee4019522dbb","683db9eb0562dbf637994deb","6880815fb8435f949bbc0ee3","2","1","67b9e921b4b5ee4019522dbb","2","1","2025-07-23T06:42:44.797Z","","","","","","","","","","","MotivationQ","","50","","","","","","","","","","","","","","","","","","","","","","","","","","","","",""
"","","","","ctl-task-cpt","24","598852","0.0-5.0-0.3","151","1","2025-07-23 06:33:57","1f75c3e559b7213887762d5229550c2b","41.13.124.59","Mozilla/5.0 (Windows NT 10.0; Win64; x64) AppleWebKit/537.36 (KHTML, like Gecko) Chrome/138.0.0.0 Safari/537.36","WebKit","Chrome","138.0.0.0","Windows","10.0","https://app.prolific.com/","en-US,en;q=0.9","67b9e921b4b5ee4019522dbb","683db9eb0562dbf637994deb","6880815fb8435f949bbc0ee3","2","1","67b9e921b4b5ee4019522dbb","2","1","2025-07-23T06:43:38.131Z","","","","","","","","","","","","","","win-only","3","g1:SW,g2:NE","0.7","4","0","550432.8","7128.8","12134.4","50283.7","1","4","4","6","2","4","4","24","20","0.18181818181818182","1813.9","3000","1210","[""up"",""right""]","{""num_key_presses"":8,""num_perfect"":6,""num_errors"":0,""num_randdir"":2,""num_randdir_good_moves"":1,""num_whilered"":0,""num_whileblue"":0,""num_blue"":4,""num_good_moves"":7}","[293.22232142857143,293.12857142857143,0.6,293.22232142857143,293.12857142857143,100.2,293.22232142857143,293.12857142857143,204.5,293.22232142857143,293.12857142857143,320,293.22232142857143,293.12857142857143,433.9,293.22232142857143,293.12857142857143,537.9,293.22232142857143,293.12857142857143,658.6,293.22232142857143,293.12857142857143,763,293.22232142857143,293.12857142857143,888.8,353.22232142857143,230.12857142857143,990.6,441.22232142857143,145.12857142857143,1092,488.22232142857143,107.12857142857143,1201.6,509.22232142857143,94.12857142857143,1303.4,519.2223214285714,84.12857142857143,1403.5,524.2223214285714,79.12857142857143,1516.6,526.2223214285714,76.12857142857143,1639.1,526.2223214285714,76.12857142857143,1755.3,526.2223214285714,76.12857142857143,1884.7,526.2223214285714,76.12857142857143,2020.6,526.2223214285714,76.12857142857143,2122.9,526.2223214285714,76.12857142857143,2223.7,526.2223214285714,76.12857142857143,2325,526.2223214285714,76.12857142857143,2425.3,526.2223214285714,76.12857142857143,2550.9,526.2223214285714,76.12857142857143,2653.7,526.2223214285714,76.12857142857143,2758.4,526.2223214285714,76.12857142857143,2858.9,526.2223214285714,76.12857142857143,2986.7,526.2223214285714,76.12857142857143,3097.7,526.2223214285714,76.12857142857143,3221.1,526.2223214285714,76.12857142857143,3321.8,526.2223214285714,76.12857142857143,3422.4,526.2223214285714,76.12857142857143,3527.5,526.2223214285714,76.12857142857143,3632,526.2223214285714,76.12857142857143,3764.6,526.2223214285714,76.12857142857143,3868.9,526.2223214285714,76.12857142857143,3984.2,526.2223214285714,76.12857142857143,4086.3,526.2223214285714,76.12857142857143,4188.6,526.2223214285714,76.12857142857143,4289,526.2223214285714,76.12857142857143,4389.7,526.2223214285714,76.12857142857143,4490.7,526.2223214285714,76.12857142857143,4602.8,526.2223214285714,76.12857142857143,4710.3,526.2223214285714,76.12857142857143,4832,526.2223214285714,76.12857142857143,4943.7]","[1538.8,1538.8,1000,0,538.8,""smooth"",""up"",""up"",""good_move"",8491,6951.1,2798.1,5203.4,489.5,""smooth"",""right"",""right"",""good_move"",11737,3245.1,2690.2,8491.9,554.9,""oops"",""up"",""left"",""bad_move"",17577.7,5839.5,2234.4,14884.5,458.8,""smooth"",""up"",""up"",""good_move"",27607.4,10029.1,2022.6,25082.2,502.6,""smooth"",""right"",""right"",""good_move"",31373.2,3765.1,3065.5,27608.1,699.6,""smooth"",""right"",""right"",""good_move"",34747.5,3373.2,2577.2,31374.3,796,""smooth"",""up"",""up"",""good_move"",37971.2,3222.8,2676.3,34748.5,546.4,""oops"",""right"",""right"",""good_move""]","",""
"5729","","<div style=""width:500px;"">
  <p>What determined the result of this run?</p>
  </div>","100","html-slider-response","25","604584","0.0-5.0-1.3","151","1","2025-07-23 06:33:57","1f75c3e559b7213887762d5229550c2b","41.13.124.59","Mozilla/5.0 (Windows NT 10.0; Win64; x64) AppleWebKit/537.36 (KHTML, like Gecko) Chrome/138.0.0.0 Safari/537.36","WebKit","Chrome","138.0.0.0","Windows","10.0","https://app.prolific.com/","en-US,en;q=0.9","67b9e921b4b5ee4019522dbb","683db9eb0562dbf637994deb","6880815fb8435f949bbc0ee3","2","1","67b9e921b4b5ee4019522dbb","2","1","2025-07-23T06:43:43.863Z","","","","","","","","","","","AttribQ","","50","","","","","","","","","","","","","","","","","","","","","","","","","","","","",""
"6277","","<div style=""width:500px;"">
  <p>How much control did you have over the ball?</p>
  </div>","100","html-slider-response","26","610864","0.0-5.0-2.3","151","1","2025-07-23 06:33:57","1f75c3e559b7213887762d5229550c2b","41.13.124.59","Mozilla/5.0 (Windows NT 10.0; Win64; x64) AppleWebKit/537.36 (KHTML, like Gecko) Chrome/138.0.0.0 Safari/537.36","WebKit","Chrome","138.0.0.0","Windows","10.0","https://app.prolific.com/","en-US,en;q=0.9","67b9e921b4b5ee4019522dbb","683db9eb0562dbf637994deb","6880815fb8435f949bbc0ee3","2","1","67b9e921b4b5ee4019522dbb","2","1","2025-07-23T06:43:50.143Z","","","","","","","","","","","ControlQ","","50","","","","","","","","","","","","","","","","","","","","","","","","","","","","",""
"6611","","<div style=""width:500px;"">
  <p>How would you describe your current emotional state?</p>
  </div>","1","html-slider-response","27","617479","0.0-5.0-3.3","151","1","2025-07-23 06:33:57","1f75c3e559b7213887762d5229550c2b","41.13.124.59","Mozilla/5.0 (Windows NT 10.0; Win64; x64) AppleWebKit/537.36 (KHTML, like Gecko) Chrome/138.0.0.0 Safari/537.36","WebKit","Chrome","138.0.0.0","Windows","10.0","https://app.prolific.com/","en-US,en;q=0.9","67b9e921b4b5ee4019522dbb","683db9eb0562dbf637994deb","6880815fb8435f949bbc0ee3","2","1","67b9e921b4b5ee4019522dbb","2","1","2025-07-23T06:43:56.758Z","","","","","","","","","","","StressQ","","50","","","","","","","","","","","","","","","","","","","","","","","","","","","","",""
"5875","","<div style=""width:500px;"">
  <p>What best describes how you currently feel?</p>
  </div>","100","html-slider-response","28","623357","0.0-5.0-4.3","151","1","2025-07-23 06:33:57","1f75c3e559b7213887762d5229550c2b","41.13.124.59","Mozilla/5.0 (Windows NT 10.0; Win64; x64) AppleWebKit/537.36 (KHTML, like Gecko) Chrome/138.0.0.0 Safari/537.36","WebKit","Chrome","138.0.0.0","Windows","10.0","https://app.prolific.com/","en-US,en;q=0.9","67b9e921b4b5ee4019522dbb","683db9eb0562dbf637994deb","6880815fb8435f949bbc0ee3","2","1","67b9e921b4b5ee4019522dbb","2","1","2025-07-23T06:44:02.636Z","","","","","","","","","","","MotivationQ","","50","","","","","","","","","","","","","","","","","","","","","","","","","","","","",""
"","","","","ctl-task-cpt","29","688714","0.0-5.0-0.4","151","1","2025-07-23 06:33:57","1f75c3e559b7213887762d5229550c2b","41.13.124.59","Mozilla/5.0 (Windows NT 10.0; Win64; x64) AppleWebKit/537.36 (KHTML, like Gecko) Chrome/138.0.0.0 Safari/537.36","WebKit","Chrome","138.0.0.0","Windows","10.0","https://app.prolific.com/","en-US,en;q=0.9","67b9e921b4b5ee4019522dbb","683db9eb0562dbf637994deb","6880815fb8435f949bbc0ee3","2","1","67b9e921b4b5ee4019522dbb","2","1","2025-07-23T06:45:07.993Z","","","","","","","","","","","","","","win-only","3","g1:SW,g2:NE","0.6","5","0","628273.4","15392.9","20395.6","62332.3","1","4","8","6","2","8","8","32","24","0.24242424242424243","1376.2","3000","850","[""up"",""right""]","{""num_key_presses"":12,""num_perfect"":8,""num_errors"":0,""num_randdir"":4,""num_randdir_good_moves"":1,""num_whilered"":0,""num_whileblue"":0,""num_blue"":1,""num_good_moves"":9}","[294.22232142857143,299.12857142857143,0.8,294.22232142857143,299.12857142857143,104.7,294.22232142857143,299.12857142857143,223.2,294.22232142857143,299.12857142857143,350.9,294.22232142857143,299.12857142857143,463.5,294.22232142857143,299.12857142857143,565.7,353.22232142857143,237.12857142857143,723.1,482.22232142857143,106.12857142857143,849.3,520.2223214285714,56.128571428571426,976.4,521.2223214285714,55.128571428571426,1107.5,523.2223214285714,62.128571428571426,1246.7,523.2223214285714,62.128571428571426,1384.6,523.2223214285714,62.128571428571426,1501.6,523.2223214285714,62.128571428571426,1657.3,523.2223214285714,62.128571428571426,1793.3,523.2223214285714,62.128571428571426,1932.7,523.2223214285714,62.128571428571426,2067.7,523.2223214285714,62.128571428571426,2181.7,523.2223214285714,62.128571428571426,2309.1,523.2223214285714,62.128571428571426,2409.6,523.2223214285714,62.128571428571426,2517,523.2223214285714,62.128571428571426,2618.5,523.2223214285714,62.128571428571426,2765.1,523.2223214285714,62.128571428571426,2876.5,523.2223214285714,62.128571428571426,3009.3,523.2223214285714,62.128571428571426,3165.4,523.2223214285714,62.128571428571426,3270.1,523.2223214285714,62.128571428571426,3374.2,523.2223214285714,62.128571428571426,3474.7,523.2223214285714,62.128571428571426,3579,523.2223214285714,62.128571428571426,3686.9,523.2223214285714,62.128571428571426,3787.8,523.2223214285714,62.128571428571426,3889.1,523.2223214285714,62.128571428571426,3989.3,523.2223214285714,62.128571428571426,4093.7,523.2223214285714,62.128571428571426,4231,523.2223214285714,62.128571428571426,4366,523.2223214285714,62.128571428571426,4468.2,523.2223214285714,62.128571428571426,4571.3,523.2223214285714,62.128571428571426,4697.8,523.2223214285714,62.128571428571426,4825.7,523.2223214285714,62.128571428571426,4953.2]","[5992.6,5992.7,3454,2069.1,469.6,""oops"",""up"",""down"",""bad_move"",9622.4,3628.4,3024.3,5994,604.1,""oops"",""up"",""left"",""bad_move"",12827.6,3203.9,2755.5,9623.7,448.4,""oops"",""right"",""up"",""good_move"",16514.3,3685.4,3214.6,12829,470.7,""smooth"",""right"",""right"",""good_move"",18494.7,1979.2,1283.4,16515.5,695.8,""smooth"",""up"",""up"",""good_move"",21500.1,3004.5,2436.9,18495.6,567.6,""oops"",""right"",""left"",""bad_move"",24490,2988.9,2452.6,21501.1,536.3,""smooth"",""right"",""right"",""good_move"",28225.7,3734.6,3276.4,24491.1,458.2,""smooth"",""right"",""right"",""good_move"",32302.5,4076,3538.5,28226.6,537.5,""smooth"",""right"",""right"",""good_move"",34520.5,2216.9,1574.1,32303.7,642.8,""smooth"",""up"",""up"",""good_move"",37937.8,3416,2935.4,34521.8,480.6,""smooth"",""up"",""up"",""good_move"",41664,3725.2,3321.8,37938.9,403.3,""smooth"",""right"",""right"",""good_move""]","",""
"6437","","<div style=""width:500px;"">
  <p>What determined the result of this run?</p>
  </div>","100","html-slider-response","30","695154","0.0-5.0-1.4","151","1","2025-07-23 06:33:57","1f75c3e559b7213887762d5229550c2b","41.13.124.59","Mozilla/5.0 (Windows NT 10.0; Win64; x64) AppleWebKit/537.36 (KHTML, like Gecko) Chrome/138.0.0.0 Safari/537.36","WebKit","Chrome","138.0.0.0","Windows","10.0","https://app.prolific.com/","en-US,en;q=0.9","67b9e921b4b5ee4019522dbb","683db9eb0562dbf637994deb","6880815fb8435f949bbc0ee3","2","1","67b9e921b4b5ee4019522dbb","2","1","2025-07-23T06:45:14.433Z","","","","","","","","","","","AttribQ","","50","","","","","","","","","","","","","","","","","","","","","","","","","","","","",""
"6711","","<div style=""width:500px;"">
  <p>How much control did you have over the ball?</p>
  </div>","99","html-slider-response","31","701868","0.0-5.0-2.4","151","1","2025-07-23 06:33:57","1f75c3e559b7213887762d5229550c2b","41.13.124.59","Mozilla/5.0 (Windows NT 10.0; Win64; x64) AppleWebKit/537.36 (KHTML, like Gecko) Chrome/138.0.0.0 Safari/537.36","WebKit","Chrome","138.0.0.0","Windows","10.0","https://app.prolific.com/","en-US,en;q=0.9","67b9e921b4b5ee4019522dbb","683db9eb0562dbf637994deb","6880815fb8435f949bbc0ee3","2","1","67b9e921b4b5ee4019522dbb","2","1","2025-07-23T06:45:21.147Z","","","","","","","","","","","ControlQ","","50","","","","","","","","","","","","","","","","","","","","","","","","","","","","",""
"7924","","<div style=""width:500px;"">
  <p>How would you describe your current emotional state?</p>
  </div>","0","html-slider-response","32","709794","0.0-5.0-3.4","151","1","2025-07-23 06:33:57","1f75c3e559b7213887762d5229550c2b","41.13.124.59","Mozilla/5.0 (Windows NT 10.0; Win64; x64) AppleWebKit/537.36 (KHTML, like Gecko) Chrome/138.0.0.0 Safari/537.36","WebKit","Chrome","138.0.0.0","Windows","10.0","https://app.prolific.com/","en-US,en;q=0.9","67b9e921b4b5ee4019522dbb","683db9eb0562dbf637994deb","6880815fb8435f949bbc0ee3","2","1","67b9e921b4b5ee4019522dbb","2","1","2025-07-23T06:45:29.074Z","","","","","","","","","","","StressQ","","50","","","","","","","","","","","","","","","","","","","","","","","","","","","","",""
"11654","","<div style=""width:500px;"">
  <p>What best describes how you currently feel?</p>
  </div>","100","html-slider-response","33","721452","0.0-5.0-4.4","151","1","2025-07-23 06:33:57","1f75c3e559b7213887762d5229550c2b","41.13.124.59","Mozilla/5.0 (Windows NT 10.0; Win64; x64) AppleWebKit/537.36 (KHTML, like Gecko) Chrome/138.0.0.0 Safari/537.36","WebKit","Chrome","138.0.0.0","Windows","10.0","https://app.prolific.com/","en-US,en;q=0.9","67b9e921b4b5ee4019522dbb","683db9eb0562dbf637994deb","6880815fb8435f949bbc0ee3","2","1","67b9e921b4b5ee4019522dbb","2","1","2025-07-23T06:45:40.731Z","","","","","","","","","","","MotivationQ","","50","","","","","","","","","","","","","","","","","","","","","","","","","","","","",""
"","","","","ctl-task-cpt","34","810466","0.0-5.0-0.5","151","1","2025-07-23 06:33:57","1f75c3e559b7213887762d5229550c2b","41.13.124.59","Mozilla/5.0 (Windows NT 10.0; Win64; x64) AppleWebKit/537.36 (KHTML, like Gecko) Chrome/138.0.0.0 Safari/537.36","WebKit","Chrome","138.0.0.0","Windows","10.0","https://app.prolific.com/","en-US,en;q=0.9","67b9e921b4b5ee4019522dbb","683db9eb0562dbf637994deb","6880815fb8435f949bbc0ee3","2","1","67b9e921b4b5ee4019522dbb","2","1","2025-07-23T06:47:09.745Z","","","","","","","","","","","","","","win-only","1","g1:NE,g2:SW","0.5","6","0","726367.6","21430.7","26474","85945.5","1","4","4","6","2","-4","-4","28","32","0.21212121212121213","1832.9","3000","-930","[""down"",""left""]","{""num_key_presses"":14,""num_perfect"":7,""num_errors"":0,""num_randdir"":7,""num_randdir_good_moves"":1,""num_whilered"":0,""num_whileblue"":0,""num_blue"":2,""num_good_moves"":8}","[299.72232142857143,298.62857142857143,1,299.72232142857143,298.62857142857143,138.8,299.72232142857143,298.62857142857143,266.6,299.72232142857143,298.62857142857143,367.4,299.72232142857143,298.62857142857143,538.7,299.72232142857143,298.62857142857143,665.2,299.72232142857143,298.62857142857143,787.3,299.72232142857143,298.62857142857143,891,223.72232142857143,357.62857142857143,992.6,61.722321428571426,489.62857142857143,1152.5,61.722321428571426,489.62857142857143,1255.8,61.722321428571426,489.62857142857143,1359.1,49.722321428571426,525.6285714285714,1509.7,49.722321428571426,527.6285714285714,1666.7,49.722321428571426,527.6285714285714,1771,49.722321428571426,527.6285714285714,1952.5,49.722321428571426,527.6285714285714,2140.2,49.722321428571426,527.6285714285714,2286.9,49.722321428571426,527.6285714285714,2387.4,49.722321428571426,527.6285714285714,2547.8,84.72232142857143,515.6285714285714,2741,108.72232142857143,510.62857142857143,2841,115.72232142857143,508.62857142857143,2948.3,118.72232142857143,508.62857142857143,3050.4,118.72232142857143,508.62857142857143,3152.3,118.72232142857143,508.62857142857143,3319.5,118.72232142857143,508.62857142857143,3424.4,118.72232142857143,508.62857142857143,3562.5,118.72232142857143,508.62857142857143,3687.9,118.72232142857143,508.62857142857143,3826.4,118.72232142857143,508.62857142857143,3958.4,118.72232142857143,508.62857142857143,4115.3,118.72232142857143,508.62857142857143,4273.9,118.72232142857143,508.62857142857143,4376.8,118.72232142857143,508.62857142857143,4539.3,118.72232142857143,508.62857142857143,4640.9,118.72232142857143,508.62857142857143,4741.4,118.72232142857143,508.62857142857143,4846.7,118.72232142857143,508.62857142857143,4946.7]","[1707.6,1707.6,1000,0,707.6,""smooth"",""down"",""down"",""good_move"",5252.9,3544.2,2760.8,1708.8,783.4,""smooth"",""down"",""down"",""good_move"",8775.3,3519.5,2782.3,5255.8,737.2,""oops"",""down"",""down"",""good_move"",16021.7,7239.7,2451.3,12997.1,573.3,""smooth"",""left"",""left"",""good_move"",20734.5,4711.9,2873.1,16022.6,1838.8,""oops"",""left"",""right"",""bad_move"",24517,3781.1,2030.7,20735.9,1750.4,""smooth"",""left"",""left"",""good_move"",27974.2,3456.2,2695.9,24518.1,760.2,""oops"",""left"",""right"",""bad_move"",31465.3,3490,2868.1,27975.3,621.9,""oops"",""left"",""right"",""bad_move"",35259.5,3791.6,3180.9,31467.9,610.7,""oops"",""left"",""right"",""bad_move"",38322.6,3062,2430.7,35260.6,631.3,""smooth"",""left"",""left"",""good_move"",41751.2,3426.1,2063.3,38325.1,1362.8,""smooth"",""left"",""left"",""good_move"",45266.7,3514.6,2632.9,41752.2,881.6,""oops"",""left"",""right"",""bad_move"",52670.1,7401.8,2763.9,49321.6,584.7,""smooth"",""left"",""left"",""good_move"",56066.3,3395.6,1705,52670.7,1690.6,""oops"",""left"",""up"",""bad_move""]","",""
"114383","","<div style=""width:500px;"">
  <p>What determined the result of this run?</p>
  </div>","1","html-slider-response","35","924852","0.0-5.0-1.5","151","1","2025-07-23 06:33:57","1f75c3e559b7213887762d5229550c2b","41.13.124.59","Mozilla/5.0 (Windows NT 10.0; Win64; x64) AppleWebKit/537.36 (KHTML, like Gecko) Chrome/138.0.0.0 Safari/537.36","WebKit","Chrome","138.0.0.0","Windows","10.0","https://app.prolific.com/","en-US,en;q=0.9","67b9e921b4b5ee4019522dbb","683db9eb0562dbf637994deb","6880815fb8435f949bbc0ee3","2","1","67b9e921b4b5ee4019522dbb","2","1","2025-07-23T06:49:04.132Z","","","","","","","","","","","AttribQ","","50","","","","","","","","","","","","","","","","","","","","","","","","","","","","",""
"7798","","<div style=""width:500px;"">
  <p>How much control did you have over the ball?</p>
  </div>","0","html-slider-response","36","932654","0.0-5.0-2.5","151","1","2025-07-23 06:33:57","1f75c3e559b7213887762d5229550c2b","41.13.124.59","Mozilla/5.0 (Windows NT 10.0; Win64; x64) AppleWebKit/537.36 (KHTML, like Gecko) Chrome/138.0.0.0 Safari/537.36","WebKit","Chrome","138.0.0.0","Windows","10.0","https://app.prolific.com/","en-US,en;q=0.9","67b9e921b4b5ee4019522dbb","683db9eb0562dbf637994deb","6880815fb8435f949bbc0ee3","2","1","67b9e921b4b5ee4019522dbb","2","1","2025-07-23T06:49:11.933Z","","","","","","","","","","","ControlQ","","50","","","","","","","","","","","","","","","","","","","","","","","","","","","","",""
"7177","","<div style=""width:500px;"">
  <p>How would you describe your current emotional state?</p>
  </div>","100","html-slider-response","37","939835","0.0-5.0-3.5","151","1","2025-07-23 06:33:57","1f75c3e559b7213887762d5229550c2b","41.13.124.59","Mozilla/5.0 (Windows NT 10.0; Win64; x64) AppleWebKit/537.36 (KHTML, like Gecko) Chrome/138.0.0.0 Safari/537.36","WebKit","Chrome","138.0.0.0","Windows","10.0","https://app.prolific.com/","en-US,en;q=0.9","67b9e921b4b5ee4019522dbb","683db9eb0562dbf637994deb","6880815fb8435f949bbc0ee3","2","1","67b9e921b4b5ee4019522dbb","2","1","2025-07-23T06:49:19.114Z","","","","","","","","","","","StressQ","","50","","","","","","","","","","","","","","","","","","","","","","","","","","","","",""
"8889","","<div style=""width:500px;"">
  <p>What best describes how you currently feel?</p>
  </div>","62","html-slider-response","38","948728","0.0-5.0-4.5","151","1","2025-07-23 06:33:57","1f75c3e559b7213887762d5229550c2b","41.13.124.59","Mozilla/5.0 (Windows NT 10.0; Win64; x64) AppleWebKit/537.36 (KHTML, like Gecko) Chrome/138.0.0.0 Safari/537.36","WebKit","Chrome","138.0.0.0","Windows","10.0","https://app.prolific.com/","en-US,en;q=0.9","67b9e921b4b5ee4019522dbb","683db9eb0562dbf637994deb","6880815fb8435f949bbc0ee3","2","1","67b9e921b4b5ee4019522dbb","2","1","2025-07-23T06:49:28.007Z","","","","","","","","","","","MotivationQ","","50","","","","","","","","","","","","","","","","","","","","","","","","","","","","",""
"","","","","ctl-task-cpt","39","1045646","0.0-5.0-0.6","151","1","2025-07-23 06:33:57","1f75c3e559b7213887762d5229550c2b","41.13.124.59","Mozilla/5.0 (Windows NT 10.0; Win64; x64) AppleWebKit/537.36 (KHTML, like Gecko) Chrome/138.0.0.0 Safari/537.36","WebKit","Chrome","138.0.0.0","Windows","10.0","https://app.prolific.com/","en-US,en;q=0.9","67b9e921b4b5ee4019522dbb","683db9eb0562dbf637994deb","6880815fb8435f949bbc0ee3","2","1","67b9e921b4b5ee4019522dbb","2","1","2025-07-23T06:51:04.925Z","","","","","","","","","","","","","","win-only","3","g1:SW,g2:NE","0.4","7","0","953642.8","22772.4","27833.4","93868","1","4","4","6","2","4","4","32","28","0.24242424242424243","2277.2","3000","1050","[""up"",""right""]","{""num_key_presses"":12,""num_perfect"":5,""num_errors"":0,""num_randdir"":7,""num_randdir_good_moves"":4,""num_whilered"":0,""num_whileblue"":0,""num_blue"":6,""num_good_moves"":9}","[247.24598214285714,246.63660714285714,0.8,247.24598214285714,246.63660714285714,156.4,247.24598214285714,246.63660714285714,391,247.24598214285714,246.63660714285714,533.6,247.24598214285714,246.63660714285714,718.8,247.24598214285714,246.63660714285714,969.8,247.24598214285714,246.63660714285714,1119.8,247.24598214285714,246.63660714285714,1301.3,247.24598214285714,246.63660714285714,1460.6,299.24598214285714,204.63660714285714,1562,389.24598214285714,120.63660714285714,1669.9,439.24598214285714,53.636607142857144,1904.8,439.24598214285714,53.636607142857144,2007.3,439.24598214285714,53.636607142857144,2109.9,439.24598214285714,53.636607142857144,2212.6,439.24598214285714,53.636607142857144,2316,439.24598214285714,53.636607142857144,2435.6,439.24598214285714,53.636607142857144,2670.8,439.24598214285714,53.636607142857144,2818.4,439.24598214285714,53.636607142857144,2950.9,439.24598214285714,53.636607142857144,3053.3,439.24598214285714,53.636607142857144,3277.4,439.24598214285714,53.636607142857144,3414.8,439.24598214285714,53.636607142857144,3516.6,439.24598214285714,53.636607142857144,3702.6,439.24598214285714,53.636607142857144,3803.7,439.24598214285714,53.636607142857144,4052.5,439.24598214285714,53.636607142857144,4195.4,439.24598214285714,53.636607142857144,4337.2,439.24598214285714,53.636607142857144,4444.9,439.24598214285714,53.636607142857144,4545.1,439.24598214285714,53.636607142857144,4645.5,439.24598214285714,53.636607142857144,4792.9,439.24598214285714,53.636607142857144,4957.9]","[1774.3,1774.3,1000,0,774.3,""smooth"",""up"",""up"",""good_move"",9892.9,8106.4,2685.2,6502.7,705.1,""smooth"",""right"",""right"",""good_move"",13625.2,3731.3,2906.9,9893.9,824.4,""oops"",""up"",""right"",""good_move"",16356.2,2729.8,1947.5,13626.4,782.3,""smooth"",""up"",""up"",""good_move"",23660.7,7302.2,1991.8,21076,592.9,""oops"",""up"",""left"",""bad_move"",35058.4,11396.8,2386.2,32068.8,603.4,""oops"",""right"",""down"",""bad_move"",42504.6,7445.3,2512.6,39308.3,683.7,""oops"",""up"",""up"",""good_move"",47332.7,4827.4,2863.8,42505.3,1963.6,""oops"",""right"",""right"",""good_move"",51057.8,3723.8,2836.4,47334,887.4,""smooth"",""right"",""right"",""good_move"",53794,2733.4,2104.8,51060.6,628.6,""oops"",""up"",""down"",""bad_move"",61426,7629.9,2229.9,58476.6,719.5,""oops"",""up"",""up"",""good_move"",65717.5,4291,2438.3,61426.6,1852.6,""smooth"",""up"",""up"",""good_move""]","",""
"6573","","<div style=""width:500px;"">
  <p>What determined the result of this run?</p>
  </div>","99","html-slider-response","40","1052222","0.0-5.0-1.6","151","1","2025-07-23 06:33:57","1f75c3e559b7213887762d5229550c2b","41.13.124.59","Mozilla/5.0 (Windows NT 10.0; Win64; x64) AppleWebKit/537.36 (KHTML, like Gecko) Chrome/138.0.0.0 Safari/537.36","WebKit","Chrome","138.0.0.0","Windows","10.0","https://app.prolific.com/","en-US,en;q=0.9","67b9e921b4b5ee4019522dbb","683db9eb0562dbf637994deb","6880815fb8435f949bbc0ee3","2","1","67b9e921b4b5ee4019522dbb","2","1","2025-07-23T06:51:11.501Z","","","","","","","","","","","AttribQ","","50","","","","","","","","","","","","","","","","","","","","","","","","","","","","",""
"5913","","<div style=""width:500px;"">
  <p>How much control did you have over the ball?</p>
  </div>","100","html-slider-response","41","1058138","0.0-5.0-2.6","151","1","2025-07-23 06:33:57","1f75c3e559b7213887762d5229550c2b","41.13.124.59","Mozilla/5.0 (Windows NT 10.0; Win64; x64) AppleWebKit/537.36 (KHTML, like Gecko) Chrome/138.0.0.0 Safari/537.36","WebKit","Chrome","138.0.0.0","Windows","10.0","https://app.prolific.com/","en-US,en;q=0.9","67b9e921b4b5ee4019522dbb","683db9eb0562dbf637994deb","6880815fb8435f949bbc0ee3","2","1","67b9e921b4b5ee4019522dbb","2","1","2025-07-23T06:51:17.417Z","","","","","","","","","","","ControlQ","","50","","","","","","","","","","","","","","","","","","","","","","","","","","","","",""
"6730","","<div style=""width:500px;"">
  <p>How would you describe your current emotional state?</p>
  </div>","0","html-slider-response","42","1064873","0.0-5.0-3.6","151","1","2025-07-23 06:33:57","1f75c3e559b7213887762d5229550c2b","41.13.124.59","Mozilla/5.0 (Windows NT 10.0; Win64; x64) AppleWebKit/537.36 (KHTML, like Gecko) Chrome/138.0.0.0 Safari/537.36","WebKit","Chrome","138.0.0.0","Windows","10.0","https://app.prolific.com/","en-US,en;q=0.9","67b9e921b4b5ee4019522dbb","683db9eb0562dbf637994deb","6880815fb8435f949bbc0ee3","2","1","67b9e921b4b5ee4019522dbb","2","1","2025-07-23T06:51:24.152Z","","","","","","","","","","","StressQ","","50","","","","","","","","","","","","","","","","","","","","","","","","","","","","",""
"8703","","<div style=""width:500px;"">
  <p>What best describes how you currently feel?</p>
  </div>","100","html-slider-response","43","1073579","0.0-5.0-4.6","151","1","2025-07-23 06:33:57","1f75c3e559b7213887762d5229550c2b","41.13.124.59","Mozilla/5.0 (Windows NT 10.0; Win64; x64) AppleWebKit/537.36 (KHTML, like Gecko) Chrome/138.0.0.0 Safari/537.36","WebKit","Chrome","138.0.0.0","Windows","10.0","https://app.prolific.com/","en-US,en;q=0.9","67b9e921b4b5ee4019522dbb","683db9eb0562dbf637994deb","6880815fb8435f949bbc0ee3","2","1","67b9e921b4b5ee4019522dbb","2","1","2025-07-23T06:51:32.858Z","","","","","","","","","","","MotivationQ","","50","","","","","","","","","","","","","","","","","","","","","","","","","","","","",""
"","","","","ctl-task-cpt","44","1149924","0.0-5.0-0.7","151","1","2025-07-23 06:33:57","1f75c3e559b7213887762d5229550c2b","41.13.124.59","Mozilla/5.0 (Windows NT 10.0; Win64; x64) AppleWebKit/537.36 (KHTML, like Gecko) Chrome/138.0.0.0 Safari/537.36","WebKit","Chrome","138.0.0.0","Windows","10.0","https://app.prolific.com/","en-US,en;q=0.9","67b9e921b4b5ee4019522dbb","683db9eb0562dbf637994deb","6880815fb8435f949bbc0ee3","2","1","67b9e921b4b5ee4019522dbb","2","1","2025-07-23T06:52:49.203Z","","","","","","","","","","","","","","win-only","0","g1:NW,g2:SE","0.3","8","0","1078494.4","22046.9","27063.6","73274.5","1","4","8","6","2","8","8","40","32","0.30303030303030304","2283.1","3000","1225","[""down"",""right""]","{""num_key_presses"":12,""num_perfect"":5,""num_errors"":0,""num_randdir"":7,""num_randdir_good_moves"":4,""num_whilered"":0,""num_whileblue"":0,""num_blue"":2,""num_good_moves"":9}","[244.24598214285714,245.63660714285714,0.9,244.24598214285714,245.63660714285714,100.8,244.24598214285714,245.63660714285714,216.4,244.24598214285714,245.63660714285714,391.1,244.24598214285714,245.63660714285714,494.6,244.24598214285714,245.63660714285714,599.3,244.24598214285714,245.63660714285714,707.1,244.24598214285714,245.63660714285714,893.2,244.24598214285714,245.63660714285714,999.5,244.24598214285714,245.63660714285714,1137.4,244.24598214285714,245.63660714285714,1274.4,274.24598214285714,280.63660714285714,1387.1,385.24598214285714,382.63660714285714,1651.1,443.24598214285714,441.63660714285714,1760.8,444.24598214285714,441.63660714285714,1909.5,448.24598214285714,446.63660714285714,2014.9,448.24598214285714,446.63660714285714,2291.5,448.24598214285714,446.63660714285714,2468.1,448.24598214285714,446.63660714285714,2577.9,448.24598214285714,446.63660714285714,2740.4,448.24598214285714,446.63660714285714,2889.4,448.24598214285714,446.63660714285714,2992.4,448.24598214285714,446.63660714285714,3104.4,448.24598214285714,446.63660714285714,3206.3,448.24598214285714,446.63660714285714,3380.5,448.24598214285714,446.63660714285714,3496.9,448.24598214285714,446.63660714285714,3613.6,448.24598214285714,446.63660714285714,3732.7,448.24598214285714,446.63660714285714,3884.1,448.24598214285714,446.63660714285714,4009.5,448.24598214285714,446.63660714285714,4109.9,448.24598214285714,446.63660714285714,4215.6,448.24598214285714,446.63660714285714,4365.6,448.24598214285714,446.63660714285714,4478.5,448.24598214285714,446.63660714285714,4583,448.24598214285714,446.63660714285714,4687.3,448.24598214285714,446.63660714285714,4788.3,448.24598214285714,446.63660714285714,4923.7]","[1588.4,1588.4,1000,0,588.4,""smooth"",""right"",""right"",""good_move"",5080.6,3491,2950.6,1589.6,540.4,""oops"",""right"",""down"",""good_move"",7822.1,2735.7,1868.5,5086.4,867.2,""oops"",""right"",""right"",""good_move"",10398.7,2575.2,1982.6,7823.8,592.4,""oops"",""down"",""up"",""bad_move"",14509,4108.7,3560.8,10400.3,547.9,""smooth"",""down"",""down"",""good_move"",16922,2412.1,1424.5,14510,987.5,""oops"",""down"",""up"",""bad_move"",21000.6,4077.5,2807,16923.1,1270.5,""smooth"",""down"",""down"",""good_move"",23713.4,2711.6,2136,21001.8,575.6,""oops"",""right"",""down"",""good_move"",27069,3353.2,2632.8,23715.8,720.4,""oops"",""right"",""left"",""bad_move"",31113.9,4043.2,2870.5,27070.7,1172.7,""oops"",""right"",""down"",""good_move"",34709.1,3594.2,3034.2,31114.9,560,""smooth"",""right"",""right"",""good_move"",45933.1,11221.9,3827.2,41621.3,484.6,""smooth"",""right"",""right"",""good_move""]","",""
"5327","","<div style=""width:500px;"">
  <p>What determined the result of this run?</p>
  </div>","100","html-slider-response","45","1155254","0.0-5.0-1.7","151","1","2025-07-23 06:33:57","1f75c3e559b7213887762d5229550c2b","41.13.124.59","Mozilla/5.0 (Windows NT 10.0; Win64; x64) AppleWebKit/537.36 (KHTML, like Gecko) Chrome/138.0.0.0 Safari/537.36","WebKit","Chrome","138.0.0.0","Windows","10.0","https://app.prolific.com/","en-US,en;q=0.9","67b9e921b4b5ee4019522dbb","683db9eb0562dbf637994deb","6880815fb8435f949bbc0ee3","2","1","67b9e921b4b5ee4019522dbb","2","1","2025-07-23T06:52:54.534Z","","","","","","","","","","","AttribQ","","50","","","","","","","","","","","","","","","","","","","","","","","","","","","","",""
"6977","","<div style=""width:500px;"">
  <p>How much control did you have over the ball?</p>
  </div>","99","html-slider-response","46","1162234","0.0-5.0-2.7","151","1","2025-07-23 06:33:57","1f75c3e559b7213887762d5229550c2b","41.13.124.59","Mozilla/5.0 (Windows NT 10.0; Win64; x64) AppleWebKit/537.36 (KHTML, like Gecko) Chrome/138.0.0.0 Safari/537.36","WebKit","Chrome","138.0.0.0","Windows","10.0","https://app.prolific.com/","en-US,en;q=0.9","67b9e921b4b5ee4019522dbb","683db9eb0562dbf637994deb","6880815fb8435f949bbc0ee3","2","1","67b9e921b4b5ee4019522dbb","2","1","2025-07-23T06:53:01.514Z","","","","","","","","","","","ControlQ","","50","","","","","","","","","","","","","","","","","","","","","","","","","","","","",""
"6827","","<div style=""width:500px;"">
  <p>How would you describe your current emotional state?</p>
  </div>","0","html-slider-response","47","1169065","0.0-5.0-3.7","151","1","2025-07-23 06:33:57","1f75c3e559b7213887762d5229550c2b","41.13.124.59","Mozilla/5.0 (Windows NT 10.0; Win64; x64) AppleWebKit/537.36 (KHTML, like Gecko) Chrome/138.0.0.0 Safari/537.36","WebKit","Chrome","138.0.0.0","Windows","10.0","https://app.prolific.com/","en-US,en;q=0.9","67b9e921b4b5ee4019522dbb","683db9eb0562dbf637994deb","6880815fb8435f949bbc0ee3","2","1","67b9e921b4b5ee4019522dbb","2","1","2025-07-23T06:53:08.344Z","","","","","","","","","","","StressQ","","50","","","","","","","","","","","","","","","","","","","","","","","","","","","","",""
"11752","","<div style=""width:500px;"">
  <p>What best describes how you currently feel?</p>
  </div>","100","html-slider-response","48","1180820","0.0-5.0-4.7","151","1","2025-07-23 06:33:57","1f75c3e559b7213887762d5229550c2b","41.13.124.59","Mozilla/5.0 (Windows NT 10.0; Win64; x64) AppleWebKit/537.36 (KHTML, like Gecko) Chrome/138.0.0.0 Safari/537.36","WebKit","Chrome","138.0.0.0","Windows","10.0","https://app.prolific.com/","en-US,en;q=0.9","67b9e921b4b5ee4019522dbb","683db9eb0562dbf637994deb","6880815fb8435f949bbc0ee3","2","1","67b9e921b4b5ee4019522dbb","2","1","2025-07-23T06:53:20.099Z","","","","","","","","","","","MotivationQ","","50","","","","","","","","","","","","","","","","","","","","","","","","","","","","",""
"","","","","ctl-task-cpt","49","1302015","0.0-5.0-0.8","151","1","2025-07-23 06:33:57","1f75c3e559b7213887762d5229550c2b","41.13.124.59","Mozilla/5.0 (Windows NT 10.0; Win64; x64) AppleWebKit/537.36 (KHTML, like Gecko) Chrome/138.0.0.0 Safari/537.36","WebKit","Chrome","138.0.0.0","Windows","10.0","https://app.prolific.com/","en-US,en;q=0.9","67b9e921b4b5ee4019522dbb","683db9eb0562dbf637994deb","6880815fb8435f949bbc0ee3","2","1","67b9e921b4b5ee4019522dbb","2","1","2025-07-23T06:55:21.294Z","","","","","","","","","","","","","","win-only","2","g1:SE,g2:NW","0.2","9","0","1185734.6","21166.7","26173.1","118131","1","4","8","6","2","-8","-8","32","40","0.24242424242424243","1683.3","3000","-645","[""left"",""up""]","{""num_key_presses"":18,""num_perfect"":4,""num_errors"":0,""num_randdir"":14,""num_randdir_good_moves"":7,""num_whilered"":0,""num_whileblue"":0,""num_blue"":1,""num_good_moves"":10}","[243.24598214285714,243.63660714285714,1.1,243.24598214285714,243.63660714285714,102.4,243.24598214285714,243.63660714285714,302.8,243.24598214285714,243.63660714285714,420.1,243.24598214285714,243.63660714285714,586.9,243.24598214285714,243.63660714285714,753.7,154.24598214285714,152.63660714285714,933.5,73.24598214285714,63.636607142857144,1216.3,66.24598214285714,59.636607142857144,1321.2,54.245982142857144,53.636607142857144,1519,54.245982142857144,53.636607142857144,1685.2,54.245982142857144,53.636607142857144,1788.5,54.245982142857144,53.636607142857144,1890.5,54.245982142857144,53.636607142857144,2146.8,54.245982142857144,53.636607142857144,2250,54.245982142857144,53.636607142857144,2367,54.245982142857144,53.636607142857144,2572.7,54.245982142857144,53.636607142857144,2705.1,54.245982142857144,53.636607142857144,2810.5,54.245982142857144,53.636607142857144,3122.4,54.245982142857144,53.636607142857144,3228.6,54.245982142857144,53.636607142857144,3550.9,54.245982142857144,53.636607142857144,3661.4,54.245982142857144,53.636607142857144,3766.7,54.245982142857144,53.636607142857144,4055.1,54.245982142857144,53.636607142857144,4191.4,54.245982142857144,53.636607142857144,4404.7,54.245982142857144,53.636607142857144,4601.5,54.245982142857144,53.636607142857144,4702.6,54.245982142857144,53.636607142857144,4907.3]","[1902.6,1902.6,1000,0,902.6,""oops"",""left"",""down"",""bad_move"",5429.7,3525.8,2764,1903.9,761.8,""smooth"",""up"",""up"",""good_move"",10453.3,5021.1,2802.2,5432.2,2218.9,""smooth"",""left"",""left"",""good_move"",19546.9,9092.2,2813.9,16160.1,572.9,""oops"",""up"",""right"",""bad_move"",24913.8,5365.6,3014.1,19548.2,2351.5,""oops"",""up"",""up"",""good_move"",31479.1,6564.3,2844.5,24914.8,3719.8,""oops"",""up"",""left"",""good_move"",38191.6,6711.8,2499.6,31479.8,4212.2,""oops"",""left"",""up"",""good_move"",45469.4,7277,2158.3,38192.4,5118.7,""oops"",""up"",""right"",""bad_move"",49452.7,3982.5,3166.1,45470.2,816.4,""oops"",""left"",""up"",""good_move"",54326.8,4873.1,2098.6,49453.7,2774.5,""oops"",""left"",""left"",""good_move"",59349.2,5021.3,2442.6,54327.9,2578.7,""oops"",""left"",""right"",""bad_move"",63993.2,4638.3,3083.6,59355,1554.7,""oops"",""down"",""left"",""good_move"",68985.5,4991.3,2100.2,63994.4,2890.9,""smooth"",""down"",""down"",""bad_move"",72397.7,3410.9,2650.4,68986.8,760.5,""oops"",""left"",""up"",""good_move"",77416.2,5016,2121.4,72400.2,2894.6,""smooth"",""left"",""left"",""good_move"",82068.8,4651.8,2614.1,77417.1,2037.7,""oops"",""left"",""right"",""bad_move"",84930,2856.8,1694.8,82073.3,1162,""oops"",""left"",""right"",""bad_move"",88235.6,3303.5,2391.3,84932.2,912.1,""oops"",""left"",""down"",""bad_move""]","",""
"41792","","<div style=""width:500px;"">
  <p>What determined the result of this run?</p>
  </div>","0","html-slider-response","50","1343811","0.0-5.0-1.8","151","1","2025-07-23 06:33:57","1f75c3e559b7213887762d5229550c2b","41.13.124.59","Mozilla/5.0 (Windows NT 10.0; Win64; x64) AppleWebKit/537.36 (KHTML, like Gecko) Chrome/138.0.0.0 Safari/537.36","WebKit","Chrome","138.0.0.0","Windows","10.0","https://app.prolific.com/","en-US,en;q=0.9","67b9e921b4b5ee4019522dbb","683db9eb0562dbf637994deb","6880815fb8435f949bbc0ee3","2","1","67b9e921b4b5ee4019522dbb","2","1","2025-07-23T06:56:03.090Z","","","","","","","","","","","AttribQ","","50","","","","","","","","","","","","","","","","","","","","","","","","","","","","",""
"7802","","<div style=""width:500px;"">
  <p>How much control did you have over the ball?</p>
  </div>","0","html-slider-response","51","1351617","0.0-5.0-2.8","151","1","2025-07-23 06:33:57","1f75c3e559b7213887762d5229550c2b","41.13.124.59","Mozilla/5.0 (Windows NT 10.0; Win64; x64) AppleWebKit/537.36 (KHTML, like Gecko) Chrome/138.0.0.0 Safari/537.36","WebKit","Chrome","138.0.0.0","Windows","10.0","https://app.prolific.com/","en-US,en;q=0.9","67b9e921b4b5ee4019522dbb","683db9eb0562dbf637994deb","6880815fb8435f949bbc0ee3","2","1","67b9e921b4b5ee4019522dbb","2","1","2025-07-23T06:56:10.897Z","","","","","","","","","","","ControlQ","","50","","","","","","","","","","","","","","","","","","","","","","","","","","","","",""
"7782","","<div style=""width:500px;"">
  <p>How would you describe your current emotional state?</p>
  </div>","86","html-slider-response","52","1359403","0.0-5.0-3.8","151","1","2025-07-23 06:33:57","1f75c3e559b7213887762d5229550c2b","41.13.124.59","Mozilla/5.0 (Windows NT 10.0; Win64; x64) AppleWebKit/537.36 (KHTML, like Gecko) Chrome/138.0.0.0 Safari/537.36","WebKit","Chrome","138.0.0.0","Windows","10.0","https://app.prolific.com/","en-US,en;q=0.9","67b9e921b4b5ee4019522dbb","683db9eb0562dbf637994deb","6880815fb8435f949bbc0ee3","2","1","67b9e921b4b5ee4019522dbb","2","1","2025-07-23T06:56:18.682Z","","","","","","","","","","","StressQ","","50","","","","","","","","","","","","","","","","","","","","","","","","","","","","",""
"8215","","<div style=""width:500px;"">
  <p>What best describes how you currently feel?</p>
  </div>","60","html-slider-response","53","1367623","0.0-5.0-4.8","151","1","2025-07-23 06:33:57","1f75c3e559b7213887762d5229550c2b","41.13.124.59","Mozilla/5.0 (Windows NT 10.0; Win64; x64) AppleWebKit/537.36 (KHTML, like Gecko) Chrome/138.0.0.0 Safari/537.36","WebKit","Chrome","138.0.0.0","Windows","10.0","https://app.prolific.com/","en-US,en;q=0.9","67b9e921b4b5ee4019522dbb","683db9eb0562dbf637994deb","6880815fb8435f949bbc0ee3","2","1","67b9e921b4b5ee4019522dbb","2","1","2025-07-23T06:56:26.902Z","","","","","","","","","","","MotivationQ","","50","","","","","","","","","","","","","","","","","","","","","","","","","","","","",""
"","","","","ctl-task-cpt","54","1454095","0.0-5.0-0.9","151","1","2025-07-23 06:33:57","1f75c3e559b7213887762d5229550c2b","41.13.124.59","Mozilla/5.0 (Windows NT 10.0; Win64; x64) AppleWebKit/537.36 (KHTML, like Gecko) Chrome/138.0.0.0 Safari/537.36","WebKit","Chrome","138.0.0.0","Windows","10.0","https://app.prolific.com/","en-US,en;q=0.9","67b9e921b4b5ee4019522dbb","683db9eb0562dbf637994deb","6880815fb8435f949bbc0ee3","2","1","67b9e921b4b5ee4019522dbb","2","1","2025-07-23T06:57:53.374Z","","","","","","","","","","","","","","win-only","1","g1:NE,g2:SW","0.4","10","0","1372537.8","20230.5","25269","83395.6","1","4","4","6","2","4","3","35","32","0.26515151515151514","2103.6","3000","1115","[""down"",""left""]","{""num_key_presses"":15,""num_perfect"":7,""num_errors"":1,""num_randdir"":7,""num_randdir_good_moves"":3,""num_whilered"":0,""num_whileblue"":0,""num_blue"":0,""num_good_moves"":10}","[248.24598214285714,244.63660714285714,9.4,248.24598214285714,244.63660714285714,271.7,248.24598214285714,244.63660714285714,526.7,248.24598214285714,244.63660714285714,852.5,248.24598214285714,244.63660714285714,990.7,248.24598214285714,244.63660714285714,1096.9,92.24598214285714,388.63660714285714,1327,79.24598214285714,406.63660714285714,1430.1,74.24598214285714,419.63660714285714,1625.1,54.245982142857144,437.63660714285714,1732.8,52.245982142857144,441.63660714285714,1991.5,52.245982142857144,441.63660714285714,2095.6,52.245982142857144,441.63660714285714,2342.9,52.245982142857144,441.63660714285714,2554,52.245982142857144,441.63660714285714,2661.5,52.245982142857144,441.63660714285714,2868.4,52.245982142857144,441.63660714285714,2984,52.245982142857144,441.63660714285714,3120.2,52.245982142857144,441.63660714285714,3363,52.245982142857144,441.63660714285714,3621.4,52.245982142857144,441.63660714285714,3759.8,52.245982142857144,441.63660714285714,3866.8,52.245982142857144,441.63660714285714,4090.2,52.245982142857144,441.63660714285714,4372.8,52.245982142857144,441.63660714285714,4529.9,52.245982142857144,441.63660714285714,4710.9,52.245982142857144,441.63660714285714,4949]","[756.9,756.9,1000,0,-243.1,""error"",""-"",""-"",""no_move"",4878.3,4120.2,2282.1,1892.5,703.7,""smooth"",""left"",""left"",""good_move"",10028.2,5147.2,2455.5,4881,2691.7,""oops"",""left"",""down"",""good_move"",13021,2991.6,2016.3,10029.4,975.3,""oops"",""left"",""up"",""bad_move"",18311.4,5288.7,2587.4,13022.7,2701.3,""oops"",""down"",""right"",""bad_move"",21669.1,3356.8,1952.3,18312.3,1404.6,""oops"",""down"",""down"",""good_move"",25265.6,3593.7,2690.8,21671.9,902.9,""smooth"",""down"",""down"",""good_move"",28344.2,3076.6,2014.8,25267.6,1061.8,""smooth"",""down"",""down"",""good_move"",31840.1,3494.9,2900.5,28345.3,594.4,""smooth"",""left"",""left"",""good_move"",36708.7,4865.8,2632.4,31842.9,2233.4,""oops"",""left"",""left"",""good_move"",42264.6,5554.7,2872.1,36709.9,2682.6,""oops"",""left"",""right"",""bad_move"",44961.5,2696.2,1594.8,42265.3,1101.4,""oops"",""left"",""right"",""bad_move"",47808.8,2845,2279.1,44963.8,565.9,""smooth"",""left"",""left"",""good_move"",52656.4,4846.4,2554.4,47810,2292,""smooth"",""left"",""left"",""good_move"",57844.1,5186.6,2162.2,52657.5,3024.4,""smooth"",""left"",""left"",""good_move""]","",""
"12861","","<div style=""width:500px;"">
  <p>What determined the result of this run?</p>
  </div>","100","html-slider-response","55","1466960","0.0-5.0-1.9","151","1","2025-07-23 06:33:57","1f75c3e559b7213887762d5229550c2b","41.13.124.59","Mozilla/5.0 (Windows NT 10.0; Win64; x64) AppleWebKit/537.36 (KHTML, like Gecko) Chrome/138.0.0.0 Safari/537.36","WebKit","Chrome","138.0.0.0","Windows","10.0","https://app.prolific.com/","en-US,en;q=0.9","67b9e921b4b5ee4019522dbb","683db9eb0562dbf637994deb","6880815fb8435f949bbc0ee3","2","1","67b9e921b4b5ee4019522dbb","2","1","2025-07-23T06:58:06.239Z","","","","","","","","","","","AttribQ","","50","","","","","","","","","","","","","","","","","","","","","","","","","","","","",""
"32013","","<div style=""width:500px;"">
  <p>How much control did you have over the ball?</p>
  </div>","100","html-slider-response","56","1498976","0.0-5.0-2.9","151","1","2025-07-23 06:33:57","1f75c3e559b7213887762d5229550c2b","41.13.124.59","Mozilla/5.0 (Windows NT 10.0; Win64; x64) AppleWebKit/537.36 (KHTML, like Gecko) Chrome/138.0.0.0 Safari/537.36","WebKit","Chrome","138.0.0.0","Windows","10.0","https://app.prolific.com/","en-US,en;q=0.9","67b9e921b4b5ee4019522dbb","683db9eb0562dbf637994deb","6880815fb8435f949bbc0ee3","2","1","67b9e921b4b5ee4019522dbb","2","1","2025-07-23T06:58:38.256Z","","","","","","","","","","","ControlQ","","50","","","","","","","","","","","","","","","","","","","","","","","","","","","","",""
"7457","","<div style=""width:500px;"">
  <p>How would you describe your current emotional state?</p>
  </div>","0","html-slider-response","57","1506438","0.0-5.0-3.9","151","1","2025-07-23 06:33:57","1f75c3e559b7213887762d5229550c2b","41.13.124.59","Mozilla/5.0 (Windows NT 10.0; Win64; x64) AppleWebKit/537.36 (KHTML, like Gecko) Chrome/138.0.0.0 Safari/537.36","WebKit","Chrome","138.0.0.0","Windows","10.0","https://app.prolific.com/","en-US,en;q=0.9","67b9e921b4b5ee4019522dbb","683db9eb0562dbf637994deb","6880815fb8435f949bbc0ee3","2","1","67b9e921b4b5ee4019522dbb","2","1","2025-07-23T06:58:45.717Z","","","","","","","","","","","StressQ","","50","","","","","","","","","","","","","","","","","","","","","","","","","","","","",""
"6409","","<div style=""width:500px;"">
  <p>What best describes how you currently feel?</p>
  </div>","100","html-slider-response","58","1512851","0.0-5.0-4.9","151","1","2025-07-23 06:33:57","1f75c3e559b7213887762d5229550c2b","41.13.124.59","Mozilla/5.0 (Windows NT 10.0; Win64; x64) AppleWebKit/537.36 (KHTML, like Gecko) Chrome/138.0.0.0 Safari/537.36","WebKit","Chrome","138.0.0.0","Windows","10.0","https://app.prolific.com/","en-US,en;q=0.9","67b9e921b4b5ee4019522dbb","683db9eb0562dbf637994deb","6880815fb8435f949bbc0ee3","2","1","67b9e921b4b5ee4019522dbb","2","1","2025-07-23T06:58:52.130Z","","","","","","","","","","","MotivationQ","","50","","","","","","","","","","","","","","","","","","","","","","","","","","","","",""
"","","","","ctl-task-cpt","59","1608169","0.0-5.0-0.10","151","1","2025-07-23 06:33:57","1f75c3e559b7213887762d5229550c2b","41.13.124.59","Mozilla/5.0 (Windows NT 10.0; Win64; x64) AppleWebKit/537.36 (KHTML, like Gecko) Chrome/138.0.0.0 Safari/537.36","WebKit","Chrome","138.0.0.0","Windows","10.0","https://app.prolific.com/","en-US,en;q=0.9","67b9e921b4b5ee4019522dbb","683db9eb0562dbf637994deb","6880815fb8435f949bbc0ee3","2","1","67b9e921b4b5ee4019522dbb","2","1","2025-07-23T07:00:27.449Z","","","","","","","","","","","","","","win-only","2","g1:SE,g2:NW","0.5","11","0","1517765.9","21977.9","27034.3","92042.2","1","4","4","6","2","4","4","39","35","0.29545454545454547","1774.4","3000","1625","[""left"",""up""]","{""num_key_presses"":12,""num_perfect"":7,""num_errors"":0,""num_randdir"":5,""num_randdir_good_moves"":2,""num_whilered"":0,""num_whileblue"":0,""num_blue"":2,""num_good_moves"":9}","[247.24598214285714,249.63660714285714,0.9,247.24598214285714,249.63660714285714,109.9,247.24598214285714,249.63660714285714,413.9,247.24598214285714,249.63660714285714,516.3,247.24598214285714,249.63660714285714,762.4,247.24598214285714,249.63660714285714,903.8,184.24598214285714,187.63660714285714,1005.7,96.24598214285714,64.63660714285714,1230.3,62.245982142857144,42.636607142857144,1333,53.245982142857144,38.636607142857144,1557.6,53.245982142857144,38.636607142857144,1780.5,53.245982142857144,38.636607142857144,1881.6,53.245982142857144,38.636607142857144,2041.8,53.245982142857144,38.636607142857144,2371.5,53.245982142857144,38.636607142857144,2585.2,53.245982142857144,38.636607142857144,2685.5,53.245982142857144,38.636607142857144,2902.1,53.245982142857144,38.636607142857144,3002.2,53.245982142857144,38.636607142857144,3308.7,53.245982142857144,38.636607142857144,3409.3,53.245982142857144,38.636607142857144,3652.7,53.245982142857144,38.636607142857144,3948.2,53.245982142857144,38.636607142857144,4247.7,53.245982142857144,38.636607142857144,4452.7,53.245982142857144,38.636607142857144,4555.5,53.245982142857144,38.636607142857144,4775.5,53.245982142857144,38.636607142857144,4875.9]","[5096.7,5096.7,2175,2282.1,639.6,""smooth"",""left"",""left"",""good_move"",10502.4,5404.4,2718.4,5098,2686,""smooth"",""up"",""up"",""good_move"",15995,5491.3,2629.1,10503.7,2862.2,""oops"",""left"",""up"",""good_move"",22190.4,6194.7,2919.3,15995.7,3275.4,""oops"",""left"",""right"",""bad_move"",25298.3,3106.6,1783.9,22191.7,1322.7,""oops"",""left"",""left"",""good_move"",34105.3,8804.3,2302,31123.7,679.7,""smooth"",""up"",""up"",""good_move"",39578.3,5472.1,2681.9,34106.2,2790.2,""oops"",""left"",""right"",""bad_move"",43223.3,3644.5,2691.6,39579,952.9,""oops"",""down"",""down"",""bad_move"",46687.4,3462.4,2389.4,43225,1073,""smooth"",""left"",""left"",""good_move"",52318.3,5628.4,2267.6,46690,3360.7,""smooth"",""left"",""left"",""good_move"",58308.3,5989.1,3091,52319.4,2898,""smooth"",""up"",""up"",""good_move"",64600.3,6291.2,1617.1,58309.1,4674.1,""smooth"",""left"",""left"",""good_move""]","",""
"6907","","<div style=""width:500px;"">
  <p>What determined the result of this run?</p>
  </div>","100","html-slider-response","60","1615082","0.0-5.0-1.10","151","1","2025-07-23 06:33:57","1f75c3e559b7213887762d5229550c2b","41.13.124.59","Mozilla/5.0 (Windows NT 10.0; Win64; x64) AppleWebKit/537.36 (KHTML, like Gecko) Chrome/138.0.0.0 Safari/537.36","WebKit","Chrome","138.0.0.0","Windows","10.0","https://app.prolific.com/","en-US,en;q=0.9","67b9e921b4b5ee4019522dbb","683db9eb0562dbf637994deb","6880815fb8435f949bbc0ee3","2","1","67b9e921b4b5ee4019522dbb","2","1","2025-07-23T07:00:34.361Z","","","","","","","","","","","AttribQ","","50","","","","","","","","","","","","","","","","","","","","","","","","","","","","",""
"4801","","<div style=""width:500px;"">
  <p>How much control did you have over the ball?</p>
  </div>","100","html-slider-response","61","1619887","0.0-5.0-2.10","151","1","2025-07-23 06:33:57","1f75c3e559b7213887762d5229550c2b","41.13.124.59","Mozilla/5.0 (Windows NT 10.0; Win64; x64) AppleWebKit/537.36 (KHTML, like Gecko) Chrome/138.0.0.0 Safari/537.36","WebKit","Chrome","138.0.0.0","Windows","10.0","https://app.prolific.com/","en-US,en;q=0.9","67b9e921b4b5ee4019522dbb","683db9eb0562dbf637994deb","6880815fb8435f949bbc0ee3","2","1","67b9e921b4b5ee4019522dbb","2","1","2025-07-23T07:00:39.166Z","","","","","","","","","","","ControlQ","","50","","","","","","","","","","","","","","","","","","","","","","","","","","","","",""
"5268","","<div style=""width:500px;"">
  <p>How would you describe your current emotional state?</p>
  </div>","1","html-slider-response","62","1625158","0.0-5.0-3.10","151","1","2025-07-23 06:33:57","1f75c3e559b7213887762d5229550c2b","41.13.124.59","Mozilla/5.0 (Windows NT 10.0; Win64; x64) AppleWebKit/537.36 (KHTML, like Gecko) Chrome/138.0.0.0 Safari/537.36","WebKit","Chrome","138.0.0.0","Windows","10.0","https://app.prolific.com/","en-US,en;q=0.9","67b9e921b4b5ee4019522dbb","683db9eb0562dbf637994deb","6880815fb8435f949bbc0ee3","2","1","67b9e921b4b5ee4019522dbb","2","1","2025-07-23T07:00:44.437Z","","","","","","","","","","","StressQ","","50","","","","","","","","","","","","","","","","","","","","","","","","","","","","",""
"6871","","<div style=""width:500px;"">
  <p>What best describes how you currently feel?</p>
  </div>","100","html-slider-response","63","1632032","0.0-5.0-4.10","151","1","2025-07-23 06:33:57","1f75c3e559b7213887762d5229550c2b","41.13.124.59","Mozilla/5.0 (Windows NT 10.0; Win64; x64) AppleWebKit/537.36 (KHTML, like Gecko) Chrome/138.0.0.0 Safari/537.36","WebKit","Chrome","138.0.0.0","Windows","10.0","https://app.prolific.com/","en-US,en;q=0.9","67b9e921b4b5ee4019522dbb","683db9eb0562dbf637994deb","6880815fb8435f949bbc0ee3","2","1","67b9e921b4b5ee4019522dbb","2","1","2025-07-23T07:00:51.311Z","","","","","","","","","","","MotivationQ","","50","","","","","","","","","","","","","","","","","","","","","","","","","","","","",""
"","","","","ctl-task-cpt","64","1688700","0.0-5.0-0.11","151","1","2025-07-23 06:33:57","1f75c3e559b7213887762d5229550c2b","41.13.124.59","Mozilla/5.0 (Windows NT 10.0; Win64; x64) AppleWebKit/537.36 (KHTML, like Gecko) Chrome/138.0.0.0 Safari/537.36","WebKit","Chrome","138.0.0.0","Windows","10.0","https://app.prolific.com/","en-US,en;q=0.9","67b9e921b4b5ee4019522dbb","683db9eb0562dbf637994deb","6880815fb8435f949bbc0ee3","2","1","67b9e921b4b5ee4019522dbb","2","1","2025-07-23T07:01:47.979Z","","","","","","","","","","","","","","win-only","0","g1:NW,g2:SE","0.6","12","0","1636949.6","22709.7","27790.5","53624.6","1","4","8","6","2","8","8","47","39","0.3560606060606061","2116.9","3000","2410","[""down"",""right""]","{""num_key_presses"":6,""num_perfect"":6,""num_errors"":0,""num_randdir"":0,""num_randdir_good_moves"":0,""num_whilered"":0,""num_whileblue"":0,""num_blue"":2,""num_good_moves"":6}","[249.24598214285714,246.63660714285714,1,249.24598214285714,246.63660714285714,119.7,249.24598214285714,246.63660714285714,227.8,249.24598214285714,246.63660714285714,332.5,249.24598214285714,246.63660714285714,589.5,249.24598214285714,246.63660714285714,692.2,249.24598214285714,246.63660714285714,794.8,324.24598214285714,369.63660714285714,1114.8,383.24598214285714,460.63660714285714,1220.1,430.24598214285714,480.63660714285714,1464.3,431.24598214285714,479.63660714285714,1575.8,436.24598214285714,475.63660714285714,1786.4,436.24598214285714,475.63660714285714,1888.5,436.24598214285714,475.63660714285714,2134.7,436.24598214285714,475.63660714285714,2240.5,436.24598214285714,475.63660714285714,2376.9,436.24598214285714,475.63660714285714,2479.9,436.24598214285714,475.63660714285714,2750.4,436.24598214285714,475.63660714285714,3046.1,436.24598214285714,475.63660714285714,3149.8,436.24598214285714,475.63660714285714,3370.6,436.24598214285714,475.63660714285714,3478.2,436.24598214285714,475.63660714285714,3720.3,436.24598214285714,475.63660714285714,3825.1,436.24598214285714,475.63660714285714,4108.6,436.24598214285714,475.63660714285714,4216.3,436.24598214285714,475.63660714285714,4459,436.24598214285714,475.63660714285714,4567.4,436.24598214285714,475.63660714285714,4803.6,436.24598214285714,475.63660714285714,4906.2]","[1573.4,1573.4,1000,0,573.4,""smooth"",""down"",""down"",""good_move"",5092.8,3518.3,2889.6,1574.6,628.7,""smooth"",""right"",""right"",""good_move"",8251.3,3153.2,2314.3,5098.1,838.9,""smooth"",""right"",""right"",""good_move"",11746.7,3492.9,2787.7,8253.8,705.2,""smooth"",""down"",""down"",""good_move"",21896.4,10148.6,2236.4,18935.7,724.3,""smooth"",""down"",""down"",""good_move"",25161,3264,2551.2,21897.1,712.7,""smooth"",""right"",""right"",""good_move""]","",""
"7402","","<div style=""width:500px;"">
  <p>What determined the result of this run?</p>
  </div>","100","html-slider-response","65","1696106","0.0-5.0-1.11","151","1","2025-07-23 06:33:57","1f75c3e559b7213887762d5229550c2b","41.13.124.59","Mozilla/5.0 (Windows NT 10.0; Win64; x64) AppleWebKit/537.36 (KHTML, like Gecko) Chrome/138.0.0.0 Safari/537.36","WebKit","Chrome","138.0.0.0","Windows","10.0","https://app.prolific.com/","en-US,en;q=0.9","67b9e921b4b5ee4019522dbb","683db9eb0562dbf637994deb","6880815fb8435f949bbc0ee3","2","1","67b9e921b4b5ee4019522dbb","2","1","2025-07-23T07:01:55.385Z","","","","","","","","","","","AttribQ","","50","","","","","","","","","","","","","","","","","","","","","","","","","","","","",""
"3975","","<div style=""width:500px;"">
  <p>How much control did you have over the ball?</p>
  </div>","100","html-slider-response","66","1700085","0.0-5.0-2.11","151","1","2025-07-23 06:33:57","1f75c3e559b7213887762d5229550c2b","41.13.124.59","Mozilla/5.0 (Windows NT 10.0; Win64; x64) AppleWebKit/537.36 (KHTML, like Gecko) Chrome/138.0.0.0 Safari/537.36","WebKit","Chrome","138.0.0.0","Windows","10.0","https://app.prolific.com/","en-US,en;q=0.9","67b9e921b4b5ee4019522dbb","683db9eb0562dbf637994deb","6880815fb8435f949bbc0ee3","2","1","67b9e921b4b5ee4019522dbb","2","1","2025-07-23T07:01:59.365Z","","","","","","","","","","","ControlQ","","50","","","","","","","","","","","","","","","","","","","","","","","","","","","","",""
"4420","","<div style=""width:500px;"">
  <p>How would you describe your current emotional state?</p>
  </div>","1","html-slider-response","67","1704511","0.0-5.0-3.11","151","1","2025-07-23 06:33:57","1f75c3e559b7213887762d5229550c2b","41.13.124.59","Mozilla/5.0 (Windows NT 10.0; Win64; x64) AppleWebKit/537.36 (KHTML, like Gecko) Chrome/138.0.0.0 Safari/537.36","WebKit","Chrome","138.0.0.0","Windows","10.0","https://app.prolific.com/","en-US,en;q=0.9","67b9e921b4b5ee4019522dbb","683db9eb0562dbf637994deb","6880815fb8435f949bbc0ee3","2","1","67b9e921b4b5ee4019522dbb","2","1","2025-07-23T07:02:03.790Z","","","","","","","","","","","StressQ","","50","","","","","","","","","","","","","","","","","","","","","","","","","","","","",""
"3947","","<div style=""width:500px;"">
  <p>What best describes how you currently feel?</p>
  </div>","99","html-slider-response","68","1708464","0.0-5.0-4.11","151","1","2025-07-23 06:33:57","1f75c3e559b7213887762d5229550c2b","41.13.124.59","Mozilla/5.0 (Windows NT 10.0; Win64; x64) AppleWebKit/537.36 (KHTML, like Gecko) Chrome/138.0.0.0 Safari/537.36","WebKit","Chrome","138.0.0.0","Windows","10.0","https://app.prolific.com/","en-US,en;q=0.9","67b9e921b4b5ee4019522dbb","683db9eb0562dbf637994deb","6880815fb8435f949bbc0ee3","2","1","67b9e921b4b5ee4019522dbb","2","1","2025-07-23T07:02:07.743Z","","","","","","","","","","","MotivationQ","","50","","","","","","","","","","","","","","","","","","","","","","","","","","","","",""
"","","","","ctl-task-cpt","69","1776680","0.0-5.0-0.12","151","1","2025-07-23 06:33:57","1f75c3e559b7213887762d5229550c2b","41.13.124.59","Mozilla/5.0 (Windows NT 10.0; Win64; x64) AppleWebKit/537.36 (KHTML, like Gecko) Chrome/138.0.0.0 Safari/537.36","WebKit","Chrome","138.0.0.0","Windows","10.0","https://app.prolific.com/","en-US,en;q=0.9","67b9e921b4b5ee4019522dbb","683db9eb0562dbf637994deb","6880815fb8435f949bbc0ee3","2","1","67b9e921b4b5ee4019522dbb","2","1","2025-07-23T07:03:15.959Z","","","","","","","","","","","","","","win-only","2","g1:SE,g2:NW","0.7","13","0","1713381.6","4011.1","9207.6","65048","1","4","8","6","2","8","8","55","47","0.4166666666666667","1740.8","3000","2145","[""left"",""up""]","{""num_key_presses"":8,""num_perfect"":6,""num_errors"":0,""num_randdir"":2,""num_randdir_good_moves"":1,""num_whilered"":0,""num_whileblue"":0,""num_blue"":4,""num_good_moves"":7}","[245.24598214285714,243.63660714285714,0.7,245.24598214285714,243.63660714285714,106,245.24598214285714,243.63660714285714,358.9,245.24598214285714,243.63660714285714,638.8,135.24598214285714,138.63660714285714,977.5,84.24598214285714,67.63660714285714,1094.3,74.24598214285714,38.636607142857144,1201.4,73.24598214285714,37.636607142857144,1419.1,73.24598214285714,37.636607142857144,1533.4,73.24598214285714,37.636607142857144,1758.8,73.24598214285714,37.636607142857144,1866.6,73.24598214285714,37.636607142857144,2076.3,73.24598214285714,37.636607142857144,2185.3,73.24598214285714,37.636607142857144,2376.1,73.24598214285714,37.636607142857144,2483.5,73.24598214285714,37.636607142857144,2649.1,73.24598214285714,63.636607142857144,2764,70.24598214285714,98.63660714285714,3010.6,68.24598214285714,104.63660714285714,3115.5,56.245982142857144,116.63660714285714,3224.2,-30.754017857142856,119.63660714285714,3465.7,-63.754017857142856,121.63660714285714,3568.3,-66.75401785714286,123.63660714285714,3811.1,-66.75401785714286,123.63660714285714,3917.2,-66.75401785714286,123.63660714285714,4139.9,-66.75401785714286,123.63660714285714,4240.6,-66.75401785714286,123.63660714285714,4464.9,-66.75401785714286,123.63660714285714,4577.6,-66.75401785714286,123.63660714285714,4812.4,-66.75401785714286,123.63660714285714,4921.4]","[1822.4,1822.4,1000,0,822.4,""smooth"",""up"",""up"",""good_move"",8011.2,6187.3,2049,1823.9,4138.3,""smooth"",""left"",""left"",""good_move"",21199,13186.6,2566.6,17900.1,732.4,""smooth"",""left"",""left"",""good_move"",25814.4,4614.7,3019.7,21199.8,1594.9,""oops"",""up"",""down"",""bad_move"",32769.8,6954.2,2322.4,29448.7,998.7,""smooth"",""up"",""up"",""good_move"",39144.2,6373.3,1614.9,32770.9,4758.4,""oops"",""up"",""left"",""good_move"",48995.6,9850.7,2553,45718.6,724,""smooth"",""up"",""up"",""good_move"",55106.9,6110.7,3071.5,48996.2,3039.2,""smooth"",""up"",""up"",""good_move""]","",""
"16147","","<div style=""width:500px;"">
  <p>What determined the result of this run?</p>
  </div>","100","html-slider-response","70","1792830","0.0-5.0-1.12","151","1","2025-07-23 06:33:57","1f75c3e559b7213887762d5229550c2b","41.13.124.59","Mozilla/5.0 (Windows NT 10.0; Win64; x64) AppleWebKit/537.36 (KHTML, like Gecko) Chrome/138.0.0.0 Safari/537.36","WebKit","Chrome","138.0.0.0","Windows","10.0","https://app.prolific.com/","en-US,en;q=0.9","67b9e921b4b5ee4019522dbb","683db9eb0562dbf637994deb","6880815fb8435f949bbc0ee3","2","1","67b9e921b4b5ee4019522dbb","2","1","2025-07-23T07:03:32.109Z","","","","","","","","","","","AttribQ","","50","","","","","","","","","","","","","","","","","","","","","","","","","","","","",""
"5436","","<div style=""width:500px;"">
  <p>How much control did you have over the ball?</p>
  </div>","100","html-slider-response","71","1798270","0.0-5.0-2.12","151","1","2025-07-23 06:33:57","1f75c3e559b7213887762d5229550c2b","41.13.124.59","Mozilla/5.0 (Windows NT 10.0; Win64; x64) AppleWebKit/537.36 (KHTML, like Gecko) Chrome/138.0.0.0 Safari/537.36","WebKit","Chrome","138.0.0.0","Windows","10.0","https://app.prolific.com/","en-US,en;q=0.9","67b9e921b4b5ee4019522dbb","683db9eb0562dbf637994deb","6880815fb8435f949bbc0ee3","2","1","67b9e921b4b5ee4019522dbb","2","1","2025-07-23T07:03:37.550Z","","","","","","","","","","","ControlQ","","50","","","","","","","","","","","","","","","","","","","","","","","","","","","","",""
"4641","","<div style=""width:500px;"">
  <p>How would you describe your current emotional state?</p>
  </div>","50","html-slider-response","72","1802914","0.0-5.0-3.12","151","1","2025-07-23 06:33:57","1f75c3e559b7213887762d5229550c2b","41.13.124.59","Mozilla/5.0 (Windows NT 10.0; Win64; x64) AppleWebKit/537.36 (KHTML, like Gecko) Chrome/138.0.0.0 Safari/537.36","WebKit","Chrome","138.0.0.0","Windows","10.0","https://app.prolific.com/","en-US,en;q=0.9","67b9e921b4b5ee4019522dbb","683db9eb0562dbf637994deb","6880815fb8435f949bbc0ee3","2","1","67b9e921b4b5ee4019522dbb","2","1","2025-07-23T07:03:42.194Z","","","","","","","","","","","StressQ","","50","","","","","","","","","","","","","","","","","","","","","","","","","","","","",""
"6207","","<div style=""width:500px;"">
  <p>What best describes how you currently feel?</p>
  </div>","100","html-slider-response","73","1809138","0.0-5.0-4.12","151","1","2025-07-23 06:33:57","1f75c3e559b7213887762d5229550c2b","41.13.124.59","Mozilla/5.0 (Windows NT 10.0; Win64; x64) AppleWebKit/537.36 (KHTML, like Gecko) Chrome/138.0.0.0 Safari/537.36","WebKit","Chrome","138.0.0.0","Windows","10.0","https://app.prolific.com/","en-US,en;q=0.9","67b9e921b4b5ee4019522dbb","683db9eb0562dbf637994deb","6880815fb8435f949bbc0ee3","2","1","67b9e921b4b5ee4019522dbb","2","1","2025-07-23T07:03:48.418Z","","","","","","","","","","","MotivationQ","","50","","","","","","","","","","","","","","","","","","","","","","","","","","","","",""
"","","","","ctl-task-cpt","74","1882423","0.0-5.0-0.13","151","1","2025-07-23 06:33:57","1f75c3e559b7213887762d5229550c2b","41.13.124.59","Mozilla/5.0 (Windows NT 10.0; Win64; x64) AppleWebKit/537.36 (KHTML, like Gecko) Chrome/138.0.0.0 Safari/537.36","WebKit","Chrome","138.0.0.0","Windows","10.0","https://app.prolific.com/","en-US,en;q=0.9","67b9e921b4b5ee4019522dbb","683db9eb0562dbf637994deb","6880815fb8435f949bbc0ee3","2","1","67b9e921b4b5ee4019522dbb","2","1","2025-07-23T07:05:01.702Z","","","","","","","","","","","","","","win-only","1","g1:NE,g2:SW","0.8","14","0","1814055.7","16119","21136.7","70188.6","1","4","4","6","2","4","3","58","55","0.4393939393939394","1842.5","3000","2545","[""down"",""left""]","{""num_key_presses"":7,""num_perfect"":4,""num_errors"":1,""num_randdir"":2,""num_randdir_good_moves"":2,""num_whilered"":0,""num_whileblue"":0,""num_blue"":2,""num_good_moves"":6}","[252.24598214285714,248.63660714285714,0.8,252.24598214285714,248.63660714285714,110.8,252.24598214285714,248.63660714285714,256.5,252.24598214285714,248.63660714285714,398.5,252.24598214285714,248.63660714285714,542,252.24598214285714,248.63660714285714,737.3,252.24598214285714,248.63660714285714,838,74.24598214285714,362.63660714285714,1007.5,54.245982142857144,379.63660714285714,1119.6,55.245982142857144,397.63660714285714,1232.3,55.245982142857144,408.63660714285714,1343.7,51.245982142857144,419.63660714285714,1450.5,47.245982142857144,431.63660714285714,1560.2,47.245982142857144,434.63660714285714,1704.3,47.245982142857144,434.63660714285714,1853.8,47.245982142857144,434.63660714285714,1999.3,47.245982142857144,434.63660714285714,2101.9,47.245982142857144,434.63660714285714,2245.5,47.245982142857144,434.63660714285714,2386.5,47.245982142857144,434.63660714285714,2490.2,47.245982142857144,434.63660714285714,2637.7,47.245982142857144,434.63660714285714,2765,47.245982142857144,436.63660714285714,2878.8,54.245982142857144,447.63660714285714,2995.3,62.245982142857144,458.63660714285714,3113.6,67.24598214285714,463.63660714285714,3232.4,77.24598214285714,463.63660714285714,3344.1,81.24598214285714,462.63660714285714,3449.8,81.24598214285714,462.63660714285714,3551.7,81.24598214285714,462.63660714285714,3702.1,81.24598214285714,462.63660714285714,3851.7,81.24598214285714,462.63660714285714,4001.8,81.24598214285714,462.63660714285714,4178.4,81.24598214285714,462.63660714285714,4312.3,81.24598214285714,462.63660714285714,4424,81.24598214285714,462.63660714285714,4571.4,97.24598214285714,485.63660714285714,4685.8,122.24598214285714,508.63660714285714,4790.4,122.24598214285714,508.63660714285714,4938.7]","[2064.3,2064.3,1000,0,1064.3,""smooth"",""down"",""down"",""good_move"",2249.9,184.2,2711.8,2065.7,-2527.6,""error"",""-"",""-"",""no_move"",6623.8,4372.9,2670.4,3263.8,689.6,""smooth"",""left"",""left"",""good_move"",20366,13739.9,2619.1,17005.6,741.4,""smooth"",""down"",""down"",""good_move"",27684,7317.2,3287.5,23556.8,839.7,""oops"",""down"",""down"",""good_move"",32045.2,4359.5,1789.7,27685.7,2569.8,""smooth"",""left"",""left"",""good_move"",47487,15440.6,3094.7,32046.4,12345.9,""oops"",""left"",""left"",""good_move""]","",""
"8526","","<div style=""width:500px;"">
  <p>What determined the result of this run?</p>
  </div>","100","html-slider-response","75","1890957","0.0-5.0-1.13","151","1","2025-07-23 06:33:57","1f75c3e559b7213887762d5229550c2b","41.13.124.59","Mozilla/5.0 (Windows NT 10.0; Win64; x64) AppleWebKit/537.36 (KHTML, like Gecko) Chrome/138.0.0.0 Safari/537.36","WebKit","Chrome","138.0.0.0","Windows","10.0","https://app.prolific.com/","en-US,en;q=0.9","67b9e921b4b5ee4019522dbb","683db9eb0562dbf637994deb","6880815fb8435f949bbc0ee3","2","1","67b9e921b4b5ee4019522dbb","2","1","2025-07-23T07:05:10.236Z","","","","","","","","","","","AttribQ","","50","","","","","","","","","","","","","","","","","","","","","","","","","","","","",""
"7969","","<div style=""width:500px;"">
  <p>How much control did you have over the ball?</p>
  </div>","100","html-slider-response","76","1898933","0.0-5.0-2.13","151","1","2025-07-23 06:33:57","1f75c3e559b7213887762d5229550c2b","41.13.124.59","Mozilla/5.0 (Windows NT 10.0; Win64; x64) AppleWebKit/537.36 (KHTML, like Gecko) Chrome/138.0.0.0 Safari/537.36","WebKit","Chrome","138.0.0.0","Windows","10.0","https://app.prolific.com/","en-US,en;q=0.9","67b9e921b4b5ee4019522dbb","683db9eb0562dbf637994deb","6880815fb8435f949bbc0ee3","2","1","67b9e921b4b5ee4019522dbb","2","1","2025-07-23T07:05:18.212Z","","","","","","","","","","","ControlQ","","50","","","","","","","","","","","","","","","","","","","","","","","","","","","","",""
"8447","","<div style=""width:500px;"">
  <p>How would you describe your current emotional state?</p>
  </div>","0","html-slider-response","77","1907388","0.0-5.0-3.13","151","1","2025-07-23 06:33:57","1f75c3e559b7213887762d5229550c2b","41.13.124.59","Mozilla/5.0 (Windows NT 10.0; Win64; x64) AppleWebKit/537.36 (KHTML, like Gecko) Chrome/138.0.0.0 Safari/537.36","WebKit","Chrome","138.0.0.0","Windows","10.0","https://app.prolific.com/","en-US,en;q=0.9","67b9e921b4b5ee4019522dbb","683db9eb0562dbf637994deb","6880815fb8435f949bbc0ee3","2","1","67b9e921b4b5ee4019522dbb","2","1","2025-07-23T07:05:26.668Z","","","","","","","","","","","StressQ","","50","","","","","","","","","","","","","","","","","","","","","","","","","","","","",""
"4121","","<div style=""width:500px;"">
  <p>What best describes how you currently feel?</p>
  </div>","100","html-slider-response","78","1911518","0.0-5.0-4.13","151","1","2025-07-23 06:33:57","1f75c3e559b7213887762d5229550c2b","41.13.124.59","Mozilla/5.0 (Windows NT 10.0; Win64; x64) AppleWebKit/537.36 (KHTML, like Gecko) Chrome/138.0.0.0 Safari/537.36","WebKit","Chrome","138.0.0.0","Windows","10.0","https://app.prolific.com/","en-US,en;q=0.9","67b9e921b4b5ee4019522dbb","683db9eb0562dbf637994deb","6880815fb8435f949bbc0ee3","2","1","67b9e921b4b5ee4019522dbb","2","1","2025-07-23T07:05:30.797Z","","","","","","","","","","","MotivationQ","","50","","","","","","","","","","","","","","","","","","","","","","","","","","","","",""
