"rt","response_timestamp","stimulus","response","trial_type","trial_index","time_elapsed","internal_node_id","run_id","condition","recorded_at","source_code_version","ip","user_agent","device","browser","browser_version","platform","platform_version","referer","accept_language","PROLIFIC_PID","STUDY_ID","SESSION_ID","WEEK","prolific_id","week","batch","realtime","success","responses","item_order","radio_event_ids","radio_event_times","key_event_times","mouse_event_times","straightlining","zigzagging","honeypot","eventType","view_history","slider_start","which_type","canvas_config","goals_layout","control_level","trial_number","tutorial_trial_number","trial_start_time","phase1_start_time","phase2_start_time","phase3_start_time","goal_1_value","goal_1_distance","goal_2_value","goal_2_distance","goal_selected","outcome","outcome_total","participant_final_score","participant_initial_score","participant_final_score_prop","goal_choice_rt","allocated_time","allocated_time_remaining","goal_direction","counts","mouse_movements","key_presses","question_order","question_id"
"3928","1752690398342","<p style='font-size:40px;line-height:1.25'><strong>Welcome to the experiment!</strong></p><p style='font-size:1.1em;line-height:1.25'>Thank you for participanting in our experiment again! You will be asked to play the Dysfunctional Ball Game again. We will briefly recap the rules before we start.</p><p style='font-size:1.1em;line-height:1.25'>Press <strong>Next</strong> to continue.</p>","0","custom-html-button-response","0","3932","0.0-0.0","123","1","2025-07-16 18:26:30","1f75c3e559b7213887762d5229550c2b","31.21.169.6","Mozilla/5.0 (Windows NT 10.0; Win64; x64) AppleWebKit/537.36 (KHTML, like Gecko) Chrome/138.0.0.0 Safari/537.36","WebKit","Chrome","138.0.0.0","Windows","10.0","https://app.prolific.com/","en-US,en;q=0.9,nl;q=0.8","6698f8ca0354d4ef9692bf7a","683db7602f5db6a34d12d064","6877eec0c7f76931ab6d0606","1","6698f8ca0354d4ef9692bf7a","1","","2025-07-16T18:26:38.342Z","","","","","","","","","","","","","","","","","","","","","","","","","","","","","","","","","","","","","","","","","",""
"886","","","","fullscreen","1","5832","0.0-1.0","123","1","2025-07-16 18:26:30","1f75c3e559b7213887762d5229550c2b","31.21.169.6","Mozilla/5.0 (Windows NT 10.0; Win64; x64) AppleWebKit/537.36 (KHTML, like Gecko) Chrome/138.0.0.0 Safari/537.36","WebKit","Chrome","138.0.0.0","Windows","10.0","https://app.prolific.com/","en-US,en;q=0.9,nl;q=0.8","6698f8ca0354d4ef9692bf7a","683db7602f5db6a34d12d064","6877eec0c7f76931ab6d0606","1","6698f8ca0354d4ef9692bf7a","1","","","true","","","","","","","","","","","","","","","","","","","","","","","","","","","","","","","","","","","","","","","","",""
"1090","1752690401333","<p style='font-size:1.1em;line-height:1.25'>In the following, we will ask you a few questions relating to your feelings in the last 24 hours.<br></p><p style='font-size:1.1em;line-height:1.25'>Press the <strong>Next</strong> button to continue.</p>","0","custom-html-button-response","2","6923","0.0-2.0-0.0","123","1","2025-07-16 18:26:30","1f75c3e559b7213887762d5229550c2b","31.21.169.6","Mozilla/5.0 (Windows NT 10.0; Win64; x64) AppleWebKit/537.36 (KHTML, like Gecko) Chrome/138.0.0.0 Safari/537.36","WebKit","Chrome","138.0.0.0","Windows","10.0","https://app.prolific.com/","en-US,en;q=0.9,nl;q=0.8","6698f8ca0354d4ef9692bf7a","683db7602f5db6a34d12d064","6877eec0c7f76931ab6d0606","1","6698f8ca0354d4ef9692bf7a","1","","2025-07-16T18:26:41.333Z","","","","","","","","","","","","","","","","","","","","","","","","","","","","","","","","","","","","","","","","","",""
"61990.5","","","","survey-template","3","68917","0.0-2.0-1.0","123","1","2025-07-16 18:26:30","1f75c3e559b7213887762d5229550c2b","31.21.169.6","Mozilla/5.0 (Windows NT 10.0; Win64; x64) AppleWebKit/537.36 (KHTML, like Gecko) Chrome/138.0.0.0 Safari/537.36","WebKit","Chrome","138.0.0.0","Windows","10.0","https://app.prolific.com/","en-US,en;q=0.9,nl;q=0.8","6698f8ca0354d4ef9692bf7a","683db7602f5db6a34d12d064","6877eec0c7f76931ab6d0606","1","6698f8ca0354d4ef9692bf7a","1","","2025-07-16T18:27:43.327Z","","{""Q01"":""0"",""Q02"":""0"",""Q03"":""0"",""Q04"":""1"",""Q05"":""0"",""Q06"":""0"",""Q07"":""0"",""Q08"":""0"",""Q09"":""0"",""Q10"":""1"",""Q11"":""1"",""Q12"":""0"",""Q13"":""5"",""Q14"":""1"",""Q15"":""0"",""Q16"":""0"",""Q17"":""0"",""Q18"":""0"",""Q19"":""1"",""Q20"":""0"",""Q21"":""0"",""Q22"":""0""}","[0,1,2,3,4,5,6,7,8,9,10,11,12,13,14,15,16,17,18,19,20,21]","[""Q01"",""Q02"",""Q03"",""Q04"",""Q05"",""Q04"",""Q06"",""Q07"",""Q08"",""Q09"",""Q10"",""Q10"",""Q11"",""Q12"",""Q13"",""Q14"",""Q15"",""Q16"",""Q17"",""Q18"",""Q19"",""Q20"",""Q21"",""Q22""]","[7637.900000095367,8478.100000143051,10029.799999952316,11022.100000143051,11742.400000095367,14230.700000047684,15461.600000143051,16742,18062.299999952316,19341.900000095367,20581.900000095367,24162,24897.5,25953.799999952316,29098.10000014305,32937.60000014305,37369.799999952316,40833.799999952316,41562.5,42642.299999952316,51785.90000009537,55121,58066.200000047684,60873.90000009537]","[]","[0.10000014305114746,6166.400000095367,7637.900000095367,8478.100000143051,9078,9494.299999952316,10029.799999952316,11022.100000143051,11742.400000095367,14230.700000047684,15461.600000143051,16742,18062.299999952316,19341.900000095367,20581.900000095367,24162,24897.5,25953.799999952316,26730.5,29098.10000014305,32937.60000014305,37369.799999952316,39754,40833.799999952316,41562.5,42642.299999952316,51785.90000009537,55121,58066.200000047684,60873.90000009537,61985.799999952316]","0.7272727272727273","0.38095238095238093","0","drsp","","","","","","","","","","","","","","","","","","","","","","","","","","","","","","",""
"13957.299999952316","","","","survey-template","4","82876","0.0-2.0-2.0","123","1","2025-07-16 18:26:30","1f75c3e559b7213887762d5229550c2b","31.21.169.6","Mozilla/5.0 (Windows NT 10.0; Win64; x64) AppleWebKit/537.36 (KHTML, like Gecko) Chrome/138.0.0.0 Safari/537.36","WebKit","Chrome","138.0.0.0","Windows","10.0","https://app.prolific.com/","en-US,en;q=0.9,nl;q=0.8","6698f8ca0354d4ef9692bf7a","683db7602f5db6a34d12d064","6877eec0c7f76931ab6d0606","1","6698f8ca0354d4ef9692bf7a","1","","2025-07-16T18:27:57.286Z","","{""Q01"":""1"",""Q02"":""1"",""Q03"":""0""}","[0,1,2]","[""Q01"",""Q02"",""Q03""]","[3042.9000000953674,7856,13213.400000095367]","[]","[3042.9000000953674,7856,13213.400000095367,13956.599999904633]","0.3333333333333333","0","0","stress","","","","","","","","","","","","","","","","","","","","","","","","","","","","","","",""
"27573","","","","instructions","5","110450","0.0-3.0-0.0","123","1","2025-07-16 18:26:30","1f75c3e559b7213887762d5229550c2b","31.21.169.6","Mozilla/5.0 (Windows NT 10.0; Win64; x64) AppleWebKit/537.36 (KHTML, like Gecko) Chrome/138.0.0.0 Safari/537.36","WebKit","Chrome","138.0.0.0","Windows","10.0","https://app.prolific.com/","en-US,en;q=0.9,nl;q=0.8","6698f8ca0354d4ef9692bf7a","683db7602f5db6a34d12d064","6877eec0c7f76931ab6d0606","1","6698f8ca0354d4ef9692bf7a","1","","","","","","","","","","","","","","[{""page_index"":0,""viewing_time"":27573}]","","","","","","","","","","","","","","","","","","","","","","","","","","","","","",""
"3407","","<p>Before you start with this game please answer the following three questions yourself. </p>
  <p>Through this game, we measure several aspects of your cognitive performance, such as reaction times, multi-tasking capabilities </p>
  <p>and the ability to assess the situation you are in.</p>
  <p></p>
  <p><b>How good do you usually are in such tasks?</b></p>","100","html-slider-response","6","113859","0.0-4.0-0.0","123","1","2025-07-16 18:26:30","1f75c3e559b7213887762d5229550c2b","31.21.169.6","Mozilla/5.0 (Windows NT 10.0; Win64; x64) AppleWebKit/537.36 (KHTML, like Gecko) Chrome/138.0.0.0 Safari/537.36","WebKit","Chrome","138.0.0.0","Windows","10.0","https://app.prolific.com/","en-US,en;q=0.9,nl;q=0.8","6698f8ca0354d4ef9692bf7a","683db7602f5db6a34d12d064","6877eec0c7f76931ab6d0606","1","6698f8ca0354d4ef9692bf7a","1","","2025-07-16T18:28:28.269Z","","","","","","","","","","","PreSkillQ","","50","","","","","","","","","","","","","","","","","","","","","","","","","","","","",""
"4815","","<div style=""width:500px;"">
  <p>How well do you think you will perform in this task compared to other participants?</p>
  </div>","100","html-slider-response","7","118674","0.0-4.0-1.0","123","1","2025-07-16 18:26:30","1f75c3e559b7213887762d5229550c2b","31.21.169.6","Mozilla/5.0 (Windows NT 10.0; Win64; x64) AppleWebKit/537.36 (KHTML, like Gecko) Chrome/138.0.0.0 Safari/537.36","WebKit","Chrome","138.0.0.0","Windows","10.0","https://app.prolific.com/","en-US,en;q=0.9,nl;q=0.8","6698f8ca0354d4ef9692bf7a","683db7602f5db6a34d12d064","6877eec0c7f76931ab6d0606","1","6698f8ca0354d4ef9692bf7a","1","","2025-07-16T18:28:33.084Z","","","","","","","","","","","PrePerfQ","","50","","","","","","","","","","","","","","","","","","","","","","","","","","","","",""
"4332","","<div style=""width:500px;"">
  <p>What best describes how you currently feel?</p>
  </div>","25","html-slider-response","8","123007","0.0-4.0-2.0","123","1","2025-07-16 18:26:30","1f75c3e559b7213887762d5229550c2b","31.21.169.6","Mozilla/5.0 (Windows NT 10.0; Win64; x64) AppleWebKit/537.36 (KHTML, like Gecko) Chrome/138.0.0.0 Safari/537.36","WebKit","Chrome","138.0.0.0","Windows","10.0","https://app.prolific.com/","en-US,en;q=0.9,nl;q=0.8","6698f8ca0354d4ef9692bf7a","683db7602f5db6a34d12d064","6877eec0c7f76931ab6d0606","1","6698f8ca0354d4ef9692bf7a","1","","2025-07-16T18:28:37.417Z","","","","","","","","","","","PreMotivationQ","","50","","","","","","","","","","","","","","","","","","","","","","","","","","","","",""
"","","","","ctl-task-cpt","9","163665","0.0-5.0-0.0","123","1","2025-07-16 18:26:30","1f75c3e559b7213887762d5229550c2b","31.21.169.6","Mozilla/5.0 (Windows NT 10.0; Win64; x64) AppleWebKit/537.36 (KHTML, like Gecko) Chrome/138.0.0.0 Safari/537.36","WebKit","Chrome","138.0.0.0","Windows","10.0","https://app.prolific.com/","en-US,en;q=0.9,nl;q=0.8","6698f8ca0354d4ef9692bf7a","683db7602f5db6a34d12d064","6877eec0c7f76931ab6d0606","1","6698f8ca0354d4ef9692bf7a","1","","2025-07-16T18:29:18.075Z","","","","","","","","","","","","","","win-only","3","g1:SW,g2:NE","1","1","0","128990.3","6373.6","11376.1","37654.8","1","4","4","6","2","4","4","4","0","0.030303030303030304","5002.5","3000","190","[""up"",""right""]","{""num_key_presses"":8,""num_perfect"":8,""num_errors"":0,""num_randdir"":0,""num_randdir_good_moves"":0,""num_whilered"":0,""num_whileblue"":0,""num_blue"":1,""num_good_moves"":7}","[416.5714133126395,420.32142761775424,0.1,416.5714133126395,420.32142761775424,101.7,416.5714133126395,420.32142761775424,202.4,416.5714133126395,420.32142761775424,302.8,416.5714133126395,420.32142761775424,407.7,416.5714133126395,420.32142761775424,512.5,416.5714133126395,420.32142761775424,613,416.5714133126395,420.32142761775424,717.8,416.5714133126395,420.32142761775424,822.1,416.5714133126395,420.32142761775424,922.2,416.5714133126395,420.32142761775424,1027.8,416.5714133126395,420.32142761775424,1132.7,416.5714133126395,420.32142761775424,1233,416.5714133126395,420.32142761775424,1333.1,416.5714133126395,420.32142761775424,1437,416.5714133126395,420.32142761775424,1537.4,416.5714133126395,420.32142761775424,1641.7,416.5714133126395,420.32142761775424,1742.9,416.5714133126395,420.32142761775424,1847,416.5714133126395,420.32142761775424,1947.8,416.5714133126395,420.32142761775424,2052.1,416.5714133126395,420.32142761775424,2156.8,416.5714133126395,420.32142761775424,2258.4,416.5714133126395,420.32142761775424,2361.8,416.5714133126395,420.32142761775424,2462.4,416.5714133126395,420.32142761775424,2567.2,416.5714133126395,420.32142761775424,2667.7,416.5714133126395,420.32142761775424,2772.6,416.5714133126395,420.32142761775424,2872.6,416.5714133126395,420.32142761775424,2972.6,416.5714133126395,420.32142761775424,3076.9,416.5714133126395,420.32142761775424,3178.2,416.5714133126395,420.32142761775424,3283,416.5714133126395,420.32142761775424,3383,416.5714133126395,420.32142761775424,3487.4,416.5714133126395,420.32142761775424,3591.7,416.5714133126395,420.32142761775424,3692.9,416.5714133126395,420.32142761775424,3797.7,416.5714133126395,420.32142761775424,3898.6,416.5714133126395,420.32142761775424,4002.4,416.5714133126395,420.32142761775424,4102.5,416.5714133126395,420.32142761775424,4203.1,416.5714133126395,420.32142761775424,4306.9,416.5714133126395,420.32142761775424,4407,416.5714133126395,420.32142761775424,4512.6,416.5714133126395,420.32142761775424,4613,416.5714133126395,420.32142761775424,4718.6,416.5714133126395,420.32142761775424,4821.9,416.5714133126395,420.32142761775424,4922]","[1440,1440,1000,0,440,""smooth"",""down"",""down"",""bad_move"",4569.5,3129.2,2762.8,1440.3,366.4,""smooth"",""right"",""right"",""good_move"",7877.9,3307.7,2876.3,4570.2,431.4,""smooth"",""right"",""right"",""good_move"",10848.1,2969.9,2641.4,7878.2,328.5,""smooth"",""right"",""right"",""good_move"",16965.4,6117.1,2600.4,13999.8,365.2,""smooth"",""up"",""up"",""good_move"",20891.2,3925.7,3504.4,16965.5,421.3,""smooth"",""up"",""up"",""good_move"",23862,2970.4,2702.3,20891.6,268.1,""smooth"",""up"",""up"",""good_move"",26189.5,2327.5,2089.8,23862.1,237.7,""smooth"",""up"",""up"",""good_move""]","",""
"3518","","<div style=""width:500px;"">
  <p>What determined the result of this run?</p>
  </div>","100","html-slider-response","10","167183","0.0-5.0-1.0","123","1","2025-07-16 18:26:30","1f75c3e559b7213887762d5229550c2b","31.21.169.6","Mozilla/5.0 (Windows NT 10.0; Win64; x64) AppleWebKit/537.36 (KHTML, like Gecko) Chrome/138.0.0.0 Safari/537.36","WebKit","Chrome","138.0.0.0","Windows","10.0","https://app.prolific.com/","en-US,en;q=0.9,nl;q=0.8","6698f8ca0354d4ef9692bf7a","683db7602f5db6a34d12d064","6877eec0c7f76931ab6d0606","1","6698f8ca0354d4ef9692bf7a","1","","2025-07-16T18:29:21.594Z","","","","","","","","","","","AttribQ","","50","","","","","","","","","","","","","","","","","","","","","","","","","","","","",""
"2310","","<div style=""width:500px;"">
  <p>How much control did you have over the ball?</p>
  </div>","100","html-slider-response","11","169494","0.0-5.0-2.0","123","1","2025-07-16 18:26:30","1f75c3e559b7213887762d5229550c2b","31.21.169.6","Mozilla/5.0 (Windows NT 10.0; Win64; x64) AppleWebKit/537.36 (KHTML, like Gecko) Chrome/138.0.0.0 Safari/537.36","WebKit","Chrome","138.0.0.0","Windows","10.0","https://app.prolific.com/","en-US,en;q=0.9,nl;q=0.8","6698f8ca0354d4ef9692bf7a","683db7602f5db6a34d12d064","6877eec0c7f76931ab6d0606","1","6698f8ca0354d4ef9692bf7a","1","","2025-07-16T18:29:23.904Z","","","","","","","","","","","ControlQ","","50","","","","","","","","","","","","","","","","","","","","","","","","","","","","",""
"3096","","<div style=""width:500px;"">
  <p>How would you describe your current emotional state?</p>
  </div>","0","html-slider-response","12","172591","0.0-5.0-3.0","123","1","2025-07-16 18:26:30","1f75c3e559b7213887762d5229550c2b","31.21.169.6","Mozilla/5.0 (Windows NT 10.0; Win64; x64) AppleWebKit/537.36 (KHTML, like Gecko) Chrome/138.0.0.0 Safari/537.36","WebKit","Chrome","138.0.0.0","Windows","10.0","https://app.prolific.com/","en-US,en;q=0.9,nl;q=0.8","6698f8ca0354d4ef9692bf7a","683db7602f5db6a34d12d064","6877eec0c7f76931ab6d0606","1","6698f8ca0354d4ef9692bf7a","1","","2025-07-16T18:29:27.001Z","","","","","","","","","","","StressQ","","50","","","","","","","","","","","","","","","","","","","","","","","","","","","","",""
"3191","","<div style=""width:500px;"">
  <p>What best describes how you currently feel?</p>
  </div>","100","html-slider-response","13","175783","0.0-5.0-4.0","123","1","2025-07-16 18:26:30","1f75c3e559b7213887762d5229550c2b","31.21.169.6","Mozilla/5.0 (Windows NT 10.0; Win64; x64) AppleWebKit/537.36 (KHTML, like Gecko) Chrome/138.0.0.0 Safari/537.36","WebKit","Chrome","138.0.0.0","Windows","10.0","https://app.prolific.com/","en-US,en;q=0.9,nl;q=0.8","6698f8ca0354d4ef9692bf7a","683db7602f5db6a34d12d064","6877eec0c7f76931ab6d0606","1","6698f8ca0354d4ef9692bf7a","1","","2025-07-16T18:29:30.193Z","","","","","","","","","","","MotivationQ","","50","","","","","","","","","","","","","","","","","","","","","","","","","","","","",""
"","","","","ctl-task-cpt","14","205832","0.0-5.0-0.1","123","1","2025-07-16 18:26:30","1f75c3e559b7213887762d5229550c2b","31.21.169.6","Mozilla/5.0 (Windows NT 10.0; Win64; x64) AppleWebKit/537.36 (KHTML, like Gecko) Chrome/138.0.0.0 Safari/537.36","WebKit","Chrome","138.0.0.0","Windows","10.0","https://app.prolific.com/","en-US,en;q=0.9,nl;q=0.8","6698f8ca0354d4ef9692bf7a","683db7602f5db6a34d12d064","6877eec0c7f76931ab6d0606","1","6698f8ca0354d4ef9692bf7a","1","","2025-07-16T18:30:00.242Z","","","","","","","","","","","","","","win-only","1","g1:NE,g2:SW","0.9","2","0","181765.1","3384","8386.1","27041","1","4","8","6","2","8","8","12","4","0.09090909090909091","1199.6","3000","1065","[""down"",""left""]","{""num_key_presses"":6,""num_perfect"":6,""num_errors"":0,""num_randdir"":0,""num_randdir_good_moves"":0,""num_whilered"":0,""num_whileblue"":0,""num_blue"":1,""num_good_moves"":6}","[421.5714133126395,421.57142761775424,0.2,421.5714133126395,421.57142761775424,101.5,421.5714133126395,421.57142761775424,202.4,421.5714133126395,421.57142761775424,307,432.8214133126395,394.07142761775424,407.6,490.3214133126395,311.57142761775424,511.6,515.3214133126395,291.57142761775424,612,464.0714133126395,326.57142761775424,712.5,256.5714133126395,594.0714276177542,816.4,135.3214133126395,670.3214276177542,917.3,121.5714133126395,676.5714276177542,1022.2,66.5714133126395,735.3214276177542,1122.7,61.57141331263951,742.8214276177542,1226.8,61.57141331263951,742.8214276177542,1327.4,61.57141331263951,742.8214276177542,1431.4,75.3214133126395,751.5714276177542,1531.5,75.3214133126395,751.5714276177542,1632.6,75.3214133126395,751.5714276177542,1737.1,75.3214133126395,751.5714276177542,1837.6,75.3214133126395,751.5714276177542,1942.6,75.3214133126395,751.5714276177542,2046.4,75.3214133126395,751.5714276177542,2147,75.3214133126395,751.5714276177542,2251.9,75.3214133126395,751.5714276177542,2357.3,75.3214133126395,751.5714276177542,2462.3,75.3214133126395,751.5714276177542,2567.3,75.3214133126395,751.5714276177542,2671.3,75.3214133126395,751.5714276177542,2772.5,75.3214133126395,751.5714276177542,2876.2,75.3214133126395,751.5714276177542,2977.1,75.3214133126395,751.5714276177542,3082.3,75.3214133126395,751.5714276177542,3182.3,75.3214133126395,751.5714276177542,3282.3,75.3214133126395,751.5714276177542,3382.4,75.3214133126395,751.5714276177542,3486.8,75.3214133126395,751.5714276177542,3587.1,75.3214133126395,751.5714276177542,3687.4,75.3214133126395,751.5714276177542,3791.3,75.3214133126395,751.5714276177542,3892.3,75.3214133126395,751.5714276177542,3996.5,75.3214133126395,751.5714276177542,4097.4,75.3214133126395,751.5714276177542,4202,75.3214133126395,751.5714276177542,4302.1,75.3214133126395,751.5714276177542,4402.2,75.3214133126395,751.5714276177542,4502.4,75.3214133126395,751.5714276177542,4606.8,75.3214133126395,751.5714276177542,4712,75.3214133126395,751.5714276177542,4817,75.3214133126395,751.5714276177542,4922.2]","[4784.5,4784.5,2470.3,2004.3,309.9,""smooth"",""down"",""down"",""good_move"",8534.2,3749.4,3399.2,4784.8,350.2,""smooth"",""left"",""left"",""good_move"",11445.4,2910.9,2595.9,8534.5,315,""smooth"",""down"",""down"",""good_move"",13651.1,2205.6,1882.2,11445.5,323.4,""smooth"",""left"",""left"",""good_move"",16322.8,2671.6,2323.6,13651.2,348,""smooth"",""down"",""down"",""good_move"",18565.7,2242.8,1919.8,16323,322.9,""smooth"",""left"",""left"",""good_move""]","",""
"3690","","<div style=""width:500px;"">
  <p>What determined the result of this run?</p>
  </div>","100","html-slider-response","15","209523","0.0-5.0-1.1","123","1","2025-07-16 18:26:30","1f75c3e559b7213887762d5229550c2b","31.21.169.6","Mozilla/5.0 (Windows NT 10.0; Win64; x64) AppleWebKit/537.36 (KHTML, like Gecko) Chrome/138.0.0.0 Safari/537.36","WebKit","Chrome","138.0.0.0","Windows","10.0","https://app.prolific.com/","en-US,en;q=0.9,nl;q=0.8","6698f8ca0354d4ef9692bf7a","683db7602f5db6a34d12d064","6877eec0c7f76931ab6d0606","1","6698f8ca0354d4ef9692bf7a","1","","2025-07-16T18:30:03.933Z","","","","","","","","","","","AttribQ","","50","","","","","","","","","","","","","","","","","","","","","","","","","","","","",""
"1983","","<div style=""width:500px;"">
  <p>How much control did you have over the ball?</p>
  </div>","100","html-slider-response","16","211507","0.0-5.0-2.1","123","1","2025-07-16 18:26:30","1f75c3e559b7213887762d5229550c2b","31.21.169.6","Mozilla/5.0 (Windows NT 10.0; Win64; x64) AppleWebKit/537.36 (KHTML, like Gecko) Chrome/138.0.0.0 Safari/537.36","WebKit","Chrome","138.0.0.0","Windows","10.0","https://app.prolific.com/","en-US,en;q=0.9,nl;q=0.8","6698f8ca0354d4ef9692bf7a","683db7602f5db6a34d12d064","6877eec0c7f76931ab6d0606","1","6698f8ca0354d4ef9692bf7a","1","","2025-07-16T18:30:05.917Z","","","","","","","","","","","ControlQ","","50","","","","","","","","","","","","","","","","","","","","","","","","","","","","",""
"2439","","<div style=""width:500px;"">
  <p>How would you describe your current emotional state?</p>
  </div>","0","html-slider-response","17","213947","0.0-5.0-3.1","123","1","2025-07-16 18:26:30","1f75c3e559b7213887762d5229550c2b","31.21.169.6","Mozilla/5.0 (Windows NT 10.0; Win64; x64) AppleWebKit/537.36 (KHTML, like Gecko) Chrome/138.0.0.0 Safari/537.36","WebKit","Chrome","138.0.0.0","Windows","10.0","https://app.prolific.com/","en-US,en;q=0.9,nl;q=0.8","6698f8ca0354d4ef9692bf7a","683db7602f5db6a34d12d064","6877eec0c7f76931ab6d0606","1","6698f8ca0354d4ef9692bf7a","1","","2025-07-16T18:30:08.357Z","","","","","","","","","","","StressQ","","50","","","","","","","","","","","","","","","","","","","","","","","","","","","","",""
"3183","","<div style=""width:500px;"">
  <p>What best describes how you currently feel?</p>
  </div>","100","html-slider-response","18","217131","0.0-5.0-4.1","123","1","2025-07-16 18:26:30","1f75c3e559b7213887762d5229550c2b","31.21.169.6","Mozilla/5.0 (Windows NT 10.0; Win64; x64) AppleWebKit/537.36 (KHTML, like Gecko) Chrome/138.0.0.0 Safari/537.36","WebKit","Chrome","138.0.0.0","Windows","10.0","https://app.prolific.com/","en-US,en;q=0.9,nl;q=0.8","6698f8ca0354d4ef9692bf7a","683db7602f5db6a34d12d064","6877eec0c7f76931ab6d0606","1","6698f8ca0354d4ef9692bf7a","1","","2025-07-16T18:30:11.541Z","","","","","","","","","","","MotivationQ","","50","","","","","","","","","","","","","","","","","","","","","","","","","","","","",""
"","","","","ctl-task-cpt","19","243266","0.0-5.0-0.2","123","1","2025-07-16 18:26:30","1f75c3e559b7213887762d5229550c2b","31.21.169.6","Mozilla/5.0 (Windows NT 10.0; Win64; x64) AppleWebKit/537.36 (KHTML, like Gecko) Chrome/138.0.0.0 Safari/537.36","WebKit","Chrome","138.0.0.0","Windows","10.0","https://app.prolific.com/","en-US,en;q=0.9,nl;q=0.8","6698f8ca0354d4ef9692bf7a","683db7602f5db6a34d12d064","6877eec0c7f76931ab6d0606","1","6698f8ca0354d4ef9692bf7a","1","","2025-07-16T18:30:37.676Z","","","","","","","","","","","","","","win-only","0","g1:NW,g2:SE","0.8","3","0","223114.1","4135.1","9136.8","23115.9","1","4","4","6","2","4","4","16","12","0.12121212121212122","1047.6","3000","955","[""down"",""right""]","{""num_key_presses"":6,""num_perfect"":5,""num_errors"":0,""num_randdir"":1,""num_randdir_good_moves"":1,""num_whilered"":0,""num_whileblue"":0,""num_blue"":0,""num_good_moves"":6}","[414.0714133126395,417.82142761775424,0.3,414.0714133126395,417.82142761775424,100.4,414.0714133126395,417.82142761775424,201.1,414.0714133126395,417.82142761775424,301.1,414.0714133126395,417.82142761775424,405.7,414.0714133126395,417.82142761775424,506.2,511.5714133126395,516.5714276177542,610.3,665.3214133126395,710.3214276177542,715.4,671.5714133126395,721.5714276177542,816.1,730.3214133126395,756.5714276177542,916.3,784.0714133126395,771.5714276177542,1020.8,784.0714133126395,771.5714276177542,1125.8,784.0714133126395,771.5714276177542,1226.1,784.0714133126395,771.5714276177542,1330.4,784.0714133126395,771.5714276177542,1430.8,784.0714133126395,771.5714276177542,1531.2,784.0714133126395,771.5714276177542,1635.4,784.0714133126395,771.5714276177542,1736.2,784.0714133126395,771.5714276177542,1840.4,784.0714133126395,771.5714276177542,1945.5,784.0714133126395,771.5714276177542,2045.9,784.0714133126395,771.5714276177542,2146,784.0714133126395,771.5714276177542,2246.1,784.0714133126395,771.5714276177542,2350.3,784.0714133126395,771.5714276177542,2451.2,784.0714133126395,771.5714276177542,2555.7,784.0714133126395,771.5714276177542,2656.2,784.0714133126395,771.5714276177542,2760.8,784.0714133126395,771.5714276177542,2861.1,784.0714133126395,771.5714276177542,2966.3,784.0714133126395,771.5714276177542,3070.6,784.0714133126395,771.5714276177542,3170.8,784.0714133126395,771.5714276177542,3270.8,784.0714133126395,771.5714276177542,3371.4,784.0714133126395,771.5714276177542,3476.6,784.0714133126395,771.5714276177542,3580.4,784.0714133126395,771.5714276177542,3680.4,784.0714133126395,771.5714276177542,3780.4,784.0714133126395,771.5714276177542,3881.2,784.0714133126395,771.5714276177542,3986.1,784.0714133126395,771.5714276177542,4086.4,784.0714133126395,771.5714276177542,4191.1,784.0714133126395,771.5714276177542,4291.2,784.0714133126395,771.5714276177542,4391.4,784.0714133126395,771.5714276177542,4495.6,784.0714133126395,771.5714276177542,4596,784.0714133126395,771.5714276177542,4700.6,784.0714133126395,771.5714276177542,4801.3,784.0714133126395,771.5714276177542,4906.1]","[1430.6,1430.6,1000,0,430.6,""smooth"",""right"",""right"",""good_move"",3851,2420.2,2038.4,1430.8,381.8,""oops"",""right"",""right"",""good_move"",5709.6,1858.4,1484,3851.2,374.4,""smooth"",""down"",""down"",""good_move"",8289.7,2579.8,2301,5709.9,278.8,""smooth"",""down"",""down"",""good_move"",11239.7,2949.9,2638.7,8289.8,311.2,""smooth"",""right"",""right"",""good_move"",13893.2,2653.4,2358.6,11239.8,294.8,""smooth"",""down"",""down"",""good_move""]","",""
"7537","","<div style=""width:500px;"">
  <p>What determined the result of this run?</p>
  </div>","89","html-slider-response","20","250804","0.0-5.0-1.2","123","1","2025-07-16 18:26:30","1f75c3e559b7213887762d5229550c2b","31.21.169.6","Mozilla/5.0 (Windows NT 10.0; Win64; x64) AppleWebKit/537.36 (KHTML, like Gecko) Chrome/138.0.0.0 Safari/537.36","WebKit","Chrome","138.0.0.0","Windows","10.0","https://app.prolific.com/","en-US,en;q=0.9,nl;q=0.8","6698f8ca0354d4ef9692bf7a","683db7602f5db6a34d12d064","6877eec0c7f76931ab6d0606","1","6698f8ca0354d4ef9692bf7a","1","","2025-07-16T18:30:45.214Z","","","","","","","","","","","AttribQ","","50","","","","","","","","","","","","","","","","","","","","","","","","","","","","",""
"8447","","<div style=""width:500px;"">
  <p>How much control did you have over the ball?</p>
  </div>","91","html-slider-response","21","259251","0.0-5.0-2.2","123","1","2025-07-16 18:26:30","1f75c3e559b7213887762d5229550c2b","31.21.169.6","Mozilla/5.0 (Windows NT 10.0; Win64; x64) AppleWebKit/537.36 (KHTML, like Gecko) Chrome/138.0.0.0 Safari/537.36","WebKit","Chrome","138.0.0.0","Windows","10.0","https://app.prolific.com/","en-US,en;q=0.9,nl;q=0.8","6698f8ca0354d4ef9692bf7a","683db7602f5db6a34d12d064","6877eec0c7f76931ab6d0606","1","6698f8ca0354d4ef9692bf7a","1","","2025-07-16T18:30:53.661Z","","","","","","","","","","","ControlQ","","50","","","","","","","","","","","","","","","","","","","","","","","","","","","","",""
"3231","","<div style=""width:500px;"">
  <p>How would you describe your current emotional state?</p>
  </div>","0","html-slider-response","22","262483","0.0-5.0-3.2","123","1","2025-07-16 18:26:30","1f75c3e559b7213887762d5229550c2b","31.21.169.6","Mozilla/5.0 (Windows NT 10.0; Win64; x64) AppleWebKit/537.36 (KHTML, like Gecko) Chrome/138.0.0.0 Safari/537.36","WebKit","Chrome","138.0.0.0","Windows","10.0","https://app.prolific.com/","en-US,en;q=0.9,nl;q=0.8","6698f8ca0354d4ef9692bf7a","683db7602f5db6a34d12d064","6877eec0c7f76931ab6d0606","1","6698f8ca0354d4ef9692bf7a","1","","2025-07-16T18:30:56.893Z","","","","","","","","","","","StressQ","","50","","","","","","","","","","","","","","","","","","","","","","","","","","","","",""
"5988","","<div style=""width:500px;"">
  <p>What best describes how you currently feel?</p>
  </div>","100","html-slider-response","23","268472","0.0-5.0-4.2","123","1","2025-07-16 18:26:30","1f75c3e559b7213887762d5229550c2b","31.21.169.6","Mozilla/5.0 (Windows NT 10.0; Win64; x64) AppleWebKit/537.36 (KHTML, like Gecko) Chrome/138.0.0.0 Safari/537.36","WebKit","Chrome","138.0.0.0","Windows","10.0","https://app.prolific.com/","en-US,en;q=0.9,nl;q=0.8","6698f8ca0354d4ef9692bf7a","683db7602f5db6a34d12d064","6877eec0c7f76931ab6d0606","1","6698f8ca0354d4ef9692bf7a","1","","2025-07-16T18:31:02.882Z","","","","","","","","","","","MotivationQ","","50","","","","","","","","","","","","","","","","","","","","","","","","","","","","",""
"","","","","ctl-task-cpt","24","320411","0.0-5.0-0.3","123","1","2025-07-16 18:26:30","1f75c3e559b7213887762d5229550c2b","31.21.169.6","Mozilla/5.0 (Windows NT 10.0; Win64; x64) AppleWebKit/537.36 (KHTML, like Gecko) Chrome/138.0.0.0 Safari/537.36","WebKit","Chrome","138.0.0.0","Windows","10.0","https://app.prolific.com/","en-US,en;q=0.9,nl;q=0.8","6698f8ca0354d4ef9692bf7a","683db7602f5db6a34d12d064","6877eec0c7f76931ab6d0606","1","6698f8ca0354d4ef9692bf7a","1","","2025-07-16T18:31:54.821Z","","","","","","","","","","","","","","win-only","0","g1:NW,g2:SE","0.7","4","0","274455","3748.9","8751.3","48921.2","1","4","8","6","2","-8","-8","8","16","0.06060606060606061","864.2","3000","-3015","[""down"",""right""]","{""num_key_presses"":7,""num_perfect"":5,""num_errors"":0,""num_randdir"":2,""num_randdir_good_moves"":1,""num_whilered"":0,""num_whileblue"":0,""num_blue"":5,""num_good_moves"":6}","[416.5714133126395,421.57142761775424,0.2,416.5714133126395,421.57142761775424,101.4,416.5714133126395,421.57142761775424,201.4,416.5714133126395,421.57142761775424,301.6,426.5714133126395,430.32142761775424,407,630.3214133126395,589.0714276177542,511.3,739.0714133126395,677.8214276177542,611.9,739.0714133126395,701.5714276177542,716.4,741.5714133126395,731.5714276177542,816.8,741.5714133126395,731.5714276177542,916.7,741.5714133126395,731.5714276177542,1021.7,741.5714133126395,731.5714276177542,1121.7,741.5714133126395,731.5714276177542,1226.5,741.5714133126395,731.5714276177542,1327.2,741.5714133126395,731.5714276177542,1431.7,741.5714133126395,731.5714276177542,1537.1,741.5714133126395,731.5714276177542,1637.5,741.5714133126395,731.5714276177542,1741.9,741.5714133126395,731.5714276177542,1842.4,741.5714133126395,731.5714276177542,1946.6,741.5714133126395,731.5714276177542,2046.7,741.5714133126395,731.5714276177542,2151.5,741.5714133126395,731.5714276177542,2251.5,741.5714133126395,731.5714276177542,2357.5,741.5714133126395,731.5714276177542,2462.4,741.5714133126395,731.5714276177542,2566.7,741.5714133126395,731.5714276177542,2672.3,741.5714133126395,731.5714276177542,2777.2,741.5714133126395,731.5714276177542,2881.6,741.5714133126395,731.5714276177542,2981.6,741.5714133126395,731.5714276177542,3081.8,741.5714133126395,731.5714276177542,3181.8,741.5714133126395,731.5714276177542,3281.8,741.5714133126395,731.5714276177542,3381.9,741.5714133126395,731.5714276177542,3487,741.5714133126395,731.5714276177542,3592,741.5714133126395,731.5714276177542,3692.1,741.5714133126395,731.5714276177542,3797.4,741.5714133126395,731.5714276177542,3901.3,741.5714133126395,731.5714276177542,4001.5,741.5714133126395,731.5714276177542,4106.3,741.5714133126395,731.5714276177542,4206.9,741.5714133126395,731.5714276177542,4311.3,741.5714133126395,731.5714276177542,4411.9,741.5714133126395,731.5714276177542,4517.2,741.5714133126395,731.5714276177542,4621.9,741.5714133126395,731.5714276177542,4726.9,741.5714133126395,731.5714276177542,4832.3,741.5714133126395,731.5714276177542,4936.5]","[1395.8,1395.8,1000,0,395.8,""smooth"",""down"",""down"",""good_move"",11930.7,10534.6,2472.2,9043.9,414.6,""oops"",""right"",""up"",""bad_move"",15264.6,3333.7,2945.8,11930.9,387.9,""smooth"",""right"",""right"",""good_move"",22055.3,6790.5,2864.9,18854.1,336.3,""smooth"",""down"",""down"",""good_move"",28992,6936.5,2940.2,25744.2,307.6,""oops"",""right"",""down"",""good_move"",31864.9,2872.8,2179.7,28992.1,693.1,""smooth"",""right"",""right"",""good_move"",37789.3,5924.2,2468.5,34989.6,331.2,""smooth"",""right"",""right"",""good_move""]","",""
"2555","","<div style=""width:500px;"">
  <p>What determined the result of this run?</p>
  </div>","0","html-slider-response","25","322967","0.0-5.0-1.3","123","1","2025-07-16 18:26:30","1f75c3e559b7213887762d5229550c2b","31.21.169.6","Mozilla/5.0 (Windows NT 10.0; Win64; x64) AppleWebKit/537.36 (KHTML, like Gecko) Chrome/138.0.0.0 Safari/537.36","WebKit","Chrome","138.0.0.0","Windows","10.0","https://app.prolific.com/","en-US,en;q=0.9,nl;q=0.8","6698f8ca0354d4ef9692bf7a","683db7602f5db6a34d12d064","6877eec0c7f76931ab6d0606","1","6698f8ca0354d4ef9692bf7a","1","","2025-07-16T18:31:57.377Z","","","","","","","","","","","AttribQ","","50","","","","","","","","","","","","","","","","","","","","","","","","","","","","",""
"4023","","<div style=""width:500px;"">
  <p>How much control did you have over the ball?</p>
  </div>","37","html-slider-response","26","326991","0.0-5.0-2.3","123","1","2025-07-16 18:26:30","1f75c3e559b7213887762d5229550c2b","31.21.169.6","Mozilla/5.0 (Windows NT 10.0; Win64; x64) AppleWebKit/537.36 (KHTML, like Gecko) Chrome/138.0.0.0 Safari/537.36","WebKit","Chrome","138.0.0.0","Windows","10.0","https://app.prolific.com/","en-US,en;q=0.9,nl;q=0.8","6698f8ca0354d4ef9692bf7a","683db7602f5db6a34d12d064","6877eec0c7f76931ab6d0606","1","6698f8ca0354d4ef9692bf7a","1","","2025-07-16T18:32:01.401Z","","","","","","","","","","","ControlQ","","50","","","","","","","","","","","","","","","","","","","","","","","","","","","","",""
"3054","","<div style=""width:500px;"">
  <p>How would you describe your current emotional state?</p>
  </div>","13","html-slider-response","27","330047","0.0-5.0-3.3","123","1","2025-07-16 18:26:30","1f75c3e559b7213887762d5229550c2b","31.21.169.6","Mozilla/5.0 (Windows NT 10.0; Win64; x64) AppleWebKit/537.36 (KHTML, like Gecko) Chrome/138.0.0.0 Safari/537.36","WebKit","Chrome","138.0.0.0","Windows","10.0","https://app.prolific.com/","en-US,en;q=0.9,nl;q=0.8","6698f8ca0354d4ef9692bf7a","683db7602f5db6a34d12d064","6877eec0c7f76931ab6d0606","1","6698f8ca0354d4ef9692bf7a","1","","2025-07-16T18:32:04.457Z","","","","","","","","","","","StressQ","","50","","","","","","","","","","","","","","","","","","","","","","","","","","","","",""
"3080","","<div style=""width:500px;"">
  <p>What best describes how you currently feel?</p>
  </div>","90","html-slider-response","28","333127","0.0-5.0-4.3","123","1","2025-07-16 18:26:30","1f75c3e559b7213887762d5229550c2b","31.21.169.6","Mozilla/5.0 (Windows NT 10.0; Win64; x64) AppleWebKit/537.36 (KHTML, like Gecko) Chrome/138.0.0.0 Safari/537.36","WebKit","Chrome","138.0.0.0","Windows","10.0","https://app.prolific.com/","en-US,en;q=0.9,nl;q=0.8","6698f8ca0354d4ef9692bf7a","683db7602f5db6a34d12d064","6877eec0c7f76931ab6d0606","1","6698f8ca0354d4ef9692bf7a","1","","2025-07-16T18:32:07.537Z","","","","","","","","","","","MotivationQ","","50","","","","","","","","","","","","","","","","","","","","","","","","","","","","",""
"","","","","ctl-task-cpt","29","352540","0.0-5.0-0.4","123","1","2025-07-16 18:26:30","1f75c3e559b7213887762d5229550c2b","31.21.169.6","Mozilla/5.0 (Windows NT 10.0; Win64; x64) AppleWebKit/537.36 (KHTML, like Gecko) Chrome/138.0.0.0 Safari/537.36","WebKit","Chrome","138.0.0.0","Windows","10.0","https://app.prolific.com/","en-US,en;q=0.9,nl;q=0.8","6698f8ca0354d4ef9692bf7a","683db7602f5db6a34d12d064","6877eec0c7f76931ab6d0606","1","6698f8ca0354d4ef9692bf7a","1","","2025-07-16T18:32:26.950Z","","","","","","","","","","","","","","win-only","2","g1:SE,g2:NW","0.6","5","0","339109.7","1238.4","6240.5","16395.7","1","4","4","6","1","1","1","9","8","0.06818181818181818","1809.1","3000","1520","[""down"",""right""]","{""num_key_presses"":4,""num_perfect"":1,""num_errors"":0,""num_randdir"":3,""num_randdir_good_moves"":3,""num_whilered"":0,""num_whileblue"":0,""num_blue"":0,""num_good_moves"":4}","[421.5714133126395,427.82142761775424,0,421.5714133126395,427.82142761775424,102.6,421.5714133126395,427.82142761775424,207.7,421.5714133126395,427.82142761775424,311.9,421.5714133126395,427.82142761775424,411.9,426.5714133126395,432.82142761775424,513.3,481.5714133126395,481.57142761775424,617.6,482.8214133126395,481.57142761775424,722.5,411.5714133126395,364.07142761775424,826.9,312.8214133126395,251.57142761775424,927.6,159.0714133126395,166.57142761775424,1031.9,115.3214133126395,141.57142761775424,1132.5,115.3214133126395,141.57142761775424,1232.5,126.5714133126395,141.57142761775424,1332.6,446.5714133126395,392.82142761775424,1437.5,740.3214133126395,699.0714276177542,1542,742.8214133126395,714.0714276177542,1642.4,746.5714133126395,737.8214276177542,1747.3,746.5714133126395,737.8214276177542,1848,746.5714133126395,737.8214276177542,1953.6,746.5714133126395,737.8214276177542,2056.8,746.5714133126395,737.8214276177542,2157.1,746.5714133126395,737.8214276177542,2262.3,746.5714133126395,737.8214276177542,2362.4,746.5714133126395,737.8214276177542,2462.6,746.5714133126395,737.8214276177542,2562.9,746.5714133126395,737.8214276177542,2667.8,746.5714133126395,737.8214276177542,2773.3,746.5714133126395,737.8214276177542,2877,746.5714133126395,737.8214276177542,2977.4,746.5714133126395,737.8214276177542,3077.8,746.5714133126395,737.8214276177542,3183.3,746.5714133126395,737.8214276177542,3283.4,746.5714133126395,737.8214276177542,3386.8,746.5714133126395,737.8214276177542,3486.8,746.5714133126395,737.8214276177542,3587.1,746.5714133126395,737.8214276177542,3687.3,746.5714133126395,737.8214276177542,3787.3,746.5714133126395,737.8214276177542,3892.6,746.5714133126395,737.8214276177542,3992.6,746.5714133126395,737.8214276177542,4097.5,746.5714133126395,737.8214276177542,4201.8,746.5714133126395,737.8214276177542,4302.5,746.5714133126395,737.8214276177542,4407.4,746.5714133126395,737.8214276177542,4507.5,746.5714133126395,737.8214276177542,4613.2,746.5714133126395,737.8214276177542,4716.8,746.5714133126395,737.8214276177542,4817.6,746.5714133126395,737.8214276177542,4922.9]","[1442.3,1442.3,1000,0,442.3,""smooth"",""right"",""right"",""good_move"",4514.8,3072.3,2633.3,1442.5,439,""oops"",""down"",""right"",""good_move"",7103,2588.1,2289.1,4514.9,299,""oops"",""down"",""down"",""good_move"",10066.9,2963.6,2641.6,7103.3,322,""oops"",""down"",""down"",""good_move""]","",""
"3239","","<div style=""width:500px;"">
  <p>What determined the result of this run?</p>
  </div>","100","html-slider-response","30","355780","0.0-5.0-1.4","123","1","2025-07-16 18:26:30","1f75c3e559b7213887762d5229550c2b","31.21.169.6","Mozilla/5.0 (Windows NT 10.0; Win64; x64) AppleWebKit/537.36 (KHTML, like Gecko) Chrome/138.0.0.0 Safari/537.36","WebKit","Chrome","138.0.0.0","Windows","10.0","https://app.prolific.com/","en-US,en;q=0.9,nl;q=0.8","6698f8ca0354d4ef9692bf7a","683db7602f5db6a34d12d064","6877eec0c7f76931ab6d0606","1","6698f8ca0354d4ef9692bf7a","1","","2025-07-16T18:32:30.190Z","","","","","","","","","","","AttribQ","","50","","","","","","","","","","","","","","","","","","","","","","","","","","","","",""
"3623","","<div style=""width:500px;"">
  <p>How much control did you have over the ball?</p>
  </div>","91","html-slider-response","31","359403","0.0-5.0-2.4","123","1","2025-07-16 18:26:30","1f75c3e559b7213887762d5229550c2b","31.21.169.6","Mozilla/5.0 (Windows NT 10.0; Win64; x64) AppleWebKit/537.36 (KHTML, like Gecko) Chrome/138.0.0.0 Safari/537.36","WebKit","Chrome","138.0.0.0","Windows","10.0","https://app.prolific.com/","en-US,en;q=0.9,nl;q=0.8","6698f8ca0354d4ef9692bf7a","683db7602f5db6a34d12d064","6877eec0c7f76931ab6d0606","1","6698f8ca0354d4ef9692bf7a","1","","2025-07-16T18:32:33.813Z","","","","","","","","","","","ControlQ","","50","","","","","","","","","","","","","","","","","","","","","","","","","","","","",""
"4591","","<div style=""width:500px;"">
  <p>How would you describe your current emotional state?</p>
  </div>","10","html-slider-response","32","363995","0.0-5.0-3.4","123","1","2025-07-16 18:26:30","1f75c3e559b7213887762d5229550c2b","31.21.169.6","Mozilla/5.0 (Windows NT 10.0; Win64; x64) AppleWebKit/537.36 (KHTML, like Gecko) Chrome/138.0.0.0 Safari/537.36","WebKit","Chrome","138.0.0.0","Windows","10.0","https://app.prolific.com/","en-US,en;q=0.9,nl;q=0.8","6698f8ca0354d4ef9692bf7a","683db7602f5db6a34d12d064","6877eec0c7f76931ab6d0606","1","6698f8ca0354d4ef9692bf7a","1","","2025-07-16T18:32:38.405Z","","","","","","","","","","","StressQ","","50","","","","","","","","","","","","","","","","","","","","","","","","","","","","",""
"6643","","<div style=""width:500px;"">
  <p>What best describes how you currently feel?</p>
  </div>","82","html-slider-response","33","370639","0.0-5.0-4.4","123","1","2025-07-16 18:26:30","1f75c3e559b7213887762d5229550c2b","31.21.169.6","Mozilla/5.0 (Windows NT 10.0; Win64; x64) AppleWebKit/537.36 (KHTML, like Gecko) Chrome/138.0.0.0 Safari/537.36","WebKit","Chrome","138.0.0.0","Windows","10.0","https://app.prolific.com/","en-US,en;q=0.9,nl;q=0.8","6698f8ca0354d4ef9692bf7a","683db7602f5db6a34d12d064","6877eec0c7f76931ab6d0606","1","6698f8ca0354d4ef9692bf7a","1","","2025-07-16T18:32:45.049Z","","","","","","","","","","","MotivationQ","","50","","","","","","","","","","","","","","","","","","","","","","","","","","","","",""
"","","","","ctl-task-cpt","34","400963","0.0-5.0-0.5","123","1","2025-07-16 18:26:30","1f75c3e559b7213887762d5229550c2b","31.21.169.6","Mozilla/5.0 (Windows NT 10.0; Win64; x64) AppleWebKit/537.36 (KHTML, like Gecko) Chrome/138.0.0.0 Safari/537.36","WebKit","Chrome","138.0.0.0","Windows","10.0","https://app.prolific.com/","en-US,en;q=0.9,nl;q=0.8","6698f8ca0354d4ef9692bf7a","683db7602f5db6a34d12d064","6877eec0c7f76931ab6d0606","1","6698f8ca0354d4ef9692bf7a","1","","2025-07-16T18:33:15.373Z","","","","","","","","","","","","","","win-only","1","g1:NE,g2:SW","0.5","6","0","376621.8","2374.4","7375.8","27305.5","1","4","8","6","1","1","1","10","9","0.07575757575757576","1143.7","3000","510","[""up"",""right""]","{""num_key_presses"":6,""num_perfect"":3,""num_errors"":0,""num_randdir"":3,""num_randdir_good_moves"":2,""num_whilered"":0,""num_whileblue"":0,""num_blue"":1,""num_good_moves"":5}","[419.0714133126395,411.57142761775424,0.2,419.0714133126395,411.57142761775424,101.3,419.0714133126395,411.57142761775424,201.8,419.0714133126395,411.57142761775424,307,419.0714133126395,411.57142761775424,411.6,425.3214133126395,407.82142761775424,515.8,551.5714133126395,329.07142761775424,615.8,729.0714133126395,146.57142761775424,716.4,729.0714133126395,139.07142761775424,820.9,735.3214133126395,109.07142761775425,921,755.3214133126395,81.57142761775425,1026.5,755.3214133126395,81.57142761775425,1131.8,755.3214133126395,81.57142761775425,1231.9,755.3214133126395,81.57142761775425,1336.3,755.3214133126395,81.57142761775425,1441.3,755.3214133126395,81.57142761775425,1541.8,755.3214133126395,81.57142761775425,1646.3,755.3214133126395,81.57142761775425,1747,755.3214133126395,81.57142761775425,1847.4,755.3214133126395,81.57142761775425,1950.8,755.3214133126395,81.57142761775425,2051.8,755.3214133126395,81.57142761775425,2156.6,755.3214133126395,81.57142761775425,2260.8,755.3214133126395,81.57142761775425,2361,755.3214133126395,81.57142761775425,2461.6,755.3214133126395,81.57142761775425,2561.6,755.3214133126395,81.57142761775425,2666.1,755.3214133126395,81.57142761775425,2767.1,755.3214133126395,81.57142761775425,2871.7,755.3214133126395,81.57142761775425,2975.8,755.3214133126395,81.57142761775425,3076.1,755.3214133126395,81.57142761775425,3181.2,755.3214133126395,81.57142761775425,3281.2,755.3214133126395,81.57142761775425,3386.2,755.3214133126395,81.57142761775425,3486.3,755.3214133126395,81.57142761775425,3591.7,755.3214133126395,81.57142761775425,3696.4,755.3214133126395,81.57142761775425,3801.7,755.3214133126395,81.57142761775425,3906.5,755.3214133126395,81.57142761775425,4011.7,755.3214133126395,81.57142761775425,4116.1,755.3214133126395,81.57142761775425,4216.3,755.3214133126395,81.57142761775425,4317.2,755.3214133126395,81.57142761775425,4417.3,755.3214133126395,81.57142761775425,4520.8,755.3214133126395,81.57142761775425,4620.9,755.3214133126395,81.57142761775425,4720.9,755.3214133126395,81.57142761775425,4821.3,755.3214133126395,81.57142761775425,4926.4]","[1409.5,1409.5,1000,0,409.5,""smooth"",""right"",""right"",""good_move"",4958.1,3548.3,3080.1,1409.9,468.1,""smooth"",""up"",""up"",""good_move"",7906,2947.7,2502.9,4958.3,444.8,""oops"",""up"",""down"",""bad_move"",10643.4,2737.1,2203.2,7906.3,533.9,""oops"",""right"",""right"",""good_move"",13275.8,2632.3,2332.3,10643.5,300,""smooth"",""up"",""up"",""good_move"",19840.9,6564.8,2542.5,16930.1,368.3,""oops"",""up"",""up"",""good_move""]","",""
"5684","","<div style=""width:500px;"">
  <p>What determined the result of this run?</p>
  </div>","75","html-slider-response","35","406647","0.0-5.0-1.5","123","1","2025-07-16 18:26:30","1f75c3e559b7213887762d5229550c2b","31.21.169.6","Mozilla/5.0 (Windows NT 10.0; Win64; x64) AppleWebKit/537.36 (KHTML, like Gecko) Chrome/138.0.0.0 Safari/537.36","WebKit","Chrome","138.0.0.0","Windows","10.0","https://app.prolific.com/","en-US,en;q=0.9,nl;q=0.8","6698f8ca0354d4ef9692bf7a","683db7602f5db6a34d12d064","6877eec0c7f76931ab6d0606","1","6698f8ca0354d4ef9692bf7a","1","","2025-07-16T18:33:21.057Z","","","","","","","","","","","AttribQ","","50","","","","","","","","","","","","","","","","","","","","","","","","","","","","",""
"3107","","<div style=""width:500px;"">
  <p>How much control did you have over the ball?</p>
  </div>","80","html-slider-response","36","409755","0.0-5.0-2.5","123","1","2025-07-16 18:26:30","1f75c3e559b7213887762d5229550c2b","31.21.169.6","Mozilla/5.0 (Windows NT 10.0; Win64; x64) AppleWebKit/537.36 (KHTML, like Gecko) Chrome/138.0.0.0 Safari/537.36","WebKit","Chrome","138.0.0.0","Windows","10.0","https://app.prolific.com/","en-US,en;q=0.9,nl;q=0.8","6698f8ca0354d4ef9692bf7a","683db7602f5db6a34d12d064","6877eec0c7f76931ab6d0606","1","6698f8ca0354d4ef9692bf7a","1","","2025-07-16T18:33:24.165Z","","","","","","","","","","","ControlQ","","50","","","","","","","","","","","","","","","","","","","","","","","","","","","","",""
"6799","","<div style=""width:500px;"">
  <p>How would you describe your current emotional state?</p>
  </div>","19","html-slider-response","37","416555","0.0-5.0-3.5","123","1","2025-07-16 18:26:30","1f75c3e559b7213887762d5229550c2b","31.21.169.6","Mozilla/5.0 (Windows NT 10.0; Win64; x64) AppleWebKit/537.36 (KHTML, like Gecko) Chrome/138.0.0.0 Safari/537.36","WebKit","Chrome","138.0.0.0","Windows","10.0","https://app.prolific.com/","en-US,en;q=0.9,nl;q=0.8","6698f8ca0354d4ef9692bf7a","683db7602f5db6a34d12d064","6877eec0c7f76931ab6d0606","1","6698f8ca0354d4ef9692bf7a","1","","2025-07-16T18:33:30.965Z","","","","","","","","","","","StressQ","","50","","","","","","","","","","","","","","","","","","","","","","","","","","","","",""
"3952","","<div style=""width:500px;"">
  <p>What best describes how you currently feel?</p>
  </div>","85","html-slider-response","38","420507","0.0-5.0-4.5","123","1","2025-07-16 18:26:30","1f75c3e559b7213887762d5229550c2b","31.21.169.6","Mozilla/5.0 (Windows NT 10.0; Win64; x64) AppleWebKit/537.36 (KHTML, like Gecko) Chrome/138.0.0.0 Safari/537.36","WebKit","Chrome","138.0.0.0","Windows","10.0","https://app.prolific.com/","en-US,en;q=0.9,nl;q=0.8","6698f8ca0354d4ef9692bf7a","683db7602f5db6a34d12d064","6877eec0c7f76931ab6d0606","1","6698f8ca0354d4ef9692bf7a","1","","2025-07-16T18:33:34.917Z","","","","","","","","","","","MotivationQ","","50","","","","","","","","","","","","","","","","","","","","","","","","","","","","",""
"","","","","ctl-task-cpt","39","449941","0.0-5.0-0.6","123","1","2025-07-16 18:26:30","1f75c3e559b7213887762d5229550c2b","31.21.169.6","Mozilla/5.0 (Windows NT 10.0; Win64; x64) AppleWebKit/537.36 (KHTML, like Gecko) Chrome/138.0.0.0 Safari/537.36","WebKit","Chrome","138.0.0.0","Windows","10.0","https://app.prolific.com/","en-US,en;q=0.9,nl;q=0.8","6698f8ca0354d4ef9692bf7a","683db7602f5db6a34d12d064","6877eec0c7f76931ab6d0606","1","6698f8ca0354d4ef9692bf7a","1","","2025-07-16T18:34:04.351Z","","","","","","","","","","","","","","win-only","2","g1:SE,g2:NW","0.4","7","0","426490.5","1181.8","6186.3","26416.1","1","4","8","6","1","-1","-1","9","10","0.06818181818181818","767.7","3000","-3015","[""down"",""right""]","{""num_key_presses"":5,""num_perfect"":1,""num_errors"":0,""num_randdir"":4,""num_randdir_good_moves"":1,""num_whilered"":0,""num_whileblue"":0,""num_blue"":1,""num_good_moves"":2}","[424.0714133126395,416.57142761775424,0.2,424.0714133126395,416.57142761775424,104.8,424.0714133126395,416.57142761775424,207.5,424.0714133126395,416.57142761775424,308.6,461.5714133126395,442.82142761775424,408.6,680.3214133126395,651.5714276177542,508.7,759.0714133126395,735.3214276177542,609.4,759.0714133126395,749.0714276177542,713.5,759.0714133126395,749.0714276177542,813.9,759.0714133126395,749.0714276177542,918.9,759.0714133126395,749.0714276177542,1019.8,759.0714133126395,749.0714276177542,1124.6,759.0714133126395,749.0714276177542,1228.4,759.0714133126395,749.0714276177542,1328.8,759.0714133126395,749.0714276177542,1434.5,759.0714133126395,749.0714276177542,1534.8,759.0714133126395,749.0714276177542,1639.6,759.0714133126395,749.0714276177542,1743.7,759.0714133126395,749.0714276177542,1844.1,759.0714133126395,749.0714276177542,1944.1,759.0714133126395,749.0714276177542,2048.4,759.0714133126395,749.0714276177542,2150,759.0714133126395,749.0714276177542,2254,759.0714133126395,749.0714276177542,2354.2,759.0714133126395,749.0714276177542,2459.9,759.0714133126395,749.0714276177542,2564.6,759.0714133126395,749.0714276177542,2670,759.0714133126395,749.0714276177542,2774.5,759.0714133126395,749.0714276177542,2878.4,759.0714133126395,749.0714276177542,2979.2,759.0714133126395,749.0714276177542,3083.4,759.0714133126395,749.0714276177542,3183.5,759.0714133126395,749.0714276177542,3283.7,759.0714133126395,749.0714276177542,3384.3,759.0714133126395,749.0714276177542,3491.5,759.0714133126395,749.0714276177542,3593.5,759.0714133126395,749.0714276177542,3693.5,759.0714133126395,749.0714276177542,3793.6,759.0714133126395,749.0714276177542,3898.8,759.0714133126395,749.0714276177542,3999.9,759.0714133126395,749.0714276177542,4104,759.0714133126395,749.0714276177542,4208.8,759.0714133126395,749.0714276177542,4313.7,759.0714133126395,749.0714276177542,4413.7,759.0714133126395,749.0714276177542,4513.8,759.0714133126395,749.0714276177542,4613.8,759.0714133126395,749.0714276177542,4714.4,759.0714133126395,749.0714276177542,4818.8,759.0714133126395,749.0714276177542,4919.9]","[1541.6,1541.6,1000,0,541.6,""oops"",""down"",""left"",""bad_move"",7895.8,6353.9,2134.2,5339.2,422.4,""oops"",""right"",""left"",""bad_move"",11257.6,3361.7,2413.2,7895.9,948.5,""oops"",""right"",""up"",""bad_move"",14328.5,3070.7,2657,11257.8,413.7,""oops"",""right"",""down"",""good_move"",17198.9,2870.1,2497.1,14328.8,373,""smooth"",""right"",""right"",""good_move""]","",""
"4049","","<div style=""width:500px;"">
  <p>What determined the result of this run?</p>
  </div>","14","html-slider-response","40","453991","0.0-5.0-1.6","123","1","2025-07-16 18:26:30","1f75c3e559b7213887762d5229550c2b","31.21.169.6","Mozilla/5.0 (Windows NT 10.0; Win64; x64) AppleWebKit/537.36 (KHTML, like Gecko) Chrome/138.0.0.0 Safari/537.36","WebKit","Chrome","138.0.0.0","Windows","10.0","https://app.prolific.com/","en-US,en;q=0.9,nl;q=0.8","6698f8ca0354d4ef9692bf7a","683db7602f5db6a34d12d064","6877eec0c7f76931ab6d0606","1","6698f8ca0354d4ef9692bf7a","1","","2025-07-16T18:34:08.401Z","","","","","","","","","","","AttribQ","","50","","","","","","","","","","","","","","","","","","","","","","","","","","","","",""
"3271","","<div style=""width:500px;"">
  <p>How much control did you have over the ball?</p>
  </div>","0","html-slider-response","41","457263","0.0-5.0-2.6","123","1","2025-07-16 18:26:30","1f75c3e559b7213887762d5229550c2b","31.21.169.6","Mozilla/5.0 (Windows NT 10.0; Win64; x64) AppleWebKit/537.36 (KHTML, like Gecko) Chrome/138.0.0.0 Safari/537.36","WebKit","Chrome","138.0.0.0","Windows","10.0","https://app.prolific.com/","en-US,en;q=0.9,nl;q=0.8","6698f8ca0354d4ef9692bf7a","683db7602f5db6a34d12d064","6877eec0c7f76931ab6d0606","1","6698f8ca0354d4ef9692bf7a","1","","2025-07-16T18:34:11.673Z","","","","","","","","","","","ControlQ","","50","","","","","","","","","","","","","","","","","","","","","","","","","","","","",""
"3287","","<div style=""width:500px;"">
  <p>How would you describe your current emotional state?</p>
  </div>","79","html-slider-response","42","460551","0.0-5.0-3.6","123","1","2025-07-16 18:26:30","1f75c3e559b7213887762d5229550c2b","31.21.169.6","Mozilla/5.0 (Windows NT 10.0; Win64; x64) AppleWebKit/537.36 (KHTML, like Gecko) Chrome/138.0.0.0 Safari/537.36","WebKit","Chrome","138.0.0.0","Windows","10.0","https://app.prolific.com/","en-US,en;q=0.9,nl;q=0.8","6698f8ca0354d4ef9692bf7a","683db7602f5db6a34d12d064","6877eec0c7f76931ab6d0606","1","6698f8ca0354d4ef9692bf7a","1","","2025-07-16T18:34:14.961Z","","","","","","","","","","","StressQ","","50","","","","","","","","","","","","","","","","","","","","","","","","","","","","",""
"5607","","<div style=""width:500px;"">
  <p>What best describes how you currently feel?</p>
  </div>","69","html-slider-response","43","466160","0.0-5.0-4.6","123","1","2025-07-16 18:26:30","1f75c3e559b7213887762d5229550c2b","31.21.169.6","Mozilla/5.0 (Windows NT 10.0; Win64; x64) AppleWebKit/537.36 (KHTML, like Gecko) Chrome/138.0.0.0 Safari/537.36","WebKit","Chrome","138.0.0.0","Windows","10.0","https://app.prolific.com/","en-US,en;q=0.9,nl;q=0.8","6698f8ca0354d4ef9692bf7a","683db7602f5db6a34d12d064","6877eec0c7f76931ab6d0606","1","6698f8ca0354d4ef9692bf7a","1","","2025-07-16T18:34:20.570Z","","","","","","","","","","","MotivationQ","","50","","","","","","","","","","","","","","","","","","","","","","","","","","","","",""
"","","","","ctl-task-cpt","44","496240","0.0-5.0-0.7","123","1","2025-07-16 18:26:30","1f75c3e559b7213887762d5229550c2b","31.21.169.6","Mozilla/5.0 (Windows NT 10.0; Win64; x64) AppleWebKit/537.36 (KHTML, like Gecko) Chrome/138.0.0.0 Safari/537.36","WebKit","Chrome","138.0.0.0","Windows","10.0","https://app.prolific.com/","en-US,en;q=0.9,nl;q=0.8","6698f8ca0354d4ef9692bf7a","683db7602f5db6a34d12d064","6877eec0c7f76931ab6d0606","1","6698f8ca0354d4ef9692bf7a","1","","2025-07-16T18:34:50.650Z","","","","","","","","","","","","","","win-only","0","g1:NW,g2:SE","0.3","8","0","472143","1045","6046.4","27060.7","1","4","4","6","1","-1","-1","8","9","0.06060606060606061","1192.8","3000","-3015","[""left"",""up""]","{""num_key_presses"":6,""num_perfect"":0,""num_errors"":0,""num_randdir"":6,""num_randdir_good_moves"":1,""num_whilered"":0,""num_whileblue"":0,""num_blue"":1,""num_good_moves"":1}","[414.0714133126395,419.07142761775424,0,414.0714133126395,419.07142761775424,100.5,414.0714133126395,419.07142761775424,205.1,420.3214133126395,426.57142761775424,305.3,532.8214133126395,530.3214276177542,405.6,716.5714133126395,657.8214276177542,505.6,631.5714133126395,586.5714276177542,605.6,386.5714133126395,346.57142761775424,710.9,207.8214133126395,220.32142761775424,816.1,172.8214133126395,169.07142761775424,916.9,119.0714133126395,116.57142761775425,1021,86.5714133126395,81.57142761775425,1126.8,85.3214133126395,77.82142761775425,1230.6,85.3214133126395,77.82142761775425,1335.4,85.3214133126395,77.82142761775425,1436.1,147.8214133126395,115.32142761775425,1541.1,330.3214133126395,241.57142761775424,1645.3,391.5714133126395,281.57142761775424,1745.9,395.3214133126395,285.32142761775424,1846.2,395.3214133126395,285.32142761775424,1950.3,395.3214133126395,285.32142761775424,2050.5,395.3214133126395,285.32142761775424,2155.8,395.3214133126395,285.32142761775424,2260.3,395.3214133126395,285.32142761775424,2360.8,395.3214133126395,285.32142761775424,2465.6,395.3214133126395,285.32142761775424,2570.2,395.3214133126395,285.32142761775424,2671.1,395.3214133126395,285.32142761775424,2775.1,395.3214133126395,285.32142761775424,2875.4,395.3214133126395,285.32142761775424,2980.3,395.3214133126395,285.32142761775424,3080.9,395.3214133126395,285.32142761775424,3186.1,395.3214133126395,285.32142761775424,3286.1,395.3214133126395,285.32142761775424,3386.1,395.3214133126395,285.32142761775424,3491.3,395.3214133126395,285.32142761775424,3595.9,395.3214133126395,285.32142761775424,3700.6,395.3214133126395,285.32142761775424,3806.4,395.3214133126395,285.32142761775424,3910.2,395.3214133126395,285.32142761775424,4011.3,395.3214133126395,285.32142761775424,4115.8,395.3214133126395,285.32142761775424,4215.9,395.3214133126395,285.32142761775424,4316.4,395.3214133126395,285.32142761775424,4420.1,395.3214133126395,285.32142761775424,4520.4,395.3214133126395,285.32142761775424,4626,395.3214133126395,285.32142761775424,4730.8,395.3214133126395,285.32142761775424,4835.4,395.3214133126395,285.32142761775424,4940.4]","[1407.5,1407.5,1000,0,407.5,""oops"",""left"",""down"",""bad_move"",4047.4,2639.6,2280.2,1407.8,359.4,""oops"",""left"",""right"",""bad_move"",9982,5934.4,2216.7,7343.8,421.5,""oops"",""up"",""down"",""bad_move"",12880.1,2897.9,2274.6,9982.2,623.3,""oops"",""left"",""down"",""bad_move"",15382.9,2502.6,1850.7,12880.3,651.9,""oops"",""down"",""right"",""bad_move"",18243.8,2860.7,2516.4,15383.2,344.2,""oops"",""right"",""left"",""good_move""]","",""
"3900","","<div style=""width:500px;"">
  <p>What determined the result of this run?</p>
  </div>","0","html-slider-response","45","500142","0.0-5.0-1.7","123","1","2025-07-16 18:26:30","1f75c3e559b7213887762d5229550c2b","31.21.169.6","Mozilla/5.0 (Windows NT 10.0; Win64; x64) AppleWebKit/537.36 (KHTML, like Gecko) Chrome/138.0.0.0 Safari/537.36","WebKit","Chrome","138.0.0.0","Windows","10.0","https://app.prolific.com/","en-US,en;q=0.9,nl;q=0.8","6698f8ca0354d4ef9692bf7a","683db7602f5db6a34d12d064","6877eec0c7f76931ab6d0606","1","6698f8ca0354d4ef9692bf7a","1","","2025-07-16T18:34:54.552Z","","","","","","","","","","","AttribQ","","50","","","","","","","","","","","","","","","","","","","","","","","","","","","","",""
"2747","","<div style=""width:500px;"">
  <p>How much control did you have over the ball?</p>
  </div>","0","html-slider-response","46","502891","0.0-5.0-2.7","123","1","2025-07-16 18:26:30","1f75c3e559b7213887762d5229550c2b","31.21.169.6","Mozilla/5.0 (Windows NT 10.0; Win64; x64) AppleWebKit/537.36 (KHTML, like Gecko) Chrome/138.0.0.0 Safari/537.36","WebKit","Chrome","138.0.0.0","Windows","10.0","https://app.prolific.com/","en-US,en;q=0.9,nl;q=0.8","6698f8ca0354d4ef9692bf7a","683db7602f5db6a34d12d064","6877eec0c7f76931ab6d0606","1","6698f8ca0354d4ef9692bf7a","1","","2025-07-16T18:34:57.301Z","","","","","","","","","","","ControlQ","","50","","","","","","","","","","","","","","","","","","","","","","","","","","","","",""
"2671","","<div style=""width:500px;"">
  <p>How would you describe your current emotional state?</p>
  </div>","100","html-slider-response","47","505563","0.0-5.0-3.7","123","1","2025-07-16 18:26:30","1f75c3e559b7213887762d5229550c2b","31.21.169.6","Mozilla/5.0 (Windows NT 10.0; Win64; x64) AppleWebKit/537.36 (KHTML, like Gecko) Chrome/138.0.0.0 Safari/537.36","WebKit","Chrome","138.0.0.0","Windows","10.0","https://app.prolific.com/","en-US,en;q=0.9,nl;q=0.8","6698f8ca0354d4ef9692bf7a","683db7602f5db6a34d12d064","6877eec0c7f76931ab6d0606","1","6698f8ca0354d4ef9692bf7a","1","","2025-07-16T18:34:59.973Z","","","","","","","","","","","StressQ","","50","","","","","","","","","","","","","","","","","","","","","","","","","","","","",""
"5231","","<div style=""width:500px;"">
  <p>What best describes how you currently feel?</p>
  </div>","46","html-slider-response","48","510795","0.0-5.0-4.7","123","1","2025-07-16 18:26:30","1f75c3e559b7213887762d5229550c2b","31.21.169.6","Mozilla/5.0 (Windows NT 10.0; Win64; x64) AppleWebKit/537.36 (KHTML, like Gecko) Chrome/138.0.0.0 Safari/537.36","WebKit","Chrome","138.0.0.0","Windows","10.0","https://app.prolific.com/","en-US,en;q=0.9,nl;q=0.8","6698f8ca0354d4ef9692bf7a","683db7602f5db6a34d12d064","6877eec0c7f76931ab6d0606","1","6698f8ca0354d4ef9692bf7a","1","","2025-07-16T18:35:05.205Z","","","","","","","","","","","MotivationQ","","50","","","","","","","","","","","","","","","","","","","","","","","","","","","","",""
"","","","","ctl-task-cpt","49","546223","0.0-5.0-0.8","123","1","2025-07-16 18:26:30","1f75c3e559b7213887762d5229550c2b","31.21.169.6","Mozilla/5.0 (Windows NT 10.0; Win64; x64) AppleWebKit/537.36 (KHTML, like Gecko) Chrome/138.0.0.0 Safari/537.36","WebKit","Chrome","138.0.0.0","Windows","10.0","https://app.prolific.com/","en-US,en;q=0.9,nl;q=0.8","6698f8ca0354d4ef9692bf7a","683db7602f5db6a34d12d064","6877eec0c7f76931ab6d0606","1","6698f8ca0354d4ef9692bf7a","1","","2025-07-16T18:35:40.634Z","","","","","","","","","","","","","","win-only","0","g1:NW,g2:SE","0.2","9","0","516777.9","917.8","5920.9","32410.7","1","4","4","6","1","-1","-1","7","8","0.05303030303030303","1200","3000","-3015","[""left"",""up""]","{""num_key_presses"":8,""num_perfect"":2,""num_errors"":0,""num_randdir"":6,""num_randdir_good_moves"":2,""num_whilered"":0,""num_whileblue"":0,""num_blue"":1,""num_good_moves"":4}","[416.5714133126395,417.82142761775424,0.1,416.5714133126395,417.82142761775424,102.5,416.5714133126395,417.82142761775424,202.6,416.5714133126395,417.82142761775424,303.4,416.5714133126395,417.82142761775424,407.3,416.5714133126395,417.82142761775424,507.3,361.5714133126395,382.82142761775424,607.5,272.8214133126395,266.57142761775424,713.5,199.0714133126395,171.57142761775424,818.2,142.8214133126395,140.32142761775424,922.4,126.5714133126395,120.32142761775425,1023.2,116.5714133126395,101.57142761775425,1127.7,116.5714133126395,101.57142761775425,1228.6,116.5714133126395,101.57142761775425,1332.7,116.5714133126395,101.57142761775425,1433.3,141.5714133126395,112.82142761775425,1538.5,547.8214133126395,219.07142761775424,1643.5,914.0714133126395,311.57142761775424,1747.8,930.3214133126395,337.82142761775424,1852.9,930.3214133126395,346.57142761775424,1958,930.3214133126395,346.57142761775424,2058.7,930.3214133126395,346.57142761775424,2163.5,930.3214133126395,346.57142761775424,2267.5,930.3214133126395,346.57142761775424,2373,930.3214133126395,346.57142761775424,2473.2,930.3214133126395,346.57142761775424,2577.5,930.3214133126395,346.57142761775424,2677.8,930.3214133126395,346.57142761775424,2778.1,930.3214133126395,346.57142761775424,2878.4,930.3214133126395,346.57142761775424,2978.4,930.3214133126395,346.57142761775424,3078.4,930.3214133126395,346.57142761775424,3182.5,930.3214133126395,346.57142761775424,3282.6,930.3214133126395,346.57142761775424,3388.4,930.3214133126395,346.57142761775424,3493.1,930.3214133126395,346.57142761775424,3593.1,930.3214133126395,346.57142761775424,3697.5,930.3214133126395,346.57142761775424,3797.7,930.3214133126395,346.57142761775424,3897.8,930.3214133126395,346.57142761775424,3998.2,930.3214133126395,346.57142761775424,4103.4,930.3214133126395,346.57142761775424,4207.6,930.3214133126395,346.57142761775424,4308.2,930.3214133126395,346.57142761775424,4408.2,930.3214133126395,346.57142761775424,4512.4,930.3214133126395,346.57142761775424,4612.8,930.3214133126395,346.57142761775424,4713,930.3214133126395,346.57142761775424,4817.6,930.3214133126395,346.57142761775424,4917.6]","[1404,1404.1,1000,0,404.1,""smooth"",""up"",""up"",""good_move"",4222.3,2818,2439.1,1404.3,378.9,""smooth"",""left"",""left"",""good_move"",7082.9,2860.4,2476.8,4222.5,383.6,""oops"",""left"",""right"",""bad_move"",9616.1,2533,2168.5,7083.1,364.5,""oops"",""up"",""right"",""bad_move"",12367.4,2751.2,2384.4,9616.2,366.8,""oops"",""left"",""up"",""good_move"",15063.9,2696.2,2438,12367.7,258.2,""oops"",""left"",""left"",""good_move"",20636.1,5572,2454.8,17859.1,322.3,""oops"",""left"",""right"",""bad_move"",23944,3307.6,2813.7,20636.4,493.9,""oops"",""right"",""right"",""bad_move""]","",""
"3204","","<div style=""width:500px;"">
  <p>What determined the result of this run?</p>
  </div>","0","html-slider-response","50","549428","0.0-5.0-1.8","123","1","2025-07-16 18:26:30","1f75c3e559b7213887762d5229550c2b","31.21.169.6","Mozilla/5.0 (Windows NT 10.0; Win64; x64) AppleWebKit/537.36 (KHTML, like Gecko) Chrome/138.0.0.0 Safari/537.36","WebKit","Chrome","138.0.0.0","Windows","10.0","https://app.prolific.com/","en-US,en;q=0.9,nl;q=0.8","6698f8ca0354d4ef9692bf7a","683db7602f5db6a34d12d064","6877eec0c7f76931ab6d0606","1","6698f8ca0354d4ef9692bf7a","1","","2025-07-16T18:35:43.839Z","","","","","","","","","","","AttribQ","","50","","","","","","","","","","","","","","","","","","","","","","","","","","","","",""
"2201","","<div style=""width:500px;"">
  <p>How much control did you have over the ball?</p>
  </div>","0","html-slider-response","51","551631","0.0-5.0-2.8","123","1","2025-07-16 18:26:30","1f75c3e559b7213887762d5229550c2b","31.21.169.6","Mozilla/5.0 (Windows NT 10.0; Win64; x64) AppleWebKit/537.36 (KHTML, like Gecko) Chrome/138.0.0.0 Safari/537.36","WebKit","Chrome","138.0.0.0","Windows","10.0","https://app.prolific.com/","en-US,en;q=0.9,nl;q=0.8","6698f8ca0354d4ef9692bf7a","683db7602f5db6a34d12d064","6877eec0c7f76931ab6d0606","1","6698f8ca0354d4ef9692bf7a","1","","2025-07-16T18:35:46.041Z","","","","","","","","","","","ControlQ","","50","","","","","","","","","","","","","","","","","","","","","","","","","","","","",""
"2375","","<div style=""width:500px;"">
  <p>How would you describe your current emotional state?</p>
  </div>","100","html-slider-response","52","554007","0.0-5.0-3.8","123","1","2025-07-16 18:26:30","1f75c3e559b7213887762d5229550c2b","31.21.169.6","Mozilla/5.0 (Windows NT 10.0; Win64; x64) AppleWebKit/537.36 (KHTML, like Gecko) Chrome/138.0.0.0 Safari/537.36","WebKit","Chrome","138.0.0.0","Windows","10.0","https://app.prolific.com/","en-US,en;q=0.9,nl;q=0.8","6698f8ca0354d4ef9692bf7a","683db7602f5db6a34d12d064","6877eec0c7f76931ab6d0606","1","6698f8ca0354d4ef9692bf7a","1","","2025-07-16T18:35:48.417Z","","","","","","","","","","","StressQ","","50","","","","","","","","","","","","","","","","","","","","","","","","","","","","",""
"3487","","<div style=""width:500px;"">
  <p>What best describes how you currently feel?</p>
  </div>","23","html-slider-response","53","557495","0.0-5.0-4.8","123","1","2025-07-16 18:26:30","1f75c3e559b7213887762d5229550c2b","31.21.169.6","Mozilla/5.0 (Windows NT 10.0; Win64; x64) AppleWebKit/537.36 (KHTML, like Gecko) Chrome/138.0.0.0 Safari/537.36","WebKit","Chrome","138.0.0.0","Windows","10.0","https://app.prolific.com/","en-US,en;q=0.9,nl;q=0.8","6698f8ca0354d4ef9692bf7a","683db7602f5db6a34d12d064","6877eec0c7f76931ab6d0606","1","6698f8ca0354d4ef9692bf7a","1","","2025-07-16T18:35:51.905Z","","","","","","","","","","","MotivationQ","","50","","","","","","","","","","","","","","","","","","","","","","","","","","","","",""
"","","","","ctl-task-cpt","54","593072","0.0-5.0-0.9","123","1","2025-07-16 18:26:30","1f75c3e559b7213887762d5229550c2b","31.21.169.6","Mozilla/5.0 (Windows NT 10.0; Win64; x64) AppleWebKit/537.36 (KHTML, like Gecko) Chrome/138.0.0.0 Safari/537.36","WebKit","Chrome","138.0.0.0","Windows","10.0","https://app.prolific.com/","en-US,en;q=0.9,nl;q=0.8","6698f8ca0354d4ef9692bf7a","683db7602f5db6a34d12d064","6877eec0c7f76931ab6d0606","1","6698f8ca0354d4ef9692bf7a","1","","2025-07-16T18:36:27.482Z","","","","","","","","","","","","","","win-only","0","g1:NW,g2:SE","0.4","10","0","563477.8","1606.5","6610.4","32560.1","1","4","8","6","1","-1","-1","6","7","0.045454545454545456","1139.5","3000","-3015","[""left"",""up""]","{""num_key_presses"":7,""num_perfect"":3,""num_errors"":0,""num_randdir"":4,""num_randdir_good_moves"":2,""num_whilered"":0,""num_whileblue"":0,""num_blue"":1,""num_good_moves"":3}","[425.3214133126395,411.57142761775424,0.1,425.3214133126395,411.57142761775424,105.3,425.3214133126395,411.57142761775424,209.4,425.3214133126395,411.57142761775424,314.3,466.5714133126395,442.82142761775424,418.8,465.3214133126395,439.07142761775424,518.9,365.3214133126395,361.57142761775424,619.5,224.0714133126395,261.57142761775424,724.4,150.3214133126395,179.07142761775424,828.7,109.0714133126395,106.57142761775425,928.9,79.0714133126395,57.82142761775425,1034.1,79.0714133126395,57.82142761775425,1138.8,79.0714133126395,57.82142761775425,1244,79.0714133126395,57.82142761775425,1344.3,79.0714133126395,57.82142761775425,1449.7,79.0714133126395,57.82142761775425,1554.7,79.0714133126395,57.82142761775425,1658.9,79.0714133126395,57.82142761775425,1759,79.0714133126395,57.82142761775425,1863.8,79.0714133126395,57.82142761775425,1964.6,79.0714133126395,57.82142761775425,2069.7,79.0714133126395,57.82142761775425,2174,79.0714133126395,57.82142761775425,2275.5,79.0714133126395,57.82142761775425,2378.9,79.0714133126395,57.82142761775425,2484.4,79.0714133126395,57.82142761775425,2584.9,79.0714133126395,57.82142761775425,2688.7,79.0714133126395,57.82142761775425,2789,79.0714133126395,57.82142761775425,2894,79.0714133126395,57.82142761775425,2994.1,79.0714133126395,57.82142761775425,3098.7,79.0714133126395,57.82142761775425,3198.9,79.0714133126395,57.82142761775425,3299.6,79.0714133126395,57.82142761775425,3403.8,79.0714133126395,57.82142761775425,3504.2,79.0714133126395,57.82142761775425,3609.5,79.0714133126395,57.82142761775425,3709.9,79.0714133126395,57.82142761775425,3814.7,79.0714133126395,57.82142761775425,3918.5,79.0714133126395,57.82142761775425,4020.1,79.0714133126395,57.82142761775425,4123.8,79.0714133126395,57.82142761775425,4229.2,79.0714133126395,57.82142761775425,4329.4,79.0714133126395,57.82142761775425,4434,79.0714133126395,57.82142761775425,4534.2,79.0714133126395,57.82142761775425,4639.3,79.0714133126395,57.82142761775425,4739.3,79.0714133126395,57.82142761775425,4839.6,79.0714133126395,57.82142761775425,4943.6]","[1400,1400,1000,0,400,""oops"",""up"",""left"",""good_move"",4215.1,2814.8,2388.6,1400.3,426.2,""oops"",""up"",""up"",""good_move"",7282.4,3067.1,2688.1,4215.3,379,""smooth"",""up"",""up"",""good_move"",10276.4,2993.8,2637.3,7282.6,356.5,""oops"",""left"",""right"",""bad_move"",17429.1,7152.5,2823.1,14250.3,355.7,""oops"",""left"",""right"",""bad_move"",20451.3,3021.9,2653.2,17429.4,368.7,""smooth"",""up"",""right"",""bad_move"",23105,2653.5,2013.6,20451.5,639.9,""smooth"",""up"",""right"",""bad_move""]","",""
"4236","","<div style=""width:500px;"">
  <p>What determined the result of this run?</p>
  </div>","0","html-slider-response","55","597310","0.0-5.0-1.9","123","1","2025-07-16 18:26:30","1f75c3e559b7213887762d5229550c2b","31.21.169.6","Mozilla/5.0 (Windows NT 10.0; Win64; x64) AppleWebKit/537.36 (KHTML, like Gecko) Chrome/138.0.0.0 Safari/537.36","WebKit","Chrome","138.0.0.0","Windows","10.0","https://app.prolific.com/","en-US,en;q=0.9,nl;q=0.8","6698f8ca0354d4ef9692bf7a","683db7602f5db6a34d12d064","6877eec0c7f76931ab6d0606","1","6698f8ca0354d4ef9692bf7a","1","","2025-07-16T18:36:31.720Z","","","","","","","","","","","AttribQ","","50","","","","","","","","","","","","","","","","","","","","","","","","","","","","",""
"2531","","<div style=""width:500px;"">
  <p>How much control did you have over the ball?</p>
  </div>","0","html-slider-response","56","599843","0.0-5.0-2.9","123","1","2025-07-16 18:26:30","1f75c3e559b7213887762d5229550c2b","31.21.169.6","Mozilla/5.0 (Windows NT 10.0; Win64; x64) AppleWebKit/537.36 (KHTML, like Gecko) Chrome/138.0.0.0 Safari/537.36","WebKit","Chrome","138.0.0.0","Windows","10.0","https://app.prolific.com/","en-US,en;q=0.9,nl;q=0.8","6698f8ca0354d4ef9692bf7a","683db7602f5db6a34d12d064","6877eec0c7f76931ab6d0606","1","6698f8ca0354d4ef9692bf7a","1","","2025-07-16T18:36:34.253Z","","","","","","","","","","","ControlQ","","50","","","","","","","","","","","","","","","","","","","","","","","","","","","","",""
"4272","","<div style=""width:500px;"">
  <p>How would you describe your current emotional state?</p>
  </div>","100","html-slider-response","57","604115","0.0-5.0-3.9","123","1","2025-07-16 18:26:30","1f75c3e559b7213887762d5229550c2b","31.21.169.6","Mozilla/5.0 (Windows NT 10.0; Win64; x64) AppleWebKit/537.36 (KHTML, like Gecko) Chrome/138.0.0.0 Safari/537.36","WebKit","Chrome","138.0.0.0","Windows","10.0","https://app.prolific.com/","en-US,en;q=0.9,nl;q=0.8","6698f8ca0354d4ef9692bf7a","683db7602f5db6a34d12d064","6877eec0c7f76931ab6d0606","1","6698f8ca0354d4ef9692bf7a","1","","2025-07-16T18:36:38.526Z","","","","","","","","","","","StressQ","","50","","","","","","","","","","","","","","","","","","","","","","","","","","","","",""
"2975","","<div style=""width:500px;"">
  <p>What best describes how you currently feel?</p>
  </div>","22","html-slider-response","58","607091","0.0-5.0-4.9","123","1","2025-07-16 18:26:30","1f75c3e559b7213887762d5229550c2b","31.21.169.6","Mozilla/5.0 (Windows NT 10.0; Win64; x64) AppleWebKit/537.36 (KHTML, like Gecko) Chrome/138.0.0.0 Safari/537.36","WebKit","Chrome","138.0.0.0","Windows","10.0","https://app.prolific.com/","en-US,en;q=0.9,nl;q=0.8","6698f8ca0354d4ef9692bf7a","683db7602f5db6a34d12d064","6877eec0c7f76931ab6d0606","1","6698f8ca0354d4ef9692bf7a","1","","2025-07-16T18:36:41.501Z","","","","","","","","","","","MotivationQ","","50","","","","","","","","","","","","","","","","","","","","","","","","","","","","",""
"","","","","ctl-task-cpt","59","639469","0.0-5.0-0.10","123","1","2025-07-16 18:26:30","1f75c3e559b7213887762d5229550c2b","31.21.169.6","Mozilla/5.0 (Windows NT 10.0; Win64; x64) AppleWebKit/537.36 (KHTML, like Gecko) Chrome/138.0.0.0 Safari/537.36","WebKit","Chrome","138.0.0.0","Windows","10.0","https://app.prolific.com/","en-US,en;q=0.9,nl;q=0.8","6698f8ca0354d4ef9692bf7a","683db7602f5db6a34d12d064","6877eec0c7f76931ab6d0606","1","6698f8ca0354d4ef9692bf7a","1","","2025-07-16T18:37:13.879Z","","","","","","","","","","","","","","win-only","1","g1:NE,g2:SW","0.5","11","0","613073.7","2538.4","7540.5","29360.2","1","4","4","6","2","-4","-4","2","6","0.015151515151515152","1047.9","3000","-3015","[""down"",""left""]","{""num_key_presses"":7,""num_perfect"":3,""num_errors"":0,""num_randdir"":4,""num_randdir_good_moves"":2,""num_whilered"":0,""num_whileblue"":0,""num_blue"":1,""num_good_moves"":5}","[416.5714133126395,414.07142761775424,0.1,416.5714133126395,414.07142761775424,101.9,416.5714133126395,414.07142761775424,202.3,416.5714133126395,414.07142761775424,302.9,416.5714133126395,414.07142761775424,406.8,382.8214133126395,452.82142761775424,507.1,246.5714133126395,586.5714276177542,607.1,189.0714133126395,657.8214276177542,712.5,145.3214133126395,709.0714276177542,816.9,121.5714133126395,720.3214276177542,918.3,75.3214133126395,737.8214276177542,1018.5,75.3214133126395,737.8214276177542,1121.8,75.3214133126395,737.8214276177542,1222,169.0714133126395,709.0714276177542,1327.3,556.5714133126395,610.3214276177542,1432.5,696.5714133126395,606.5714276177542,1537.4,696.5714133126395,606.5714276177542,1641.9,696.5714133126395,606.5714276177542,1742.5,696.5714133126395,606.5714276177542,1847.4,696.5714133126395,606.5714276177542,1948.1,696.5714133126395,606.5714276177542,2052.8,696.5714133126395,606.5714276177542,2156.8,696.5714133126395,606.5714276177542,2257.1,696.5714133126395,606.5714276177542,2357.6,696.5714133126395,606.5714276177542,2458.1,696.5714133126395,606.5714276177542,2562.5,696.5714133126395,606.5714276177542,2667,696.5714133126395,606.5714276177542,2767,696.5714133126395,606.5714276177542,2868.6,696.5714133126395,606.5714276177542,2972.6,696.5714133126395,606.5714276177542,3072.6,696.5714133126395,606.5714276177542,3178.3,696.5714133126395,606.5714276177542,3282.9,696.5714133126395,606.5714276177542,3387.7,696.5714133126395,606.5714276177542,3492.5,696.5714133126395,606.5714276177542,3597,696.5714133126395,606.5714276177542,3697.4,696.5714133126395,606.5714276177542,3802.2,696.5714133126395,606.5714276177542,3902.5,696.5714133126395,606.5714276177542,4003.2,696.5714133126395,606.5714276177542,4107.1,696.5714133126395,606.5714276177542,4212.3,696.5714133126395,606.5714276177542,4312.7,696.5714133126395,606.5714276177542,4417.9,696.5714133126395,606.5714276177542,4522.7,696.5714133126395,606.5714276177542,4622.8,696.5714133126395,606.5714276177542,4726.9,696.5714133126395,606.5714276177542,4828.3,696.5714133126395,606.5714276177542,4932.4]","[1434.5,1434.5,1000,0,434.5,""smooth"",""down"",""down"",""good_move"",3950.6,2515.7,2128.6,1434.9,387.1,""oops"",""down"",""right"",""bad_move"",6868.5,2917.5,2575.9,3951,341.6,""oops"",""down"",""down"",""good_move"",10013,3144.3,2759.3,6868.7,385,""smooth"",""down"",""down"",""good_move"",12317.2,2304.1,1912.7,10013.1,391.4,""oops"",""left"",""up"",""bad_move"",14526.3,2208.9,1902.1,12317.4,306.8,""smooth"",""left"",""left"",""good_move"",19571.8,5045.2,2005.9,17170.4,395.5,""oops"",""left"",""down"",""good_move""]","",""
"3763","","<div style=""width:500px;"">
  <p>What determined the result of this run?</p>
  </div>","0","html-slider-response","60","643232","0.0-5.0-1.10","123","1","2025-07-16 18:26:30","1f75c3e559b7213887762d5229550c2b","31.21.169.6","Mozilla/5.0 (Windows NT 10.0; Win64; x64) AppleWebKit/537.36 (KHTML, like Gecko) Chrome/138.0.0.0 Safari/537.36","WebKit","Chrome","138.0.0.0","Windows","10.0","https://app.prolific.com/","en-US,en;q=0.9,nl;q=0.8","6698f8ca0354d4ef9692bf7a","683db7602f5db6a34d12d064","6877eec0c7f76931ab6d0606","1","6698f8ca0354d4ef9692bf7a","1","","2025-07-16T18:37:17.642Z","","","","","","","","","","","AttribQ","","50","","","","","","","","","","","","","","","","","","","","","","","","","","","","",""
"2639","","<div style=""width:500px;"">
  <p>How much control did you have over the ball?</p>
  </div>","0","html-slider-response","61","645872","0.0-5.0-2.10","123","1","2025-07-16 18:26:30","1f75c3e559b7213887762d5229550c2b","31.21.169.6","Mozilla/5.0 (Windows NT 10.0; Win64; x64) AppleWebKit/537.36 (KHTML, like Gecko) Chrome/138.0.0.0 Safari/537.36","WebKit","Chrome","138.0.0.0","Windows","10.0","https://app.prolific.com/","en-US,en;q=0.9,nl;q=0.8","6698f8ca0354d4ef9692bf7a","683db7602f5db6a34d12d064","6877eec0c7f76931ab6d0606","1","6698f8ca0354d4ef9692bf7a","1","","2025-07-16T18:37:20.282Z","","","","","","","","","","","ControlQ","","50","","","","","","","","","","","","","","","","","","","","","","","","","","","","",""
"2694","","<div style=""width:500px;"">
  <p>How would you describe your current emotional state?</p>
  </div>","100","html-slider-response","62","648567","0.0-5.0-3.10","123","1","2025-07-16 18:26:30","1f75c3e559b7213887762d5229550c2b","31.21.169.6","Mozilla/5.0 (Windows NT 10.0; Win64; x64) AppleWebKit/537.36 (KHTML, like Gecko) Chrome/138.0.0.0 Safari/537.36","WebKit","Chrome","138.0.0.0","Windows","10.0","https://app.prolific.com/","en-US,en;q=0.9,nl;q=0.8","6698f8ca0354d4ef9692bf7a","683db7602f5db6a34d12d064","6877eec0c7f76931ab6d0606","1","6698f8ca0354d4ef9692bf7a","1","","2025-07-16T18:37:22.977Z","","","","","","","","","","","StressQ","","50","","","","","","","","","","","","","","","","","","","","","","","","","","","","",""
"4279","","<div style=""width:500px;"">
  <p>What best describes how you currently feel?</p>
  </div>","19","html-slider-response","63","652847","0.0-5.0-4.10","123","1","2025-07-16 18:26:30","1f75c3e559b7213887762d5229550c2b","31.21.169.6","Mozilla/5.0 (Windows NT 10.0; Win64; x64) AppleWebKit/537.36 (KHTML, like Gecko) Chrome/138.0.0.0 Safari/537.36","WebKit","Chrome","138.0.0.0","Windows","10.0","https://app.prolific.com/","en-US,en;q=0.9,nl;q=0.8","6698f8ca0354d4ef9692bf7a","683db7602f5db6a34d12d064","6877eec0c7f76931ab6d0606","1","6698f8ca0354d4ef9692bf7a","1","","2025-07-16T18:37:27.257Z","","","","","","","","","","","MotivationQ","","50","","","","","","","","","","","","","","","","","","","","","","","","","","","","",""
"","","","","ctl-task-cpt","64","682687","0.0-5.0-0.11","123","1","2025-07-16 18:26:30","1f75c3e559b7213887762d5229550c2b","31.21.169.6","Mozilla/5.0 (Windows NT 10.0; Win64; x64) AppleWebKit/537.36 (KHTML, like Gecko) Chrome/138.0.0.0 Safari/537.36","WebKit","Chrome","138.0.0.0","Windows","10.0","https://app.prolific.com/","en-US,en;q=0.9,nl;q=0.8","6698f8ca0354d4ef9692bf7a","683db7602f5db6a34d12d064","6877eec0c7f76931ab6d0606","1","6698f8ca0354d4ef9692bf7a","1","","2025-07-16T18:37:57.097Z","","","","","","","","","","","","","","win-only","1","g1:NE,g2:SW","0.6","12","0","658829.6","1126.4","6131.6","26821.3","1","4","8","6","1","1","1","3","2","0.022727272727272728","1208.4","3000","445","[""up"",""right""]","{""num_key_presses"":6,""num_perfect"":4,""num_errors"":0,""num_randdir"":2,""num_randdir_good_moves"":1,""num_whilered"":0,""num_whileblue"":0,""num_blue"":2,""num_good_moves"":5}","[420.3214133126395,414.07142761775424,0.2,420.3214133126395,414.07142761775424,104.3,420.3214133126395,414.07142761775424,204.4,420.3214133126395,414.07142761775424,309.7,420.3214133126395,414.07142761775424,410.1,420.3214133126395,414.07142761775424,514.4,420.3214133126395,414.07142761775424,614.9,420.3214133126395,414.07142761775424,718.9,426.5714133126395,411.57142761775424,819.2,611.5714133126395,204.07142761775424,919.3,696.5714133126395,100.32142761775425,1019.8,726.5714133126395,81.57142761775425,1124.4,726.5714133126395,81.57142761775425,1229.1,726.5714133126395,81.57142761775425,1329.8,726.5714133126395,81.57142761775425,1434.2,726.5714133126395,81.57142761775425,1534.2,835.3214133126395,111.57142761775425,1639.3,951.5714133126395,186.57142761775424,1744.4,961.5714133126395,200.32142761775424,1844.9,964.0714133126395,202.82142761775424,1949.6,964.0714133126395,202.82142761775424,2055.1,964.0714133126395,202.82142761775424,2159.5,964.0714133126395,202.82142761775424,2259.6,964.0714133126395,202.82142761775424,2364.3,964.0714133126395,202.82142761775424,2469.7,964.0714133126395,202.82142761775424,2573.8,964.0714133126395,202.82142761775424,2674.1,964.0714133126395,202.82142761775424,2774.4,964.0714133126395,202.82142761775424,2879.5,964.0714133126395,202.82142761775424,2979.7,964.0714133126395,202.82142761775424,3083.9,964.0714133126395,202.82142761775424,3184.7,964.0714133126395,202.82142761775424,3289.8,964.0714133126395,202.82142761775424,3394.5,964.0714133126395,202.82142761775424,3494.6,964.0714133126395,202.82142761775424,3598.9,964.0714133126395,202.82142761775424,3699.3,964.0714133126395,202.82142761775424,3804,964.0714133126395,202.82142761775424,3904.2,964.0714133126395,202.82142761775424,4009.5,964.0714133126395,202.82142761775424,4114,964.0714133126395,202.82142761775424,4214.4,964.0714133126395,202.82142761775424,4318.7,964.0714133126395,202.82142761775424,4419.3,964.0714133126395,202.82142761775424,4519.6,964.0714133126395,202.82142761775424,4623.8,964.0714133126395,202.82142761775424,4724.6,964.0714133126395,202.82142761775424,4824.7,964.0714133126395,202.82142761775424,4924.8]","[7797.7,7797.7,2349.2,4934.4,514.1,""smooth"",""right"",""right"",""good_move"",10119.4,2321.4,1803.4,7798,518,""oops"",""right"",""down"",""bad_move"",13523.8,3404.2,2916.2,10119.6,488,""smooth"",""up"",""up"",""good_move"",15571.8,2047.8,1676.7,13524,371.2,""smooth"",""up"",""up"",""good_move"",18115.1,2543.2,2106.1,15571.9,437.1,""oops"",""right"",""up"",""good_move"",20598.8,2483.6,2171.5,18115.2,312.1,""smooth"",""right"",""right"",""good_move""]","",""
"5158","","<div style=""width:500px;"">
  <p>What determined the result of this run?</p>
  </div>","25","html-slider-response","65","687846","0.0-5.0-1.11","123","1","2025-07-16 18:26:30","1f75c3e559b7213887762d5229550c2b","31.21.169.6","Mozilla/5.0 (Windows NT 10.0; Win64; x64) AppleWebKit/537.36 (KHTML, like Gecko) Chrome/138.0.0.0 Safari/537.36","WebKit","Chrome","138.0.0.0","Windows","10.0","https://app.prolific.com/","en-US,en;q=0.9,nl;q=0.8","6698f8ca0354d4ef9692bf7a","683db7602f5db6a34d12d064","6877eec0c7f76931ab6d0606","1","6698f8ca0354d4ef9692bf7a","1","","2025-07-16T18:38:02.256Z","","","","","","","","","","","AttribQ","","50","","","","","","","","","","","","","","","","","","","","","","","","","","","","",""
"5154","","<div style=""width:500px;"">
  <p>How much control did you have over the ball?</p>
  </div>","77","html-slider-response","66","693003","0.0-5.0-2.11","123","1","2025-07-16 18:26:30","1f75c3e559b7213887762d5229550c2b","31.21.169.6","Mozilla/5.0 (Windows NT 10.0; Win64; x64) AppleWebKit/537.36 (KHTML, like Gecko) Chrome/138.0.0.0 Safari/537.36","WebKit","Chrome","138.0.0.0","Windows","10.0","https://app.prolific.com/","en-US,en;q=0.9,nl;q=0.8","6698f8ca0354d4ef9692bf7a","683db7602f5db6a34d12d064","6877eec0c7f76931ab6d0606","1","6698f8ca0354d4ef9692bf7a","1","","2025-07-16T18:38:07.413Z","","","","","","","","","","","ControlQ","","50","","","","","","","","","","","","","","","","","","","","","","","","","","","","",""
"3529","","<div style=""width:500px;"">
  <p>How would you describe your current emotional state?</p>
  </div>","62","html-slider-response","67","696533","0.0-5.0-3.11","123","1","2025-07-16 18:26:30","1f75c3e559b7213887762d5229550c2b","31.21.169.6","Mozilla/5.0 (Windows NT 10.0; Win64; x64) AppleWebKit/537.36 (KHTML, like Gecko) Chrome/138.0.0.0 Safari/537.36","WebKit","Chrome","138.0.0.0","Windows","10.0","https://app.prolific.com/","en-US,en;q=0.9,nl;q=0.8","6698f8ca0354d4ef9692bf7a","683db7602f5db6a34d12d064","6877eec0c7f76931ab6d0606","1","6698f8ca0354d4ef9692bf7a","1","","2025-07-16T18:38:10.943Z","","","","","","","","","","","StressQ","","50","","","","","","","","","","","","","","","","","","","","","","","","","","","","",""
"4907","","<div style=""width:500px;"">
  <p>What best describes how you currently feel?</p>
  </div>","41","html-slider-response","68","701443","0.0-5.0-4.11","123","1","2025-07-16 18:26:30","1f75c3e559b7213887762d5229550c2b","31.21.169.6","Mozilla/5.0 (Windows NT 10.0; Win64; x64) AppleWebKit/537.36 (KHTML, like Gecko) Chrome/138.0.0.0 Safari/537.36","WebKit","Chrome","138.0.0.0","Windows","10.0","https://app.prolific.com/","en-US,en;q=0.9,nl;q=0.8","6698f8ca0354d4ef9692bf7a","683db7602f5db6a34d12d064","6877eec0c7f76931ab6d0606","1","6698f8ca0354d4ef9692bf7a","1","","2025-07-16T18:38:15.853Z","","","","","","","","","","","MotivationQ","","50","","","","","","","","","","","","","","","","","","","","","","","","","","","","",""
"","","","","ctl-task-cpt","69","721387","0.0-5.0-0.12","123","1","2025-07-16 18:26:30","1f75c3e559b7213887762d5229550c2b","31.21.169.6","Mozilla/5.0 (Windows NT 10.0; Win64; x64) AppleWebKit/537.36 (KHTML, like Gecko) Chrome/138.0.0.0 Safari/537.36","WebKit","Chrome","138.0.0.0","Windows","10.0","https://app.prolific.com/","en-US,en;q=0.9,nl;q=0.8","6698f8ca0354d4ef9692bf7a","683db7602f5db6a34d12d064","6877eec0c7f76931ab6d0606","1","6698f8ca0354d4ef9692bf7a","1","","2025-07-16T18:38:35.797Z","","","","","","","","","","","","","","win-only","1","g1:NE,g2:SW","0.7","13","0","707425","1358.7","6361","16926.4","1","4","4","6","1","1","1","4","3","0.030303030303030304","1048.4","3000","1420","[""up"",""right""]","{""num_key_presses"":4,""num_perfect"":3,""num_errors"":0,""num_randdir"":1,""num_randdir_good_moves"":1,""num_whilered"":0,""num_whileblue"":0,""num_blue"":0,""num_good_moves"":4}","[425.3214133126395,416.57142761775424,0.3,425.3214133126395,416.57142761775424,101.8,425.3214133126395,416.57142761775424,201.8,425.3214133126395,416.57142761775424,301.9,425.3214133126395,416.57142761775424,402.8,585.3214133126395,286.57142761775424,508.1,632.8214133126395,201.57142761775424,611.7,652.8214133126395,160.32142761775424,712.1,674.0714133126395,131.57142761775424,816.9,699.0714133126395,121.57142761775425,918,716.5714133126395,111.57142761775425,1022,716.5714133126395,111.57142761775425,1122.7,716.5714133126395,111.57142761775425,1227.2,726.5714133126395,125.32142761775425,1332.1,785.3214133126395,196.57142761775424,1432.4,885.3214133126395,337.82142761775424,1532.7,934.0714133126395,431.57142761775424,1637.9,954.0714133126395,450.32142761775424,1742.2,954.0714133126395,450.32142761775424,1847.3,954.0714133126395,450.32142761775424,1947.8,954.0714133126395,450.32142761775424,2052.1,954.0714133126395,450.32142761775424,2152.8,954.0714133126395,450.32142761775424,2257.5,954.0714133126395,450.32142761775424,2361.7,954.0714133126395,450.32142761775424,2462.7,954.0714133126395,450.32142761775424,2568.1,954.0714133126395,450.32142761775424,2671.7,954.0714133126395,450.32142761775424,2771.7,954.0714133126395,450.32142761775424,2871.7,954.0714133126395,450.32142761775424,2971.7,954.0714133126395,450.32142761775424,3077.4,954.0714133126395,450.32142761775424,3178.4,954.0714133126395,450.32142761775424,3282.2,954.0714133126395,450.32142761775424,3387,954.0714133126395,450.32142761775424,3487.7,954.0714133126395,450.32142761775424,3591.5,954.0714133126395,450.32142761775424,3692.6,954.0714133126395,450.32142761775424,3792.9,954.0714133126395,450.32142761775424,3896.7,954.0714133126395,450.32142761775424,3998,954.0714133126395,450.32142761775424,4098.3,954.0714133126395,450.32142761775424,4202.7,954.0714133126395,450.32142761775424,4307.5,954.0714133126395,450.32142761775424,4411.5,954.0714133126395,450.32142761775424,4512.6,954.0714133126395,450.32142761775424,4612.6,954.0714133126395,450.32142761775424,4717.7,954.0714133126395,450.32142761775424,4821.7,954.0714133126395,450.32142761775424,4922.3]","[1504.4,1504.4,1000,0,504.4,""smooth"",""right"",""right"",""good_move"",4735.3,3230.7,2908.4,1504.6,322.3,""oops"",""up"",""right"",""good_move"",7523.6,2788.1,2348.1,4735.5,440,""smooth"",""up"",""up"",""good_move"",10475.2,2951.3,2619.8,7523.9,331.5,""smooth"",""up"",""up"",""good_move""]","",""
"5438","","<div style=""width:500px;"">
  <p>What determined the result of this run?</p>
  </div>","0","html-slider-response","70","726826","0.0-5.0-1.12","123","1","2025-07-16 18:26:30","1f75c3e559b7213887762d5229550c2b","31.21.169.6","Mozilla/5.0 (Windows NT 10.0; Win64; x64) AppleWebKit/537.36 (KHTML, like Gecko) Chrome/138.0.0.0 Safari/537.36","WebKit","Chrome","138.0.0.0","Windows","10.0","https://app.prolific.com/","en-US,en;q=0.9,nl;q=0.8","6698f8ca0354d4ef9692bf7a","683db7602f5db6a34d12d064","6877eec0c7f76931ab6d0606","1","6698f8ca0354d4ef9692bf7a","1","","2025-07-16T18:38:41.237Z","","","","","","","","","","","AttribQ","","50","","","","","","","","","","","","","","","","","","","","","","","","","","","","",""
"4028","","<div style=""width:500px;"">
  <p>How much control did you have over the ball?</p>
  </div>","100","html-slider-response","71","730858","0.0-5.0-2.12","123","1","2025-07-16 18:26:30","1f75c3e559b7213887762d5229550c2b","31.21.169.6","Mozilla/5.0 (Windows NT 10.0; Win64; x64) AppleWebKit/537.36 (KHTML, like Gecko) Chrome/138.0.0.0 Safari/537.36","WebKit","Chrome","138.0.0.0","Windows","10.0","https://app.prolific.com/","en-US,en;q=0.9,nl;q=0.8","6698f8ca0354d4ef9692bf7a","683db7602f5db6a34d12d064","6877eec0c7f76931ab6d0606","1","6698f8ca0354d4ef9692bf7a","1","","2025-07-16T18:38:45.268Z","","","","","","","","","","","ControlQ","","50","","","","","","","","","","","","","","","","","","","","","","","","","","","","",""
"3947","","<div style=""width:500px;"">
  <p>How would you describe your current emotional state?</p>
  </div>","31","html-slider-response","72","734807","0.0-5.0-3.12","123","1","2025-07-16 18:26:30","1f75c3e559b7213887762d5229550c2b","31.21.169.6","Mozilla/5.0 (Windows NT 10.0; Win64; x64) AppleWebKit/537.36 (KHTML, like Gecko) Chrome/138.0.0.0 Safari/537.36","WebKit","Chrome","138.0.0.0","Windows","10.0","https://app.prolific.com/","en-US,en;q=0.9,nl;q=0.8","6698f8ca0354d4ef9692bf7a","683db7602f5db6a34d12d064","6877eec0c7f76931ab6d0606","1","6698f8ca0354d4ef9692bf7a","1","","2025-07-16T18:38:49.217Z","","","","","","","","","","","StressQ","","50","","","","","","","","","","","","","","","","","","","","","","","","","","","","",""
"5458","","<div style=""width:500px;"">
  <p>What best describes how you currently feel?</p>
  </div>","61","html-slider-response","73","740265","0.0-5.0-4.12","123","1","2025-07-16 18:26:30","1f75c3e559b7213887762d5229550c2b","31.21.169.6","Mozilla/5.0 (Windows NT 10.0; Win64; x64) AppleWebKit/537.36 (KHTML, like Gecko) Chrome/138.0.0.0 Safari/537.36","WebKit","Chrome","138.0.0.0","Windows","10.0","https://app.prolific.com/","en-US,en;q=0.9,nl;q=0.8","6698f8ca0354d4ef9692bf7a","683db7602f5db6a34d12d064","6877eec0c7f76931ab6d0606","1","6698f8ca0354d4ef9692bf7a","1","","2025-07-16T18:38:54.675Z","","","","","","","","","","","MotivationQ","","50","","","","","","","","","","","","","","","","","","","","","","","","","","","","",""
"","","","","ctl-task-cpt","74","765257","0.0-5.0-0.13","123","1","2025-07-16 18:26:30","1f75c3e559b7213887762d5229550c2b","31.21.169.6","Mozilla/5.0 (Windows NT 10.0; Win64; x64) AppleWebKit/537.36 (KHTML, like Gecko) Chrome/138.0.0.0 Safari/537.36","WebKit","Chrome","138.0.0.0","Windows","10.0","https://app.prolific.com/","en-US,en;q=0.9,nl;q=0.8","6698f8ca0354d4ef9692bf7a","683db7602f5db6a34d12d064","6877eec0c7f76931ab6d0606","1","6698f8ca0354d4ef9692bf7a","1","","2025-07-16T18:39:19.667Z","","","","","","","","","","","","","","win-only","1","g1:NE,g2:SW","0.8","14","0","746250.3","1046","6051.1","21971.2","1","4","8","6","1","1","1","5","4","0.03787878787878788","752.1","3000","810","[""up"",""right""]","{""num_key_presses"":6,""num_perfect"":4,""num_errors"":0,""num_randdir"":2,""num_randdir_good_moves"":1,""num_whilered"":0,""num_whileblue"":0,""num_blue"":0,""num_good_moves"":5}","[412.8214133126395,421.57142761775424,0.1,412.8214133126395,421.57142761775424,100.1,412.8214133126395,421.57142761775424,200.3,421.5714133126395,416.57142761775424,305.1,601.5714133126395,277.82142761775424,405.3,766.5714133126395,145.32142761775424,506.2,821.5714133126395,96.57142761775425,610.2,826.5714133126395,86.57142761775425,710.6,826.5714133126395,86.57142761775425,815,826.5714133126395,86.57142761775425,919.6,826.5714133126395,86.57142761775425,1020.2,876.5714133126395,117.82142761775425,1121,975.3214133126395,200.32142761775424,1221,980.3214133126395,206.57142761775424,1327.1,981.5714133126395,209.07142761775424,1429.8,981.5714133126395,209.07142761775424,1531.4,981.5714133126395,209.07142761775424,1635.9,981.5714133126395,209.07142761775424,1740.4,981.5714133126395,209.07142761775424,1840.9,981.5714133126395,209.07142761775424,1941.5,981.5714133126395,209.07142761775424,2045.2,981.5714133126395,209.07142761775424,2149.8,981.5714133126395,209.07142761775424,2250.1,981.5714133126395,209.07142761775424,2355.1,981.5714133126395,209.07142761775424,2461.1,981.5714133126395,209.07142761775424,2565.2,981.5714133126395,209.07142761775424,2666.5,981.5714133126395,209.07142761775424,2770.3,981.5714133126395,209.07142761775424,2870.6,981.5714133126395,209.07142761775424,2974.8,981.5714133126395,209.07142761775424,3080.8,981.5714133126395,209.07142761775424,3185.6,981.5714133126395,209.07142761775424,3290.2,981.5714133126395,209.07142761775424,3395.4,981.5714133126395,209.07142761775424,3500.9,981.5714133126395,209.07142761775424,3605.2,981.5714133126395,209.07142761775424,3710.7,981.5714133126395,209.07142761775424,3814.3,981.5714133126395,209.07142761775424,3914.3,981.5714133126395,209.07142761775424,4014.7,981.5714133126395,209.07142761775424,4114.8,981.5714133126395,209.07142761775424,4220.5,981.5714133126395,209.07142761775424,4326.8,981.5714133126395,209.07142761775424,4429.8,981.5714133126395,209.07142761775424,4529.8,981.5714133126395,209.07142761775424,4634.9,981.5714133126395,209.07142761775424,4736,981.5714133126395,209.07142761775424,4839.7,981.5714133126395,209.07142761775424,4940.8]","[1430.2,1430.2,1000,0,430.2,""smooth"",""right"",""right"",""good_move"",4688.6,3258.1,2867.5,1430.5,390.6,""smooth"",""up"",""up"",""good_move"",7102.1,2413.2,2068.8,4688.9,344.4,""oops"",""right"",""left"",""bad_move"",10357.2,3254.8,2905.7,7102.4,349.1,""oops"",""right"",""right"",""good_move"",13245.2,2887.7,2553.8,10357.5,333.9,""smooth"",""up"",""up"",""good_move"",15832.5,2586.9,2221.5,13245.6,365.4,""smooth"",""right"",""right"",""good_move""]","",""
"3446","","<div style=""width:500px;"">
  <p>What determined the result of this run?</p>
  </div>","76","html-slider-response","75","768705","0.0-5.0-1.13","123","1","2025-07-16 18:26:30","1f75c3e559b7213887762d5229550c2b","31.21.169.6","Mozilla/5.0 (Windows NT 10.0; Win64; x64) AppleWebKit/537.36 (KHTML, like Gecko) Chrome/138.0.0.0 Safari/537.36","WebKit","Chrome","138.0.0.0","Windows","10.0","https://app.prolific.com/","en-US,en;q=0.9,nl;q=0.8","6698f8ca0354d4ef9692bf7a","683db7602f5db6a34d12d064","6877eec0c7f76931ab6d0606","1","6698f8ca0354d4ef9692bf7a","1","","2025-07-16T18:39:23.115Z","","","","","","","","","","","AttribQ","","50","","","","","","","","","","","","","","","","","","","","","","","","","","","","",""
"2896","","<div style=""width:500px;"">
  <p>How much control did you have over the ball?</p>
  </div>","87","html-slider-response","76","771602","0.0-5.0-2.13","123","1","2025-07-16 18:26:30","1f75c3e559b7213887762d5229550c2b","31.21.169.6","Mozilla/5.0 (Windows NT 10.0; Win64; x64) AppleWebKit/537.36 (KHTML, like Gecko) Chrome/138.0.0.0 Safari/537.36","WebKit","Chrome","138.0.0.0","Windows","10.0","https://app.prolific.com/","en-US,en;q=0.9,nl;q=0.8","6698f8ca0354d4ef9692bf7a","683db7602f5db6a34d12d064","6877eec0c7f76931ab6d0606","1","6698f8ca0354d4ef9692bf7a","1","","2025-07-16T18:39:26.012Z","","","","","","","","","","","ControlQ","","50","","","","","","","","","","","","","","","","","","","","","","","","","","","","",""
"4975","","<div style=""width:500px;"">
  <p>How would you describe your current emotional state?</p>
  </div>","35","html-slider-response","77","776578","0.0-5.0-3.13","123","1","2025-07-16 18:26:30","1f75c3e559b7213887762d5229550c2b","31.21.169.6","Mozilla/5.0 (Windows NT 10.0; Win64; x64) AppleWebKit/537.36 (KHTML, like Gecko) Chrome/138.0.0.0 Safari/537.36","WebKit","Chrome","138.0.0.0","Windows","10.0","https://app.prolific.com/","en-US,en;q=0.9,nl;q=0.8","6698f8ca0354d4ef9692bf7a","683db7602f5db6a34d12d064","6877eec0c7f76931ab6d0606","1","6698f8ca0354d4ef9692bf7a","1","","2025-07-16T18:39:30.988Z","","","","","","","","","","","StressQ","","50","","","","","","","","","","","","","","","","","","","","","","","","","","","","",""
"3289","","<div style=""width:500px;"">
  <p>What best describes how you currently feel?</p>
  </div>","62","html-slider-response","78","779869","0.0-5.0-4.13","123","1","2025-07-16 18:26:30","1f75c3e559b7213887762d5229550c2b","31.21.169.6","Mozilla/5.0 (Windows NT 10.0; Win64; x64) AppleWebKit/537.36 (KHTML, like Gecko) Chrome/138.0.0.0 Safari/537.36","WebKit","Chrome","138.0.0.0","Windows","10.0","https://app.prolific.com/","en-US,en;q=0.9,nl;q=0.8","6698f8ca0354d4ef9692bf7a","683db7602f5db6a34d12d064","6877eec0c7f76931ab6d0606","1","6698f8ca0354d4ef9692bf7a","1","","2025-07-16T18:39:34.279Z","","","","","","","","","","","MotivationQ","","50","","","","","","","","","","","","","","","","","","","","","","","","","","","","",""
