"rt","response_timestamp","stimulus","response","trial_type","trial_index","time_elapsed","internal_node_id","run_id","condition","recorded_at","source_code_version","ip","user_agent","device","browser","browser_version","platform","platform_version","referer","accept_language","PROLIFIC_PID","STUDY_ID","SESSION_ID","WEEK","BATCH","prolific_id","week","batch","realtime","success","responses","item_order","radio_event_ids","radio_event_times","key_event_times","mouse_event_times","straightlining","zigzagging","honeypot","eventType","view_history","slider_start","which_type","canvas_config","goals_layout","control_level","trial_number","tutorial_trial_number","trial_start_time","phase1_start_time","phase2_start_time","phase3_start_time","goal_1_value","goal_1_distance","goal_2_value","goal_2_distance","goal_selected","outcome","outcome_total","participant_final_score","participant_initial_score","participant_final_score_prop","goal_choice_rt","allocated_time","allocated_time_remaining","goal_direction","counts","mouse_movements","key_presses","question_order","question_id"
"17111","1753850465220","<p style='font-size:40px;line-height:1.25'><strong>Welcome to the experiment!</strong></p><p style='font-size:1.1em;line-height:1.25'>Thank you for participanting in our experiment again! You will be asked to play the Dysfunctional Ball Game again. We will briefly recap the rules before we start.</p><p style='font-size:1.1em;line-height:1.25'>Press <strong>Next</strong> to continue.</p>","0","custom-html-button-response","0","17113","0.0-0.0","247","1","2025-07-30 04:40:46","1f75c3e559b7213887762d5229550c2b","165.225.16.188","Mozilla/5.0 (Windows NT 10.0; Win64; x64) AppleWebKit/537.36 (KHTML, like Gecko) Chrome/138.0.0.0 Safari/537.36","WebKit","Chrome","138.0.0.0","Windows","10.0","https://app.prolific.com/","en-US,en;q=0.9","67599ff233234e646e9fe3ca","683dba2a8a9dda3513610c04","6889a23862266cc1853462bc","3","0","67599ff233234e646e9fe3ca","3","0","2025-07-30T04:41:05.221Z","","","","","","","","","","","","","","","","","","","","","","","","","","","","","","","","","","","","","","","","","",""
"4730","","","","fullscreen","1","22860","0.0-1.0","247","1","2025-07-30 04:40:46","1f75c3e559b7213887762d5229550c2b","165.225.16.188","Mozilla/5.0 (Windows NT 10.0; Win64; x64) AppleWebKit/537.36 (KHTML, like Gecko) Chrome/138.0.0.0 Safari/537.36","WebKit","Chrome","138.0.0.0","Windows","10.0","https://app.prolific.com/","en-US,en;q=0.9","67599ff233234e646e9fe3ca","683dba2a8a9dda3513610c04","6889a23862266cc1853462bc","3","0","67599ff233234e646e9fe3ca","3","0","","true","","","","","","","","","","","","","","","","","","","","","","","","","","","","","","","","","","","","","","","","",""
"3571","1753850474539","<p style='font-size:1.1em;line-height:1.25'>In the following, we will ask you a few questions relating to your feelings in the last 24 hours.<br></p><p style='font-size:1.1em;line-height:1.25'>Press the <strong>Next</strong> button to continue.</p>","0","custom-html-button-response","2","26431","0.0-2.0-0.0","247","1","2025-07-30 04:40:46","1f75c3e559b7213887762d5229550c2b","165.225.16.188","Mozilla/5.0 (Windows NT 10.0; Win64; x64) AppleWebKit/537.36 (KHTML, like Gecko) Chrome/138.0.0.0 Safari/537.36","WebKit","Chrome","138.0.0.0","Windows","10.0","https://app.prolific.com/","en-US,en;q=0.9","67599ff233234e646e9fe3ca","683dba2a8a9dda3513610c04","6889a23862266cc1853462bc","3","0","67599ff233234e646e9fe3ca","3","0","2025-07-30T04:41:14.539Z","","","","","","","","","","","","","","","","","","","","","","","","","","","","","","","","","","","","","","","","","",""
"65653.10000000149","","","","survey-template","3","92088","0.0-2.0-1.0","247","1","2025-07-30 04:40:46","1f75c3e559b7213887762d5229550c2b","165.225.16.188","Mozilla/5.0 (Windows NT 10.0; Win64; x64) AppleWebKit/537.36 (KHTML, like Gecko) Chrome/138.0.0.0 Safari/537.36","WebKit","Chrome","138.0.0.0","Windows","10.0","https://app.prolific.com/","en-US,en;q=0.9","67599ff233234e646e9fe3ca","683dba2a8a9dda3513610c04","6889a23862266cc1853462bc","3","0","67599ff233234e646e9fe3ca","3","0","2025-07-30T04:42:20.196Z","","{""Q01"":""1"",""Q02"":""0"",""Q03"":""0"",""Q04"":""1"",""Q05"":""0"",""Q06"":""0"",""Q07"":""1"",""Q08"":""0"",""Q09"":""0"",""Q10"":""0"",""Q11"":""0"",""Q12"":""2"",""Q13"":""5"",""Q14"":""1"",""Q15"":""2"",""Q16"":""2"",""Q17"":""0"",""Q18"":""0"",""Q19"":""0"",""Q20"":""0"",""Q21"":""0"",""Q22"":""0""}","[0,1,2,3,4,5,6,7,8,9,10,11,12,13,14,15,16,17,18,19,20,21]","[""Q01"",""Q02"",""Q03"",""Q04"",""Q05"",""Q06"",""Q07"",""Q08"",""Q08"",""Q09"",""Q10"",""Q11"",""Q12"",""Q12"",""Q13"",""Q12"",""Q14"",""Q15"",""Q16"",""Q17"",""Q18"",""Q19"",""Q20"",""Q21"",""Q22""]","[5701.10000000149,6759.80000000447,7741.70000000298,10387.80000000447,13119.10000000149,16839,19219.10000000149,23660.89999999851,23877.20000000298,24990.5,28030.10000000149,31588.70000000298,32933.5,35761.60000000149,37520.30000000447,40981.30000000447,44319.10000000149,49899.10000000149,51579.5,53393.80000000447,54738.10000000149,57549.70000000298,60695.39999999851,62602.39999999851,64409.89999999851]","[]","[0.10000000149011612,5701.10000000149,6759.80000000447,7741.70000000298,9463.89999999851,10387.80000000447,11769.60000000149,13119.10000000149,16839,19219.10000000149,20955.30000000447,22629.20000000298,23660.89999999851,23877.20000000298,24990.5,26300.5,28030.10000000149,31588.70000000298,32933.5,35761.60000000149,37520.30000000447,40981.30000000447,42466.5,44319.10000000149,48398.5,48615.20000000298,49899.10000000149,51579.5,53393.80000000447,54738.10000000149,57549.70000000298,59518.10000000149,60695.39999999851,62602.39999999851,64409.89999999851,65649.30000000447]","0.6363636363636364","0.2857142857142857","0","drsp","","","","","","","","","","","","","","","","","","","","","","","","","","","","","","",""
"9068","","","","survey-template","4","101157","0.0-2.0-2.0","247","1","2025-07-30 04:40:46","1f75c3e559b7213887762d5229550c2b","165.225.16.188","Mozilla/5.0 (Windows NT 10.0; Win64; x64) AppleWebKit/537.36 (KHTML, like Gecko) Chrome/138.0.0.0 Safari/537.36","WebKit","Chrome","138.0.0.0","Windows","10.0","https://app.prolific.com/","en-US,en;q=0.9","67599ff233234e646e9fe3ca","683dba2a8a9dda3513610c04","6889a23862266cc1853462bc","3","0","67599ff233234e646e9fe3ca","3","0","2025-07-30T04:42:29.265Z","","{""Q01"":""1"",""Q02"":""5"",""Q03"":""0""}","[0,1,2]","[""Q01"",""Q02"",""Q03""]","[5362.89999999851,6603,7708.5]","[]","[4032.10000000149,5362.89999999851,6603,7708.5,9067.10000000149]","0.6666666666666666","0.5","0","stress","","","","","","","","","","","","","","","","","","","","","","","","","","","","","","",""
"16863","","","","instructions","5","118021","0.0-3.0-0.0","247","1","2025-07-30 04:40:46","1f75c3e559b7213887762d5229550c2b","165.225.16.188","Mozilla/5.0 (Windows NT 10.0; Win64; x64) AppleWebKit/537.36 (KHTML, like Gecko) Chrome/138.0.0.0 Safari/537.36","WebKit","Chrome","138.0.0.0","Windows","10.0","https://app.prolific.com/","en-US,en;q=0.9","67599ff233234e646e9fe3ca","683dba2a8a9dda3513610c04","6889a23862266cc1853462bc","3","0","67599ff233234e646e9fe3ca","3","0","","","","","","","","","","","","","[{""page_index"":0,""viewing_time"":16862}]","","","","","","","","","","","","","","","","","","","","","","","","","","","","","",""
"5098","","<p>Before you start with this game please answer the following three questions yourself. </p>
  <p>Through this game, we measure several aspects of your cognitive performance, such as reaction times, multi-tasking capabilities </p>
  <p>and the ability to assess the situation you are in.</p>
  <p></p>
  <p><b>How good do you usually are in such tasks?</b></p>","34","html-slider-response","6","123122","0.0-4.0-0.0","247","1","2025-07-30 04:40:46","1f75c3e559b7213887762d5229550c2b","165.225.16.188","Mozilla/5.0 (Windows NT 10.0; Win64; x64) AppleWebKit/537.36 (KHTML, like Gecko) Chrome/138.0.0.0 Safari/537.36","WebKit","Chrome","138.0.0.0","Windows","10.0","https://app.prolific.com/","en-US,en;q=0.9","67599ff233234e646e9fe3ca","683dba2a8a9dda3513610c04","6889a23862266cc1853462bc","3","0","67599ff233234e646e9fe3ca","3","0","2025-07-30T04:42:51.230Z","","","","","","","","","","","PreSkillQ","","50","","","","","","","","","","","","","","","","","","","","","","","","","","","","",""
"4546","","<div style=""width:500px;"">
  <p>How well do you think you will perform in this task compared to other participants?</p>
  </div>","45","html-slider-response","7","127670","0.0-4.0-1.0","247","1","2025-07-30 04:40:46","1f75c3e559b7213887762d5229550c2b","165.225.16.188","Mozilla/5.0 (Windows NT 10.0; Win64; x64) AppleWebKit/537.36 (KHTML, like Gecko) Chrome/138.0.0.0 Safari/537.36","WebKit","Chrome","138.0.0.0","Windows","10.0","https://app.prolific.com/","en-US,en;q=0.9","67599ff233234e646e9fe3ca","683dba2a8a9dda3513610c04","6889a23862266cc1853462bc","3","0","67599ff233234e646e9fe3ca","3","0","2025-07-30T04:42:55.778Z","","","","","","","","","","","PrePerfQ","","50","","","","","","","","","","","","","","","","","","","","","","","","","","","","",""
"3385","","<div style=""width:500px;"">
  <p>What best describes how you currently feel?</p>
  </div>","77","html-slider-response","8","131056","0.0-4.0-2.0","247","1","2025-07-30 04:40:46","1f75c3e559b7213887762d5229550c2b","165.225.16.188","Mozilla/5.0 (Windows NT 10.0; Win64; x64) AppleWebKit/537.36 (KHTML, like Gecko) Chrome/138.0.0.0 Safari/537.36","WebKit","Chrome","138.0.0.0","Windows","10.0","https://app.prolific.com/","en-US,en;q=0.9","67599ff233234e646e9fe3ca","683dba2a8a9dda3513610c04","6889a23862266cc1853462bc","3","0","67599ff233234e646e9fe3ca","3","0","2025-07-30T04:42:59.165Z","","","","","","","","","","","PreMotivationQ","","50","","","","","","","","","","","","","","","","","","","","","","","","","","","","",""
"","","","","ctl-task-cpt","9","175109","0.0-5.0-0.0","247","1","2025-07-30 04:40:46","1f75c3e559b7213887762d5229550c2b","165.225.16.188","Mozilla/5.0 (Windows NT 10.0; Win64; x64) AppleWebKit/537.36 (KHTML, like Gecko) Chrome/138.0.0.0 Safari/537.36","WebKit","Chrome","138.0.0.0","Windows","10.0","https://app.prolific.com/","en-US,en;q=0.9","67599ff233234e646e9fe3ca","683dba2a8a9dda3513610c04","6889a23862266cc1853462bc","3","0","67599ff233234e646e9fe3ca","3","0","2025-07-30T04:43:43.217Z","","","","","","","","","","","","","","win-only","0","g1:NW,g2:SE","1","1","0","133866.9","2772.5","7772.9","41045.2","1","4","8","6","2","8","7","7","0","0.05303030303030303","3383.6","3000","870","[""down"",""right""]","{""num_key_presses"":7,""num_perfect"":6,""num_errors"":1,""num_randdir"":0,""num_randdir_good_moves"":0,""num_whilered"":0,""num_whileblue"":0,""num_blue"":4,""num_good_moves"":6}","[419.57142857142856,416.1808016640799,0.3,419.57142857142856,416.1808016640799,100.4,419.57142857142856,416.1808016640799,203.1,419.57142857142856,416.1808016640799,303.9,419.57142857142856,416.1808016640799,409,419.57142857142856,416.1808016640799,517.2,419.57142857142856,416.1808016640799,618.9,419.57142857142856,416.1808016640799,723.2,419.57142857142856,416.1808016640799,823.7,419.57142857142856,416.1808016640799,933.7,419.57142857142856,416.1808016640799,1034,419.57142857142856,416.1808016640799,1138.4,419.57142857142856,416.1808016640799,1239.4,419.57142857142856,416.1808016640799,1339.6,701.5714285714286,755.1808016640799,1440.8,746.5714285714286,776.1808016640799,1540.9,751.0714285714286,774.6808016640799,1644.6,755.5714285714286,765.6808016640799,1750.8,755.5714285714286,764.1808016640799,1851,749.5714285714286,761.1808016640799,1953.5,746.5714285714286,759.6808016640799,2058.1,746.5714285714286,759.6808016640799,2159.8,746.5714285714286,759.6808016640799,2266.9,746.5714285714286,759.6808016640799,2367,746.5714285714286,759.6808016640799,2467,746.5714285714286,759.6808016640799,2567.1,746.5714285714286,759.6808016640799,2668.3,742.0714285714286,756.6808016640799,2773.7,694.0714285714286,726.6808016640799,2883.7,710.5714285714286,734.1808016640799,2984,733.0714285714286,752.1808016640799,3084,733.0714285714286,753.6808016640799,3188.6,733.0714285714286,753.6808016640799,3289.5,733.0714285714286,753.6808016640799,3393.8,733.0714285714286,753.6808016640799,3500.2,733.0714285714286,753.6808016640799,3600.2,733.0714285714286,753.6808016640799,3703.3,733.0714285714286,753.6808016640799,3803.6,733.0714285714286,753.6808016640799,3903.7,733.0714285714286,753.6808016640799,4009.3,733.0714285714286,753.6808016640799,4116.5,733.0714285714286,753.6808016640799,4217,733.0714285714286,753.6808016640799,4318.2,733.0714285714286,753.6808016640799,4422.9,733.0714285714286,753.6808016640799,4523.8,733.0714285714286,753.6808016640799,4623.9,733.0714285714286,753.6808016640799,4733.7,733.0714285714286,753.6808016640799,4833.7,733.0714285714286,753.6808016640799,4933.8]","[885.4,885.4,1000,0,-114.6,""error"",""-"",""-"",""no_move"",5015.9,4130.3,2677.4,1887.8,450.7,""smooth"",""down"",""down"",""good_move"",8904.1,3887.7,3520.7,5016.4,367,""smooth"",""right"",""right"",""good_move"",11238.9,2334.3,1956.4,8904.6,377.9,""smooth"",""down"",""down"",""good_move"",27565.6,16326.5,2379.5,24749,437.1,""smooth"",""right"",""right"",""good_move"",30191.7,2623.9,2217.5,27567.8,406.4,""smooth"",""right"",""right"",""good_move"",33180.1,2987.8,2662.7,30192.3,325.1,""smooth"",""down"",""down"",""good_move""]","",""
"4397","","<div style=""width:500px;"">
  <p>What determined the result of this run?</p>
  </div>","38","html-slider-response","10","179508","0.0-5.0-1.0","247","1","2025-07-30 04:40:46","1f75c3e559b7213887762d5229550c2b","165.225.16.188","Mozilla/5.0 (Windows NT 10.0; Win64; x64) AppleWebKit/537.36 (KHTML, like Gecko) Chrome/138.0.0.0 Safari/537.36","WebKit","Chrome","138.0.0.0","Windows","10.0","https://app.prolific.com/","en-US,en;q=0.9","67599ff233234e646e9fe3ca","683dba2a8a9dda3513610c04","6889a23862266cc1853462bc","3","0","67599ff233234e646e9fe3ca","3","0","2025-07-30T04:43:47.616Z","","","","","","","","","","","AttribQ","","50","","","","","","","","","","","","","","","","","","","","","","","","","","","","",""
"4137","","<div style=""width:500px;"">
  <p>How much control did you have over the ball?</p>
  </div>","84","html-slider-response","11","183647","0.0-5.0-2.0","247","1","2025-07-30 04:40:46","1f75c3e559b7213887762d5229550c2b","165.225.16.188","Mozilla/5.0 (Windows NT 10.0; Win64; x64) AppleWebKit/537.36 (KHTML, like Gecko) Chrome/138.0.0.0 Safari/537.36","WebKit","Chrome","138.0.0.0","Windows","10.0","https://app.prolific.com/","en-US,en;q=0.9","67599ff233234e646e9fe3ca","683dba2a8a9dda3513610c04","6889a23862266cc1853462bc","3","0","67599ff233234e646e9fe3ca","3","0","2025-07-30T04:43:51.755Z","","","","","","","","","","","ControlQ","","50","","","","","","","","","","","","","","","","","","","","","","","","","","","","",""
"4138","","<div style=""width:500px;"">
  <p>How would you describe your current emotional state?</p>
  </div>","30","html-slider-response","12","187790","0.0-5.0-3.0","247","1","2025-07-30 04:40:46","1f75c3e559b7213887762d5229550c2b","165.225.16.188","Mozilla/5.0 (Windows NT 10.0; Win64; x64) AppleWebKit/537.36 (KHTML, like Gecko) Chrome/138.0.0.0 Safari/537.36","WebKit","Chrome","138.0.0.0","Windows","10.0","https://app.prolific.com/","en-US,en;q=0.9","67599ff233234e646e9fe3ca","683dba2a8a9dda3513610c04","6889a23862266cc1853462bc","3","0","67599ff233234e646e9fe3ca","3","0","2025-07-30T04:43:55.898Z","","","","","","","","","","","StressQ","","50","","","","","","","","","","","","","","","","","","","","","","","","","","","","",""
"3562","","<div style=""width:500px;"">
  <p>What best describes how you currently feel?</p>
  </div>","74","html-slider-response","13","191354","0.0-5.0-4.0","247","1","2025-07-30 04:40:46","1f75c3e559b7213887762d5229550c2b","165.225.16.188","Mozilla/5.0 (Windows NT 10.0; Win64; x64) AppleWebKit/537.36 (KHTML, like Gecko) Chrome/138.0.0.0 Safari/537.36","WebKit","Chrome","138.0.0.0","Windows","10.0","https://app.prolific.com/","en-US,en;q=0.9","67599ff233234e646e9fe3ca","683dba2a8a9dda3513610c04","6889a23862266cc1853462bc","3","0","67599ff233234e646e9fe3ca","3","0","2025-07-30T04:43:59.462Z","","","","","","","","","","","MotivationQ","","50","","","","","","","","","","","","","","","","","","","","","","","","","","","","",""
"","","","","ctl-task-cpt","14","210333","0.0-5.0-0.1","247","1","2025-07-30 04:40:46","1f75c3e559b7213887762d5229550c2b","165.225.16.188","Mozilla/5.0 (Windows NT 10.0; Win64; x64) AppleWebKit/537.36 (KHTML, like Gecko) Chrome/138.0.0.0 Safari/537.36","WebKit","Chrome","138.0.0.0","Windows","10.0","https://app.prolific.com/","en-US,en;q=0.9","67599ff233234e646e9fe3ca","683dba2a8a9dda3513610c04","6889a23862266cc1853462bc","3","0","67599ff233234e646e9fe3ca","3","0","2025-07-30T04:44:18.441Z","","","","","","","","","","","","","","win-only","0","g1:NW,g2:SE","0.9","2","0","194160","1468.1","6471.5","15962","1","4","4","6","1","1","1","8","7","0.06060606060606061","2094.9","3000","1515","[""left"",""up""]","{""num_key_presses"":4,""num_perfect"":4,""num_errors"":0,""num_randdir"":0,""num_randdir_good_moves"":0,""num_whilered"":0,""num_whileblue"":0,""num_blue"":0,""num_good_moves"":4}","[416.57142857142856,416.1808016640799,0.4,416.57142857142856,416.1808016640799,102.3,416.57142857142856,416.1808016640799,203,416.57142857142856,416.1808016640799,307.4,416.57142857142856,416.1808016640799,408.6,416.57142857142856,416.1808016640799,508.7,422.57142857142856,422.1808016640799,613.2,487.07142857142856,491.1808016640799,713.5,529.0714285714286,534.6808016640799,818.1,563.5714285714286,551.1808016640799,918.8,596.5714285714286,557.1808016640799,1023.7,587.5714285714286,536.1808016640799,1128.3,344.57142857142856,332.1808016640799,1234.4,260.57142857142856,255.68080166407992,1339.1,187.07142857142856,195.68080166407992,1442.9,173.57142857142856,183.68080166407992,1548.6,173.57142857142856,183.68080166407992,1653,164.57142857142856,171.68080166407992,1757.6,106.07142857142857,83.18080166407994,1858.6,94.07142857142857,80.18080166407994,1963.3,88.07142857142857,77.18080166407994,2067.9,88.07142857142857,77.18080166407994,2167.9,88.07142857142857,77.18080166407994,2273.1,88.07142857142857,77.18080166407994,2377.5,88.07142857142857,77.18080166407994,2477.5,-40.92857142857143,251.18080166407992,2577.8,-120.42857142857143,315.6808016640799,2677.9,-172.92857142857144,327.6808016640799,2783.3,-174.42857142857144,324.6808016640799,2883.8,-174.42857142857144,324.6808016640799,2988,-174.42857142857144,324.6808016640799,3092.7,-174.42857142857144,324.6808016640799,3197.9,-174.42857142857144,324.6808016640799,3299.1,-174.42857142857144,324.6808016640799,3402.8,-174.42857142857144,324.6808016640799,3504.1,-174.42857142857144,324.6808016640799,3608.4,-174.42857142857144,324.6808016640799,3708.4,-174.42857142857144,324.6808016640799,3813.1,-174.42857142857144,324.6808016640799,3918.1,-174.42857142857144,324.6808016640799,4024.4,-174.42857142857144,324.6808016640799,4128.8,-174.42857142857144,324.6808016640799,4233.3,-174.42857142857144,324.6808016640799,4338.1,-174.42857142857144,324.6808016640799,4439.1,-174.42857142857144,324.6808016640799,4542.4,-174.42857142857144,324.6808016640799,4647.5,-174.42857142857144,324.6808016640799,4747.5,-174.42857142857144,324.6808016640799,4849.2,-174.42857142857144,324.6808016640799,4953]","[1467.6,1467.7,1000,0,467.7,""smooth"",""up"",""up"",""good_move"",3986.5,2518.4,2150.9,1468.1,367.5,""smooth"",""left"",""left"",""good_move"",6642.9,2656,2347.2,3986.9,308.8,""smooth"",""up"",""up"",""good_move"",9396.2,2753.2,2393.4,6643,359.8,""smooth"",""left"",""left"",""good_move""]","",""
"3946","","<div style=""width:500px;"">
  <p>What determined the result of this run?</p>
  </div>","82","html-slider-response","15","214280","0.0-5.0-1.1","247","1","2025-07-30 04:40:46","1f75c3e559b7213887762d5229550c2b","165.225.16.188","Mozilla/5.0 (Windows NT 10.0; Win64; x64) AppleWebKit/537.36 (KHTML, like Gecko) Chrome/138.0.0.0 Safari/537.36","WebKit","Chrome","138.0.0.0","Windows","10.0","https://app.prolific.com/","en-US,en;q=0.9","67599ff233234e646e9fe3ca","683dba2a8a9dda3513610c04","6889a23862266cc1853462bc","3","0","67599ff233234e646e9fe3ca","3","0","2025-07-30T04:44:22.388Z","","","","","","","","","","","AttribQ","","50","","","","","","","","","","","","","","","","","","","","","","","","","","","","",""
"2958","","<div style=""width:500px;"">
  <p>How much control did you have over the ball?</p>
  </div>","91","html-slider-response","16","217239","0.0-5.0-2.1","247","1","2025-07-30 04:40:46","1f75c3e559b7213887762d5229550c2b","165.225.16.188","Mozilla/5.0 (Windows NT 10.0; Win64; x64) AppleWebKit/537.36 (KHTML, like Gecko) Chrome/138.0.0.0 Safari/537.36","WebKit","Chrome","138.0.0.0","Windows","10.0","https://app.prolific.com/","en-US,en;q=0.9","67599ff233234e646e9fe3ca","683dba2a8a9dda3513610c04","6889a23862266cc1853462bc","3","0","67599ff233234e646e9fe3ca","3","0","2025-07-30T04:44:25.347Z","","","","","","","","","","","ControlQ","","50","","","","","","","","","","","","","","","","","","","","","","","","","","","","",""
"3104","","<div style=""width:500px;"">
  <p>How would you describe your current emotional state?</p>
  </div>","28","html-slider-response","17","220345","0.0-5.0-3.1","247","1","2025-07-30 04:40:46","1f75c3e559b7213887762d5229550c2b","165.225.16.188","Mozilla/5.0 (Windows NT 10.0; Win64; x64) AppleWebKit/537.36 (KHTML, like Gecko) Chrome/138.0.0.0 Safari/537.36","WebKit","Chrome","138.0.0.0","Windows","10.0","https://app.prolific.com/","en-US,en;q=0.9","67599ff233234e646e9fe3ca","683dba2a8a9dda3513610c04","6889a23862266cc1853462bc","3","0","67599ff233234e646e9fe3ca","3","0","2025-07-30T04:44:28.453Z","","","","","","","","","","","StressQ","","50","","","","","","","","","","","","","","","","","","","","","","","","","","","","",""
"3255","","<div style=""width:500px;"">
  <p>What best describes how you currently feel?</p>
  </div>","75","html-slider-response","18","223601","0.0-5.0-4.1","247","1","2025-07-30 04:40:46","1f75c3e559b7213887762d5229550c2b","165.225.16.188","Mozilla/5.0 (Windows NT 10.0; Win64; x64) AppleWebKit/537.36 (KHTML, like Gecko) Chrome/138.0.0.0 Safari/537.36","WebKit","Chrome","138.0.0.0","Windows","10.0","https://app.prolific.com/","en-US,en;q=0.9","67599ff233234e646e9fe3ca","683dba2a8a9dda3513610c04","6889a23862266cc1853462bc","3","0","67599ff233234e646e9fe3ca","3","0","2025-07-30T04:44:31.709Z","","","","","","","","","","","MotivationQ","","50","","","","","","","","","","","","","","","","","","","","","","","","","","","","",""
"","","","","ctl-task-cpt","19","242634","0.0-5.0-0.2","247","1","2025-07-30 04:40:46","1f75c3e559b7213887762d5229550c2b","165.225.16.188","Mozilla/5.0 (Windows NT 10.0; Win64; x64) AppleWebKit/537.36 (KHTML, like Gecko) Chrome/138.0.0.0 Safari/537.36","WebKit","Chrome","138.0.0.0","Windows","10.0","https://app.prolific.com/","en-US,en;q=0.9","67599ff233234e646e9fe3ca","683dba2a8a9dda3513610c04","6889a23862266cc1853462bc","3","0","67599ff233234e646e9fe3ca","3","0","2025-07-30T04:44:50.742Z","","","","","","","","","","","","","","win-only","2","g1:SE,g2:NW","0.8","3","0","226408.2","1622.5","6626.3","16011.6","1","4","4","6","1","1","1","9","8","0.06818181818181818","3959.3","3000","1375","[""down"",""right""]","{""num_key_presses"":4,""num_perfect"":4,""num_errors"":0,""num_randdir"":0,""num_randdir_good_moves"":0,""num_whilered"":0,""num_whileblue"":0,""num_blue"":0,""num_good_moves"":4}","[415.07142857142856,422.1808016640799,0.3,415.07142857142856,422.1808016640799,103.3,415.07142857142856,422.1808016640799,203.9,415.07142857142856,422.1808016640799,309.3,415.07142857142856,422.1808016640799,414.1,632.5714285714286,398.1808016640799,517.9,806.5714285714286,357.6808016640799,618.6,809.5714285714286,350.1808016640799,719.1,809.5714285714286,350.1808016640799,823.6,791.5714285714286,380.1808016640799,928.3,752.5714285714286,437.1808016640799,1028.4,731.5714285714286,458.1808016640799,1133.4,632.5714285714286,380.1808016640799,1239.2,562.0714285714286,317.1808016640799,1343,560.5714285714286,317.1808016640799,1443.4,559.0714285714286,317.1808016640799,1543.8,559.0714285714286,324.6808016640799,1644.3,574.0714285714286,407.1808016640799,1747.9,590.5714285714286,488.1808016640799,1849.5,635.5714285714286,540.6808016640799,1954.1,620.5714285714286,543.6808016640799,2060.5,569.5714285714286,509.1808016640799,2162.9,569.5714285714286,513.6808016640799,2262.9,449.57142857142856,423.6808016640799,2362.9,296.57142857142856,281.1808016640799,2469,224.57142857142856,242.18080166407992,2574.4,188.57142857142856,213.68080166407992,2675.8,158.57142857142856,162.68080166407992,2778.3,125.57142857142857,111.68080166407994,2878.5,101.57142857142857,95.18080166407994,2978.7,95.57142857142857,90.68080166407994,3082.9,95.57142857142857,90.68080166407994,3182.9,95.57142857142857,101.18080166407994,3283.8,461.57142857142856,432.6808016640799,3387.9,781.0714285714286,806.1808016640799,3489.2,785.5714285714286,816.6808016640799,3589.2,791.5714285714286,833.1808016640799,3693.3,791.5714285714286,833.1808016640799,3793.5,761.5714285714286,773.1808016640799,3899,752.5714285714286,770.1808016640799,4003.2,752.5714285714286,770.1808016640799,4103.6,752.5714285714286,770.1808016640799,4203.7,752.5714285714286,770.1808016640799,4304.3,752.5714285714286,770.1808016640799,4408.9,752.5714285714286,770.1808016640799,4513.9,752.5714285714286,770.1808016640799,4618.3,998.5714285714286,636.6808016640799,4725.2,1016.5714285714286,605.1808016640799,4828.9,1019.5714285714286,578.1808016640799,4933.3]","[1586.9,1587,1000,0,587,""smooth"",""right"",""right"",""good_move"",4910.8,3323.4,3004.1,1587.4,319.3,""smooth"",""down"",""down"",""good_move"",6864.2,1953,1539.6,4911.2,413.4,""smooth"",""right"",""right"",""good_move"",9297.3,2432.8,2093.1,6864.5,339.7,""smooth"",""down"",""down"",""good_move""]","",""
"4250","","<div style=""width:500px;"">
  <p>What determined the result of this run?</p>
  </div>","74","html-slider-response","20","246886","0.0-5.0-1.2","247","1","2025-07-30 04:40:46","1f75c3e559b7213887762d5229550c2b","165.225.16.188","Mozilla/5.0 (Windows NT 10.0; Win64; x64) AppleWebKit/537.36 (KHTML, like Gecko) Chrome/138.0.0.0 Safari/537.36","WebKit","Chrome","138.0.0.0","Windows","10.0","https://app.prolific.com/","en-US,en;q=0.9","67599ff233234e646e9fe3ca","683dba2a8a9dda3513610c04","6889a23862266cc1853462bc","3","0","67599ff233234e646e9fe3ca","3","0","2025-07-30T04:44:54.994Z","","","","","","","","","","","AttribQ","","50","","","","","","","","","","","","","","","","","","","","","","","","","","","","",""
"2883","","<div style=""width:500px;"">
  <p>How much control did you have over the ball?</p>
  </div>","80","html-slider-response","21","249769","0.0-5.0-2.2","247","1","2025-07-30 04:40:46","1f75c3e559b7213887762d5229550c2b","165.225.16.188","Mozilla/5.0 (Windows NT 10.0; Win64; x64) AppleWebKit/537.36 (KHTML, like Gecko) Chrome/138.0.0.0 Safari/537.36","WebKit","Chrome","138.0.0.0","Windows","10.0","https://app.prolific.com/","en-US,en;q=0.9","67599ff233234e646e9fe3ca","683dba2a8a9dda3513610c04","6889a23862266cc1853462bc","3","0","67599ff233234e646e9fe3ca","3","0","2025-07-30T04:44:57.877Z","","","","","","","","","","","ControlQ","","50","","","","","","","","","","","","","","","","","","","","","","","","","","","","",""
"3308","","<div style=""width:500px;"">
  <p>How would you describe your current emotional state?</p>
  </div>","26","html-slider-response","22","253078","0.0-5.0-3.2","247","1","2025-07-30 04:40:46","1f75c3e559b7213887762d5229550c2b","165.225.16.188","Mozilla/5.0 (Windows NT 10.0; Win64; x64) AppleWebKit/537.36 (KHTML, like Gecko) Chrome/138.0.0.0 Safari/537.36","WebKit","Chrome","138.0.0.0","Windows","10.0","https://app.prolific.com/","en-US,en;q=0.9","67599ff233234e646e9fe3ca","683dba2a8a9dda3513610c04","6889a23862266cc1853462bc","3","0","67599ff233234e646e9fe3ca","3","0","2025-07-30T04:45:01.187Z","","","","","","","","","","","StressQ","","50","","","","","","","","","","","","","","","","","","","","","","","","","","","","",""
"4258","","<div style=""width:500px;"">
  <p>What best describes how you currently feel?</p>
  </div>","72","html-slider-response","23","257338","0.0-5.0-4.2","247","1","2025-07-30 04:40:46","1f75c3e559b7213887762d5229550c2b","165.225.16.188","Mozilla/5.0 (Windows NT 10.0; Win64; x64) AppleWebKit/537.36 (KHTML, like Gecko) Chrome/138.0.0.0 Safari/537.36","WebKit","Chrome","138.0.0.0","Windows","10.0","https://app.prolific.com/","en-US,en;q=0.9","67599ff233234e646e9fe3ca","683dba2a8a9dda3513610c04","6889a23862266cc1853462bc","3","0","67599ff233234e646e9fe3ca","3","0","2025-07-30T04:45:05.446Z","","","","","","","","","","","MotivationQ","","50","","","","","","","","","","","","","","","","","","","","","","","","","","","","",""
"","","","","ctl-task-cpt","24","300431","0.0-5.0-0.3","247","1","2025-07-30 04:40:46","1f75c3e559b7213887762d5229550c2b","165.225.16.188","Mozilla/5.0 (Windows NT 10.0; Win64; x64) AppleWebKit/537.36 (KHTML, like Gecko) Chrome/138.0.0.0 Safari/537.36","WebKit","Chrome","138.0.0.0","Windows","10.0","https://app.prolific.com/","en-US,en;q=0.9","67599ff233234e646e9fe3ca","683dba2a8a9dda3513610c04","6889a23862266cc1853462bc","3","0","67599ff233234e646e9fe3ca","3","0","2025-07-30T04:45:48.539Z","","","","","","","","","","","","","","win-only","3","g1:SW,g2:NE","0.7","4","0","260144.2","1909.4","6909.7","40081","1","4","8","6","2","-8","-9","0","9","0","1967.7","3000","-2705","[""up"",""right""]","{""num_key_presses"":9,""num_perfect"":5,""num_errors"":1,""num_randdir"":3,""num_randdir_good_moves"":1,""num_whilered"":0,""num_whileblue"":0,""num_blue"":2,""num_good_moves"":5}","[416.57142857142856,413.1808016640799,0.1,416.57142857142856,413.1808016640799,100.4,416.57142857142856,413.1808016640799,202,416.57142857142856,413.1808016640799,306,416.57142857142856,413.1808016640799,406.1,416.57142857142856,413.1808016640799,517.6,416.57142857142856,413.1808016640799,622,416.57142857142856,413.1808016640799,726.5,458.57142857142856,416.1808016640799,826.6,488.57142857142856,405.6808016640799,933.6,617.5714285714286,314.1808016640799,1034.3,632.5714285714286,299.1808016640799,1136.3,632.5714285714286,299.1808016640799,1236.8,632.5714285714286,299.1808016640799,1341.2,667.0714285714286,254.18080166407992,1441.4,740.5714285714286,179.18080166407992,1541.4,746.5714285714286,140.18080166407992,1642.2,755.5714285714286,104.18080166407994,1742.4,757.0714285714286,101.18080166407994,1850.2,757.0714285714286,101.18080166407994,1950.3,757.0714285714286,101.18080166407994,2050.6,757.0714285714286,101.18080166407994,2150.7,757.0714285714286,101.18080166407994,2251.2,757.0714285714286,101.18080166407994,2356.4,887.5714285714286,120.68080166407994,2461,1015.0714285714286,174.68080166407992,2562.2,1022.5714285714286,185.18080166407992,2667.3,1022.5714285714286,185.18080166407992,2771.5,1022.5714285714286,185.18080166407992,2876.4,1022.5714285714286,185.18080166407992,2976.9,1022.5714285714286,185.18080166407992,3077.2,1022.5714285714286,185.18080166407992,3183.6,1022.5714285714286,185.18080166407992,3286.1,1022.5714285714286,185.18080166407992,3386.4,1022.5714285714286,185.18080166407992,3486.8,1022.5714285714286,185.18080166407992,3592.1,1022.5714285714286,185.18080166407992,3700.6,1022.5714285714286,185.18080166407992,3801.1,1022.5714285714286,185.18080166407992,3901.9,1022.5714285714286,185.18080166407992,4005.9,1022.5714285714286,185.18080166407992,4106.2,1022.5714285714286,185.18080166407992,4217,1022.5714285714286,185.18080166407992,4320.7,1022.5714285714286,185.18080166407992,4421.8,1022.5714285714286,185.18080166407992,4526.3,1022.5714285714286,185.18080166407992,4633.5,1022.5714285714286,185.18080166407992,4733.9,1022.5714285714286,185.18080166407992,4836.4,1022.5714285714286,185.18080166407992,4942.3]","[301.8,301.8,1000,0,-698.2,""error"",""-"",""-"",""no_move"",4482.2,4180.2,2781.3,1306.1,394.8,""oops"",""up"",""left"",""bad_move"",6969.3,2486.8,2035.4,4482.5,451.4,""oops"",""right"",""down"",""bad_move"",9168.9,2199.3,1793.4,6969.6,405.9,""smooth"",""down"",""down"",""bad_move"",11965.4,2796.3,2454.5,9169.1,341.8,""smooth"",""up"",""up"",""good_move"",14583.2,2617.5,2267.5,11965.7,350,""oops"",""up"",""up"",""good_move"",17782.1,3198.6,2842.9,14583.5,355.7,""smooth"",""right"",""right"",""good_move"",23724.8,5942.5,2209.5,21126,389.3,""smooth"",""right"",""right"",""good_move"",25952.6,2227.3,1858.7,23725.3,368.6,""smooth"",""right"",""right"",""good_move""]","",""
"5370","","<div style=""width:500px;"">
  <p>What determined the result of this run?</p>
  </div>","23","html-slider-response","25","305802","0.0-5.0-1.3","247","1","2025-07-30 04:40:46","1f75c3e559b7213887762d5229550c2b","165.225.16.188","Mozilla/5.0 (Windows NT 10.0; Win64; x64) AppleWebKit/537.36 (KHTML, like Gecko) Chrome/138.0.0.0 Safari/537.36","WebKit","Chrome","138.0.0.0","Windows","10.0","https://app.prolific.com/","en-US,en;q=0.9","67599ff233234e646e9fe3ca","683dba2a8a9dda3513610c04","6889a23862266cc1853462bc","3","0","67599ff233234e646e9fe3ca","3","0","2025-07-30T04:45:53.910Z","","","","","","","","","","","AttribQ","","50","","","","","","","","","","","","","","","","","","","","","","","","","","","","",""
"3521","","<div style=""width:500px;"">
  <p>How much control did you have over the ball?</p>
  </div>","21","html-slider-response","26","309323","0.0-5.0-2.3","247","1","2025-07-30 04:40:46","1f75c3e559b7213887762d5229550c2b","165.225.16.188","Mozilla/5.0 (Windows NT 10.0; Win64; x64) AppleWebKit/537.36 (KHTML, like Gecko) Chrome/138.0.0.0 Safari/537.36","WebKit","Chrome","138.0.0.0","Windows","10.0","https://app.prolific.com/","en-US,en;q=0.9","67599ff233234e646e9fe3ca","683dba2a8a9dda3513610c04","6889a23862266cc1853462bc","3","0","67599ff233234e646e9fe3ca","3","0","2025-07-30T04:45:57.431Z","","","","","","","","","","","ControlQ","","50","","","","","","","","","","","","","","","","","","","","","","","","","","","","",""
"3201","","<div style=""width:500px;"">
  <p>How would you describe your current emotional state?</p>
  </div>","43","html-slider-response","27","312525","0.0-5.0-3.3","247","1","2025-07-30 04:40:46","1f75c3e559b7213887762d5229550c2b","165.225.16.188","Mozilla/5.0 (Windows NT 10.0; Win64; x64) AppleWebKit/537.36 (KHTML, like Gecko) Chrome/138.0.0.0 Safari/537.36","WebKit","Chrome","138.0.0.0","Windows","10.0","https://app.prolific.com/","en-US,en;q=0.9","67599ff233234e646e9fe3ca","683dba2a8a9dda3513610c04","6889a23862266cc1853462bc","3","0","67599ff233234e646e9fe3ca","3","0","2025-07-30T04:46:00.633Z","","","","","","","","","","","StressQ","","50","","","","","","","","","","","","","","","","","","","","","","","","","","","","",""
"3536","","<div style=""width:500px;"">
  <p>What best describes how you currently feel?</p>
  </div>","62","html-slider-response","28","316062","0.0-5.0-4.3","247","1","2025-07-30 04:40:46","1f75c3e559b7213887762d5229550c2b","165.225.16.188","Mozilla/5.0 (Windows NT 10.0; Win64; x64) AppleWebKit/537.36 (KHTML, like Gecko) Chrome/138.0.0.0 Safari/537.36","WebKit","Chrome","138.0.0.0","Windows","10.0","https://app.prolific.com/","en-US,en;q=0.9","67599ff233234e646e9fe3ca","683dba2a8a9dda3513610c04","6889a23862266cc1853462bc","3","0","67599ff233234e646e9fe3ca","3","0","2025-07-30T04:46:04.170Z","","","","","","","","","","","MotivationQ","","50","","","","","","","","","","","","","","","","","","","","","","","","","","","","",""
"","","","","ctl-task-cpt","29","354268","0.0-5.0-0.4","247","1","2025-07-30 04:40:46","1f75c3e559b7213887762d5229550c2b","165.225.16.188","Mozilla/5.0 (Windows NT 10.0; Win64; x64) AppleWebKit/537.36 (KHTML, like Gecko) Chrome/138.0.0.0 Safari/537.36","WebKit","Chrome","138.0.0.0","Windows","10.0","https://app.prolific.com/","en-US,en;q=0.9","67599ff233234e646e9fe3ca","683dba2a8a9dda3513610c04","6889a23862266cc1853462bc","3","0","67599ff233234e646e9fe3ca","3","0","2025-07-30T04:46:42.376Z","","","","","","","","","","","","","","win-only","0","g1:NW,g2:SE","0.6","5","0","318868.6","1461","6466.3","35201.1","1","4","8","6","2","-8","-8","0","0","0","1710.6","3000","-2990","[""down"",""right""]","{""num_key_presses"":7,""num_perfect"":5,""num_errors"":0,""num_randdir"":2,""num_randdir_good_moves"":0,""num_whilered"":0,""num_whileblue"":0,""num_blue"":2,""num_good_moves"":5}","[419.57142857142856,416.1808016640799,0.1,419.57142857142856,416.1808016640799,100.9,419.57142857142856,416.1808016640799,204.4,419.57142857142856,416.1808016640799,304.6,419.57142857142856,416.1808016640799,409.5,419.57142857142856,416.1808016640799,511.4,443.57142857142856,429.6808016640799,614.4,530.5714285714286,524.1808016640799,715.3,641.5714285714286,689.1808016640799,819.9,653.5714285714286,698.1808016640799,924.5,677.5714285714286,701.1808016640799,1025.4,734.5714285714286,716.1808016640799,1129.4,760.0714285714286,746.1808016640799,1229.8,760.0714285714286,746.1808016640799,1334.4,760.0714285714286,746.1808016640799,1435.3,760.0714285714286,746.1808016640799,1540.7,760.0714285714286,746.1808016640799,1644.3,760.0714285714286,746.1808016640799,1745,760.0714285714286,746.1808016640799,1845.4,760.0714285714286,746.1808016640799,1949.6,760.0714285714286,746.1808016640799,2054.5,931.0714285714286,641.1808016640799,2159.3,1043.5714285714287,585.6808016640799,2259.8,1046.5714285714287,582.6808016640799,2364.4,1046.5714285714287,582.6808016640799,2464.6,1046.5714285714287,582.6808016640799,2564.6,1046.5714285714287,582.6808016640799,2669.5,1046.5714285714287,582.6808016640799,2769.5,1046.5714285714287,582.6808016640799,2869.8,1046.5714285714287,582.6808016640799,2974.5,1046.5714285714287,582.6808016640799,3074.8,1046.5714285714287,582.6808016640799,3176.2,1046.5714285714287,582.6808016640799,3279.3,1046.5714285714287,582.6808016640799,3379.4,1046.5714285714287,582.6808016640799,3481.1,1046.5714285714287,582.6808016640799,3584.2,1046.5714285714287,582.6808016640799,3690.3,1046.5714285714287,582.6808016640799,3790.5,1046.5714285714287,582.6808016640799,3894.7,1046.5714285714287,582.6808016640799,3995.2,1046.5714285714287,582.6808016640799,4095.2,1046.5714285714287,582.6808016640799,4195.5,1046.5714285714287,582.6808016640799,4295.6,1046.5714285714287,582.6808016640799,4399.9,1046.5714285714287,582.6808016640799,4500.5,1046.5714285714287,582.6808016640799,4600.5,1046.5714285714287,582.6808016640799,4701.4,1046.5714285714287,582.6808016640799,4804.7,1046.5714285714287,582.6808016640799,4904.7]","[1500.7,1500.8,1000,0,500.8,""smooth"",""right"",""right"",""good_move"",8426.9,6925.6,3097.1,4934.9,394.9,""smooth"",""right"",""right"",""good_move"",10676.8,2249.5,1870.1,8427.3,379.4,""oops"",""down"",""left"",""bad_move"",14109.5,3432.1,3081.6,10677.5,350.5,""smooth"",""down"",""down"",""good_move"",20317.9,6207.9,2271.9,17624.2,421.8,""smooth"",""right"",""right"",""good_move"",23220.2,2901.9,2526.8,20318.3,375.1,""oops"",""down"",""left"",""bad_move"",25742,2521.1,2205.5,23220.9,315.6,""smooth"",""down"",""down"",""good_move""]","",""
"3655","","<div style=""width:500px;"">
  <p>What determined the result of this run?</p>
  </div>","24","html-slider-response","30","357924","0.0-5.0-1.4","247","1","2025-07-30 04:40:46","1f75c3e559b7213887762d5229550c2b","165.225.16.188","Mozilla/5.0 (Windows NT 10.0; Win64; x64) AppleWebKit/537.36 (KHTML, like Gecko) Chrome/138.0.0.0 Safari/537.36","WebKit","Chrome","138.0.0.0","Windows","10.0","https://app.prolific.com/","en-US,en;q=0.9","67599ff233234e646e9fe3ca","683dba2a8a9dda3513610c04","6889a23862266cc1853462bc","3","0","67599ff233234e646e9fe3ca","3","0","2025-07-30T04:46:46.032Z","","","","","","","","","","","AttribQ","","50","","","","","","","","","","","","","","","","","","","","","","","","","","","","",""
"3558","","<div style=""width:500px;"">
  <p>How much control did you have over the ball?</p>
  </div>","18","html-slider-response","31","361483","0.0-5.0-2.4","247","1","2025-07-30 04:40:46","1f75c3e559b7213887762d5229550c2b","165.225.16.188","Mozilla/5.0 (Windows NT 10.0; Win64; x64) AppleWebKit/537.36 (KHTML, like Gecko) Chrome/138.0.0.0 Safari/537.36","WebKit","Chrome","138.0.0.0","Windows","10.0","https://app.prolific.com/","en-US,en;q=0.9","67599ff233234e646e9fe3ca","683dba2a8a9dda3513610c04","6889a23862266cc1853462bc","3","0","67599ff233234e646e9fe3ca","3","0","2025-07-30T04:46:49.591Z","","","","","","","","","","","ControlQ","","50","","","","","","","","","","","","","","","","","","","","","","","","","","","","",""
"5228","","<div style=""width:500px;"">
  <p>How would you describe your current emotional state?</p>
  </div>","53","html-slider-response","32","366712","0.0-5.0-3.4","247","1","2025-07-30 04:40:46","1f75c3e559b7213887762d5229550c2b","165.225.16.188","Mozilla/5.0 (Windows NT 10.0; Win64; x64) AppleWebKit/537.36 (KHTML, like Gecko) Chrome/138.0.0.0 Safari/537.36","WebKit","Chrome","138.0.0.0","Windows","10.0","https://app.prolific.com/","en-US,en;q=0.9","67599ff233234e646e9fe3ca","683dba2a8a9dda3513610c04","6889a23862266cc1853462bc","3","0","67599ff233234e646e9fe3ca","3","0","2025-07-30T04:46:54.821Z","","","","","","","","","","","StressQ","","50","","","","","","","","","","","","","","","","","","","","","","","","","","","","",""
"4189","","<div style=""width:500px;"">
  <p>What best describes how you currently feel?</p>
  </div>","57","html-slider-response","33","370902","0.0-5.0-4.4","247","1","2025-07-30 04:40:46","1f75c3e559b7213887762d5229550c2b","165.225.16.188","Mozilla/5.0 (Windows NT 10.0; Win64; x64) AppleWebKit/537.36 (KHTML, like Gecko) Chrome/138.0.0.0 Safari/537.36","WebKit","Chrome","138.0.0.0","Windows","10.0","https://app.prolific.com/","en-US,en;q=0.9","67599ff233234e646e9fe3ca","683dba2a8a9dda3513610c04","6889a23862266cc1853462bc","3","0","67599ff233234e646e9fe3ca","3","0","2025-07-30T04:46:59.011Z","","","","","","","","","","","MotivationQ","","50","","","","","","","","","","","","","","","","","","","","","","","","","","","","",""
"","","","","ctl-task-cpt","34","393796","0.0-5.0-0.5","247","1","2025-07-30 04:40:46","1f75c3e559b7213887762d5229550c2b","165.225.16.188","Mozilla/5.0 (Windows NT 10.0; Win64; x64) AppleWebKit/537.36 (KHTML, like Gecko) Chrome/138.0.0.0 Safari/537.36","WebKit","Chrome","138.0.0.0","Windows","10.0","https://app.prolific.com/","en-US,en;q=0.9","67599ff233234e646e9fe3ca","683dba2a8a9dda3513610c04","6889a23862266cc1853462bc","3","0","67599ff233234e646e9fe3ca","3","0","2025-07-30T04:47:21.904Z","","","","","","","","","","","","","","win-only","0","g1:NW,g2:SE","0.5","6","0","373710.4","1509.6","6511.7","19880.3","1","4","4","6","1","1","1","1","0","0.007575757575757576","1698.5","3000","1710","[""left"",""up""]","{""num_key_presses"":4,""num_perfect"":3,""num_errors"":0,""num_randdir"":1,""num_randdir_good_moves"":1,""num_whilered"":0,""num_whileblue"":0,""num_blue"":1,""num_good_moves"":4}","[412.07142857142856,416.1808016640799,0.2,412.07142857142856,416.1808016640799,100,412.07142857142856,416.1808016640799,201.8,412.07142857142856,416.1808016640799,306.4,412.07142857142856,416.1808016640799,406.5,412.07142857142856,416.1808016640799,515.9,602.5714285714286,467.1808016640799,622.3,664.0714285714286,563.1808016640799,726.1,667.0714285714286,660.6808016640799,826.4,668.5714285714286,669.6808016640799,931.9,560.5714285714286,566.1808016640799,1032.5,224.57142857142856,353.1808016640799,1132.8,181.07142857142856,290.1808016640799,1235.6,143.57142857142856,222.68080166407992,1336.1,83.57142857142857,140.18080166407992,1440.9,53.57142857142857,105.68080166407994,1549.2,53.57142857142857,104.18080166407994,1650.3,53.57142857142857,104.18080166407994,1752.2,53.57142857142857,104.18080166407994,1855.7,53.57142857142857,104.18080166407994,1956,53.57142857142857,104.18080166407994,2056.1,53.57142857142857,104.18080166407994,2156.3,449.57142857142856,182.18080166407992,2266.4,742.0714285714286,227.18080166407992,2372.5,883.0714285714286,263.1808016640799,2476.3,929.5714285714286,221.18080166407992,2584.9,929.5714285714286,221.18080166407992,2686.1,929.5714285714286,221.18080166407992,2786.4,929.5714285714286,221.18080166407992,2886.5,929.5714285714286,221.18080166407992,2991.7,929.5714285714286,221.18080166407992,3098.7,929.5714285714286,221.18080166407992,3199.9,929.5714285714286,221.18080166407992,3301,929.5714285714286,221.18080166407992,3401.1,929.5714285714286,221.18080166407992,3506.2,929.5714285714286,221.18080166407992,3615,929.5714285714286,221.18080166407992,3715.8,929.5714285714286,221.18080166407992,3815.8,929.5714285714286,221.18080166407992,3917.5,929.5714285714286,221.18080166407992,4019.3,929.5714285714286,221.18080166407992,4122.3,929.5714285714286,221.18080166407992,4225.8,929.5714285714286,221.18080166407992,4326.3,929.5714285714286,221.18080166407992,4426.3,929.5714285714286,221.18080166407992,4532.8,929.5714285714286,221.18080166407992,4635.7,929.5714285714286,221.18080166407992,4736.5,929.5714285714286,221.18080166407992,4842.2,929.5714285714286,221.18080166407992,4949.2]","[4561.9,4561.9,2184.7,2013.7,363.5,""smooth"",""up"",""up"",""good_move"",7722.7,3160.1,2777.3,4562.6,382.8,""oops"",""left"",""up"",""good_move"",10445.7,2722.8,2335,7722.9,387.8,""smooth"",""left"",""left"",""good_move"",13268.7,2822.7,2455.9,10446,366.8,""smooth"",""left"",""left"",""good_move""]","",""
"5261","","<div style=""width:500px;"">
  <p>What determined the result of this run?</p>
  </div>","64","html-slider-response","35","399058","0.0-5.0-1.5","247","1","2025-07-30 04:40:46","1f75c3e559b7213887762d5229550c2b","165.225.16.188","Mozilla/5.0 (Windows NT 10.0; Win64; x64) AppleWebKit/537.36 (KHTML, like Gecko) Chrome/138.0.0.0 Safari/537.36","WebKit","Chrome","138.0.0.0","Windows","10.0","https://app.prolific.com/","en-US,en;q=0.9","67599ff233234e646e9fe3ca","683dba2a8a9dda3513610c04","6889a23862266cc1853462bc","3","0","67599ff233234e646e9fe3ca","3","0","2025-07-30T04:47:27.166Z","","","","","","","","","","","AttribQ","","50","","","","","","","","","","","","","","","","","","","","","","","","","","","","",""
"3794","","<div style=""width:500px;"">
  <p>How much control did you have over the ball?</p>
  </div>","44","html-slider-response","36","402853","0.0-5.0-2.5","247","1","2025-07-30 04:40:46","1f75c3e559b7213887762d5229550c2b","165.225.16.188","Mozilla/5.0 (Windows NT 10.0; Win64; x64) AppleWebKit/537.36 (KHTML, like Gecko) Chrome/138.0.0.0 Safari/537.36","WebKit","Chrome","138.0.0.0","Windows","10.0","https://app.prolific.com/","en-US,en;q=0.9","67599ff233234e646e9fe3ca","683dba2a8a9dda3513610c04","6889a23862266cc1853462bc","3","0","67599ff233234e646e9fe3ca","3","0","2025-07-30T04:47:30.961Z","","","","","","","","","","","ControlQ","","50","","","","","","","","","","","","","","","","","","","","","","","","","","","","",""
"4807","","<div style=""width:500px;"">
  <p>How would you describe your current emotional state?</p>
  </div>","54","html-slider-response","37","407661","0.0-5.0-3.5","247","1","2025-07-30 04:40:46","1f75c3e559b7213887762d5229550c2b","165.225.16.188","Mozilla/5.0 (Windows NT 10.0; Win64; x64) AppleWebKit/537.36 (KHTML, like Gecko) Chrome/138.0.0.0 Safari/537.36","WebKit","Chrome","138.0.0.0","Windows","10.0","https://app.prolific.com/","en-US,en;q=0.9","67599ff233234e646e9fe3ca","683dba2a8a9dda3513610c04","6889a23862266cc1853462bc","3","0","67599ff233234e646e9fe3ca","3","0","2025-07-30T04:47:35.770Z","","","","","","","","","","","StressQ","","50","","","","","","","","","","","","","","","","","","","","","","","","","","","","",""
"4630","","<div style=""width:500px;"">
  <p>What best describes how you currently feel?</p>
  </div>","55","html-slider-response","38","412293","0.0-5.0-4.5","247","1","2025-07-30 04:40:46","1f75c3e559b7213887762d5229550c2b","165.225.16.188","Mozilla/5.0 (Windows NT 10.0; Win64; x64) AppleWebKit/537.36 (KHTML, like Gecko) Chrome/138.0.0.0 Safari/537.36","WebKit","Chrome","138.0.0.0","Windows","10.0","https://app.prolific.com/","en-US,en;q=0.9","67599ff233234e646e9fe3ca","683dba2a8a9dda3513610c04","6889a23862266cc1853462bc","3","0","67599ff233234e646e9fe3ca","3","0","2025-07-30T04:47:40.401Z","","","","","","","","","","","MotivationQ","","50","","","","","","","","","","","","","","","","","","","","","","","","","","","","",""
"","","","","ctl-task-cpt","39","440145","0.0-5.0-0.6","247","1","2025-07-30 04:40:46","1f75c3e559b7213887762d5229550c2b","165.225.16.188","Mozilla/5.0 (Windows NT 10.0; Win64; x64) AppleWebKit/537.36 (KHTML, like Gecko) Chrome/138.0.0.0 Safari/537.36","WebKit","Chrome","138.0.0.0","Windows","10.0","https://app.prolific.com/","en-US,en;q=0.9","67599ff233234e646e9fe3ca","683dba2a8a9dda3513610c04","6889a23862266cc1853462bc","3","0","67599ff233234e646e9fe3ca","3","0","2025-07-30T04:48:08.253Z","","","","","","","","","","","","","","win-only","2","g1:SE,g2:NW","0.4","7","0","415100.1","1370.6","6371.5","24833.5","1","4","4","6","1","1","1","2","1","0.015151515151515152","1565.6","3000","710","[""down"",""right""]","{""num_key_presses"":6,""num_perfect"":2,""num_errors"":0,""num_randdir"":4,""num_randdir_good_moves"":3,""num_whilered"":0,""num_whileblue"":0,""num_blue"":1,""num_good_moves"":5}","[428.57142857142856,416.1808016640799,0.2,428.57142857142856,416.1808016640799,101.2,428.57142857142856,416.1808016640799,205.6,428.57142857142856,416.1808016640799,310.7,428.57142857142856,416.1808016640799,411.4,428.57142857142856,416.1808016640799,512.5,428.57142857142856,416.1808016640799,613.1,506.57142857142856,416.1808016640799,714.9,590.5714285714286,443.1808016640799,815.4,727.0714285714286,591.6808016640799,916.6,719.5714285714286,609.6808016640799,1019.8,704.5714285714286,662.1808016640799,1125,719.5714285714286,719.1808016640799,1226,739.0714285714286,743.1808016640799,1331,751.0714285714286,764.1808016640799,1435.4,751.0714285714286,764.1808016640799,1535.4,751.0714285714286,764.1808016640799,1635.6,751.0714285714286,764.1808016640799,1736.6,751.0714285714286,764.1808016640799,1841.5,751.0714285714286,764.1808016640799,1949.6,1001.5714285714286,620.1808016640799,2049.9,1109.5714285714287,549.6808016640799,2155.3,1154.5714285714287,521.1808016640799,2255.8,1154.5714285714287,521.1808016640799,2360.5,1154.5714285714287,521.1808016640799,2467.6,1154.5714285714287,521.1808016640799,2571.7,1154.5714285714287,521.1808016640799,2674.7,1154.5714285714287,521.1808016640799,2775.7,1154.5714285714287,521.1808016640799,2880.2,1154.5714285714287,521.1808016640799,2985.7,1154.5714285714287,521.1808016640799,3090.1,1154.5714285714287,521.1808016640799,3190.4,1154.5714285714287,521.1808016640799,3290.7,1154.5714285714287,521.1808016640799,3394.9,1154.5714285714287,521.1808016640799,3495.2,1154.5714285714287,521.1808016640799,3595.8,1154.5714285714287,521.1808016640799,3697.8,1154.5714285714287,521.1808016640799,3800.6,1154.5714285714287,521.1808016640799,3905.5,1154.5714285714287,521.1808016640799,4005.6,1154.5714285714287,521.1808016640799,4106.5,1154.5714285714287,521.1808016640799,4210.8,1154.5714285714287,521.1808016640799,4310.9,1154.5714285714287,521.1808016640799,4415.7,1154.5714285714287,521.1808016640799,4515.9,1154.5714285714287,521.1808016640799,4618.2,1154.5714285714287,521.1808016640799,4720.2,1154.5714285714287,521.1808016640799,4825.9,1154.5714285714287,521.1808016640799,4933]","[5025.1,5025.1,2552.7,2010,462.4,""oops"",""right"",""up"",""bad_move"",7624.7,2599.2,2140.9,5025.5,458.3,""oops"",""right"",""right"",""good_move"",10828.6,3203.5,2872.7,7625.1,330.8,""smooth"",""down"",""down"",""good_move"",13393.5,2564.5,2218.3,10829.1,346.1,""oops"",""down"",""right"",""good_move"",15944.8,2550.8,2227,13394,323.8,""smooth"",""down"",""down"",""good_move"",18376.6,2431.6,2020.5,15945,411.1,""oops"",""down"",""down"",""good_move""]","",""
"4250","","<div style=""width:500px;"">
  <p>What determined the result of this run?</p>
  </div>","55","html-slider-response","40","444396","0.0-5.0-1.6","247","1","2025-07-30 04:40:46","1f75c3e559b7213887762d5229550c2b","165.225.16.188","Mozilla/5.0 (Windows NT 10.0; Win64; x64) AppleWebKit/537.36 (KHTML, like Gecko) Chrome/138.0.0.0 Safari/537.36","WebKit","Chrome","138.0.0.0","Windows","10.0","https://app.prolific.com/","en-US,en;q=0.9","67599ff233234e646e9fe3ca","683dba2a8a9dda3513610c04","6889a23862266cc1853462bc","3","0","67599ff233234e646e9fe3ca","3","0","2025-07-30T04:48:12.504Z","","","","","","","","","","","AttribQ","","50","","","","","","","","","","","","","","","","","","","","","","","","","","","","",""
"3145","","<div style=""width:500px;"">
  <p>How much control did you have over the ball?</p>
  </div>","42","html-slider-response","41","447542","0.0-5.0-2.6","247","1","2025-07-30 04:40:46","1f75c3e559b7213887762d5229550c2b","165.225.16.188","Mozilla/5.0 (Windows NT 10.0; Win64; x64) AppleWebKit/537.36 (KHTML, like Gecko) Chrome/138.0.0.0 Safari/537.36","WebKit","Chrome","138.0.0.0","Windows","10.0","https://app.prolific.com/","en-US,en;q=0.9","67599ff233234e646e9fe3ca","683dba2a8a9dda3513610c04","6889a23862266cc1853462bc","3","0","67599ff233234e646e9fe3ca","3","0","2025-07-30T04:48:15.650Z","","","","","","","","","","","ControlQ","","50","","","","","","","","","","","","","","","","","","","","","","","","","","","","",""
"4618","","<div style=""width:500px;"">
  <p>How would you describe your current emotional state?</p>
  </div>","47","html-slider-response","42","452161","0.0-5.0-3.6","247","1","2025-07-30 04:40:46","1f75c3e559b7213887762d5229550c2b","165.225.16.188","Mozilla/5.0 (Windows NT 10.0; Win64; x64) AppleWebKit/537.36 (KHTML, like Gecko) Chrome/138.0.0.0 Safari/537.36","WebKit","Chrome","138.0.0.0","Windows","10.0","https://app.prolific.com/","en-US,en;q=0.9","67599ff233234e646e9fe3ca","683dba2a8a9dda3513610c04","6889a23862266cc1853462bc","3","0","67599ff233234e646e9fe3ca","3","0","2025-07-30T04:48:20.269Z","","","","","","","","","","","StressQ","","50","","","","","","","","","","","","","","","","","","","","","","","","","","","","",""
"2871","","<div style=""width:500px;"">
  <p>What best describes how you currently feel?</p>
  </div>","55","html-slider-response","43","455033","0.0-5.0-4.6","247","1","2025-07-30 04:40:46","1f75c3e559b7213887762d5229550c2b","165.225.16.188","Mozilla/5.0 (Windows NT 10.0; Win64; x64) AppleWebKit/537.36 (KHTML, like Gecko) Chrome/138.0.0.0 Safari/537.36","WebKit","Chrome","138.0.0.0","Windows","10.0","https://app.prolific.com/","en-US,en;q=0.9","67599ff233234e646e9fe3ca","683dba2a8a9dda3513610c04","6889a23862266cc1853462bc","3","0","67599ff233234e646e9fe3ca","3","0","2025-07-30T04:48:23.141Z","","","","","","","","","","","MotivationQ","","50","","","","","","","","","","","","","","","","","","","","","","","","","","","","",""
"","","","","ctl-task-cpt","44","504244","0.0-5.0-0.7","247","1","2025-07-30 04:40:46","1f75c3e559b7213887762d5229550c2b","165.225.16.188","Mozilla/5.0 (Windows NT 10.0; Win64; x64) AppleWebKit/537.36 (KHTML, like Gecko) Chrome/138.0.0.0 Safari/537.36","WebKit","Chrome","138.0.0.0","Windows","10.0","https://app.prolific.com/","en-US,en;q=0.9","67599ff233234e646e9fe3ca","683dba2a8a9dda3513610c04","6889a23862266cc1853462bc","3","0","67599ff233234e646e9fe3ca","3","0","2025-07-30T04:49:12.353Z","","","","","","","","","","","","","","win-only","0","g1:NW,g2:SE","0.3","8","0","457840.6","1092.5","6093.5","46192.4","1","4","8","6","1","-1","-1","1","2","0.007575757575757576","1769.9","3000","-2710","[""left"",""up""]","{""num_key_presses"":8,""num_perfect"":2,""num_errors"":0,""num_randdir"":6,""num_randdir_good_moves"":2,""num_whilered"":0,""num_whileblue"":0,""num_blue"":5,""num_good_moves"":4}","[416.57142857142856,416.1808016640799,0.1,416.57142857142856,416.1808016640799,101.3,416.57142857142856,416.1808016640799,205.1,416.57142857142856,416.1808016640799,309.1,464.57142857142856,434.1808016640799,418.2,829.0714285714286,510.6808016640799,518.2,886.0714285714286,528.6808016640799,619.1,883.0714285714286,527.1808016640799,723.8,748.0714285714286,479.1808016640799,824.5,455.57142857142856,311.1808016640799,928.3,305.57142857142856,267.6808016640799,1028.4,299.57142857142856,263.1808016640799,1129.2,299.57142857142856,263.1808016640799,1235.8,221.57142857142856,198.68080166407992,1338.4,106.07142857142857,138.68080166407992,1438.5,88.07142857142857,111.68080166407994,1538.8,62.57142857142857,66.68080166407994,1643.8,61.07142857142857,63.68080166407994,1751.6,61.07142857142857,63.68080166407994,1851.7,61.07142857142857,63.68080166407994,1952.1,61.07142857142857,63.68080166407994,2052.2,61.07142857142857,63.68080166407994,2154.1,-105.42857142857143,242.18080166407992,2254.1,-171.42857142857144,296.1808016640799,2357.9,-228.42857142857144,306.6808016640799,2458.3,-232.92857142857144,305.1808016640799,2566.9,-232.92857142857144,305.1808016640799,2667.9,-232.92857142857144,305.1808016640799,2772.8,-232.92857142857144,305.1808016640799,2878.1,-232.92857142857144,305.1808016640799,2983.8,-232.92857142857144,305.1808016640799,3084.2,-232.92857142857144,305.1808016640799,3188.2,-232.92857142857144,305.1808016640799,3293.3,-232.92857142857144,305.1808016640799,3394.1,-232.92857142857144,305.1808016640799,3501.3,-232.92857142857144,305.1808016640799,3602.4,-232.92857142857144,305.1808016640799,3702.7,-232.92857142857144,305.1808016640799,3802.7,-232.92857142857144,305.1808016640799,3907.8,-232.92857142857144,305.1808016640799,4008,-232.92857142857144,305.1808016640799,4109.7,-232.92857142857144,305.1808016640799,4217.8,-232.92857142857144,305.1808016640799,4318.3,-232.92857142857144,305.1808016640799,4424.1,-232.92857142857144,305.1808016640799,4524.2,-232.92857142857144,305.1808016640799,4628.9,-232.92857142857144,305.1808016640799,4735.9,-232.92857142857144,305.1808016640799,4838.6,-232.92857142857144,305.1808016640799,4944.2]","[4802,4802,2372.5,2002.2,427.3,""oops"",""up"",""right"",""bad_move"",11784,6981.4,2620.2,8752.9,410.9,""oops"",""up"",""right"",""bad_move"",14798.1,3014,2574.5,11784.1,439.5,""oops"",""up"",""left"",""good_move"",16933.7,2135.2,1712.1,14798.5,423.1,""oops"",""up"",""up"",""good_move"",19189.5,2255.4,1900.9,16934.1,354.5,""oops"",""left"",""down"",""bad_move"",28698.1,9508,2300.3,25957.3,440.5,""oops"",""left"",""down"",""bad_move"",34530.9,5832.3,2184.8,31916.4,429.7,""smooth"",""left"",""left"",""good_move"",37219,2687.8,2260,34531.3,427.7,""smooth"",""left"",""left"",""good_move""]","",""
"12096","","<div style=""width:500px;"">
  <p>What determined the result of this run?</p>
  </div>","22","html-slider-response","45","516342","0.0-5.0-1.7","247","1","2025-07-30 04:40:46","1f75c3e559b7213887762d5229550c2b","165.225.16.188","Mozilla/5.0 (Windows NT 10.0; Win64; x64) AppleWebKit/537.36 (KHTML, like Gecko) Chrome/138.0.0.0 Safari/537.36","WebKit","Chrome","138.0.0.0","Windows","10.0","https://app.prolific.com/","en-US,en;q=0.9","67599ff233234e646e9fe3ca","683dba2a8a9dda3513610c04","6889a23862266cc1853462bc","3","0","67599ff233234e646e9fe3ca","3","0","2025-07-30T04:49:24.450Z","","","","","","","","","","","AttribQ","","50","","","","","","","","","","","","","","","","","","","","","","","","","","","","",""
"3283","","<div style=""width:500px;"">
  <p>How much control did you have over the ball?</p>
  </div>","20","html-slider-response","46","519626","0.0-5.0-2.7","247","1","2025-07-30 04:40:46","1f75c3e559b7213887762d5229550c2b","165.225.16.188","Mozilla/5.0 (Windows NT 10.0; Win64; x64) AppleWebKit/537.36 (KHTML, like Gecko) Chrome/138.0.0.0 Safari/537.36","WebKit","Chrome","138.0.0.0","Windows","10.0","https://app.prolific.com/","en-US,en;q=0.9","67599ff233234e646e9fe3ca","683dba2a8a9dda3513610c04","6889a23862266cc1853462bc","3","0","67599ff233234e646e9fe3ca","3","0","2025-07-30T04:49:27.735Z","","","","","","","","","","","ControlQ","","50","","","","","","","","","","","","","","","","","","","","","","","","","","","","",""
"2423","","<div style=""width:500px;"">
  <p>How would you describe your current emotional state?</p>
  </div>","58","html-slider-response","47","522051","0.0-5.0-3.7","247","1","2025-07-30 04:40:46","1f75c3e559b7213887762d5229550c2b","165.225.16.188","Mozilla/5.0 (Windows NT 10.0; Win64; x64) AppleWebKit/537.36 (KHTML, like Gecko) Chrome/138.0.0.0 Safari/537.36","WebKit","Chrome","138.0.0.0","Windows","10.0","https://app.prolific.com/","en-US,en;q=0.9","67599ff233234e646e9fe3ca","683dba2a8a9dda3513610c04","6889a23862266cc1853462bc","3","0","67599ff233234e646e9fe3ca","3","0","2025-07-30T04:49:30.159Z","","","","","","","","","","","StressQ","","50","","","","","","","","","","","","","","","","","","","","","","","","","","","","",""
"3401","","<div style=""width:500px;"">
  <p>What best describes how you currently feel?</p>
  </div>","43","html-slider-response","48","525453","0.0-5.0-4.7","247","1","2025-07-30 04:40:46","1f75c3e559b7213887762d5229550c2b","165.225.16.188","Mozilla/5.0 (Windows NT 10.0; Win64; x64) AppleWebKit/537.36 (KHTML, like Gecko) Chrome/138.0.0.0 Safari/537.36","WebKit","Chrome","138.0.0.0","Windows","10.0","https://app.prolific.com/","en-US,en;q=0.9","67599ff233234e646e9fe3ca","683dba2a8a9dda3513610c04","6889a23862266cc1853462bc","3","0","67599ff233234e646e9fe3ca","3","0","2025-07-30T04:49:33.561Z","","","","","","","","","","","MotivationQ","","50","","","","","","","","","","","","","","","","","","","","","","","","","","","","",""
"","","","","ctl-task-cpt","49","565659","0.0-5.0-0.8","247","1","2025-07-30 04:40:46","1f75c3e559b7213887762d5229550c2b","165.225.16.188","Mozilla/5.0 (Windows NT 10.0; Win64; x64) AppleWebKit/537.36 (KHTML, like Gecko) Chrome/138.0.0.0 Safari/537.36","WebKit","Chrome","138.0.0.0","Windows","10.0","https://app.prolific.com/","en-US,en;q=0.9","67599ff233234e646e9fe3ca","683dba2a8a9dda3513610c04","6889a23862266cc1853462bc","3","0","67599ff233234e646e9fe3ca","3","0","2025-07-30T04:50:13.767Z","","","","","","","","","","","","","","win-only","3","g1:SW,g2:NE","0.2","9","0","528260","4103.6","9105","37195.9","1","4","8","6","1","-1","-1","0","1","0","1652.5","3000","-2680","[""down"",""left""]","{""num_key_presses"":8,""num_perfect"":2,""num_errors"":0,""num_randdir"":6,""num_randdir_good_moves"":2,""num_whilered"":0,""num_whileblue"":0,""num_blue"":1,""num_good_moves"":4}","[415.07142857142856,407.1808016640799,0.3,415.07142857142856,407.1808016640799,101.7,415.07142857142856,407.1808016640799,202.6,415.07142857142856,407.1808016640799,306.5,415.07142857142856,407.1808016640799,406.6,415.07142857142856,407.1808016640799,507.2,415.07142857142856,407.1808016640799,607.2,415.07142857142856,407.1808016640799,713.1,458.57142857142856,377.1808016640799,819.7,493.07142857142856,369.6808016640799,919.7,380.57142857142856,453.6808016640799,1019.8,247.07142857142856,593.1808016640799,1120.3,203.57142857142856,647.1808016640799,1221.5,119.57142857142857,744.6808016640799,1323.1,88.07142857142857,755.1808016640799,1427.9,82.07142857142857,752.1808016640799,1535.7,82.07142857142857,752.1808016640799,1636.3,82.07142857142857,752.1808016640799,1737.8,82.07142857142857,752.1808016640799,1843,82.07142857142857,752.1808016640799,1952.6,82.07142857142857,752.1808016640799,2056.7,47.57142857142857,758.1808016640799,2157.1,-129.42857142857144,815.1808016640799,2257.3,-141.42857142857144,813.6808016640799,2361.7,-156.42857142857144,807.6808016640799,2469.8,-165.42857142857144,809.1808016640799,2570.4,-165.42857142857144,809.1808016640799,2672.4,-165.42857142857144,809.1808016640799,2772.5,-165.42857142857144,809.1808016640799,2872.5,-165.42857142857144,809.1808016640799,2973.2,-165.42857142857144,809.1808016640799,3076.7,-165.42857142857144,809.1808016640799,3176.7,-165.42857142857144,809.1808016640799,3277.1,-165.42857142857144,809.1808016640799,3384.9,-165.42857142857144,809.1808016640799,3486.7,-165.42857142857144,809.1808016640799,3588.4,-165.42857142857144,809.1808016640799,3692.2,-165.42857142857144,809.1808016640799,3792.5,-165.42857142857144,809.1808016640799,3897.7,-165.42857142857144,809.1808016640799,4003.2,-165.42857142857144,809.1808016640799,4103.4,-165.42857142857144,809.1808016640799,4206.9,-165.42857142857144,809.1808016640799,4313.3,-165.42857142857144,809.1808016640799,4418.3,-165.42857142857144,809.1808016640799,4523.2,-165.42857142857144,809.1808016640799,4627.8,-165.42857142857144,809.1808016640799,4734.7,-165.42857142857144,809.1808016640799,4835.1,-165.42857142857144,809.1808016640799,4935.5]","[1482.5,1482.5,1000,0,482.5,""smooth"",""left"",""left"",""good_move"",3471,1988.3,1593.9,1482.7,394.4,""smooth"",""left"",""left"",""good_move"",6402,2930.8,2582.1,3471.2,348.7,""oops"",""down"",""up"",""bad_move"",9149,2746.8,2402.9,6402.2,343.9,""oops"",""down"",""right"",""bad_move"",15899.2,6749.9,2619.6,12905.8,373.8,""oops"",""down"",""right"",""bad_move"",19204.1,3304.8,2888.7,15899.3,416.1,""oops"",""down"",""down"",""good_move"",22036.2,2831.9,2436.6,19204.3,395.3,""oops"",""down"",""down"",""good_move"",25519.9,3483.6,3016.4,22036.3,467.2,""oops"",""down"",""right"",""bad_move""]","",""
"3880","","<div style=""width:500px;"">
  <p>What determined the result of this run?</p>
  </div>","23","html-slider-response","50","569540","0.0-5.0-1.8","247","1","2025-07-30 04:40:46","1f75c3e559b7213887762d5229550c2b","165.225.16.188","Mozilla/5.0 (Windows NT 10.0; Win64; x64) AppleWebKit/537.36 (KHTML, like Gecko) Chrome/138.0.0.0 Safari/537.36","WebKit","Chrome","138.0.0.0","Windows","10.0","https://app.prolific.com/","en-US,en;q=0.9","67599ff233234e646e9fe3ca","683dba2a8a9dda3513610c04","6889a23862266cc1853462bc","3","0","67599ff233234e646e9fe3ca","3","0","2025-07-30T04:50:17.648Z","","","","","","","","","","","AttribQ","","50","","","","","","","","","","","","","","","","","","","","","","","","","","","","",""
"8617","","<div style=""width:500px;"">
  <p>How much control did you have over the ball?</p>
  </div>","17","html-slider-response","51","578158","0.0-5.0-2.8","247","1","2025-07-30 04:40:46","1f75c3e559b7213887762d5229550c2b","165.225.16.188","Mozilla/5.0 (Windows NT 10.0; Win64; x64) AppleWebKit/537.36 (KHTML, like Gecko) Chrome/138.0.0.0 Safari/537.36","WebKit","Chrome","138.0.0.0","Windows","10.0","https://app.prolific.com/","en-US,en;q=0.9","67599ff233234e646e9fe3ca","683dba2a8a9dda3513610c04","6889a23862266cc1853462bc","3","0","67599ff233234e646e9fe3ca","3","0","2025-07-30T04:50:26.266Z","","","","","","","","","","","ControlQ","","50","","","","","","","","","","","","","","","","","","","","","","","","","","","","",""
"3379","","<div style=""width:500px;"">
  <p>How would you describe your current emotional state?</p>
  </div>","57","html-slider-response","52","581538","0.0-5.0-3.8","247","1","2025-07-30 04:40:46","1f75c3e559b7213887762d5229550c2b","165.225.16.188","Mozilla/5.0 (Windows NT 10.0; Win64; x64) AppleWebKit/537.36 (KHTML, like Gecko) Chrome/138.0.0.0 Safari/537.36","WebKit","Chrome","138.0.0.0","Windows","10.0","https://app.prolific.com/","en-US,en;q=0.9","67599ff233234e646e9fe3ca","683dba2a8a9dda3513610c04","6889a23862266cc1853462bc","3","0","67599ff233234e646e9fe3ca","3","0","2025-07-30T04:50:29.646Z","","","","","","","","","","","StressQ","","50","","","","","","","","","","","","","","","","","","","","","","","","","","","","",""
"3261","","<div style=""width:500px;"">
  <p>What best describes how you currently feel?</p>
  </div>","42","html-slider-response","53","584801","0.0-5.0-4.8","247","1","2025-07-30 04:40:46","1f75c3e559b7213887762d5229550c2b","165.225.16.188","Mozilla/5.0 (Windows NT 10.0; Win64; x64) AppleWebKit/537.36 (KHTML, like Gecko) Chrome/138.0.0.0 Safari/537.36","WebKit","Chrome","138.0.0.0","Windows","10.0","https://app.prolific.com/","en-US,en;q=0.9","67599ff233234e646e9fe3ca","683dba2a8a9dda3513610c04","6889a23862266cc1853462bc","3","0","67599ff233234e646e9fe3ca","3","0","2025-07-30T04:50:32.909Z","","","","","","","","","","","MotivationQ","","50","","","","","","","","","","","","","","","","","","","","","","","","","","","","",""
"","","","","ctl-task-cpt","54","619732","0.0-5.0-0.9","247","1","2025-07-30 04:40:46","1f75c3e559b7213887762d5229550c2b","165.225.16.188","Mozilla/5.0 (Windows NT 10.0; Win64; x64) AppleWebKit/537.36 (KHTML, like Gecko) Chrome/138.0.0.0 Safari/537.36","WebKit","Chrome","138.0.0.0","Windows","10.0","https://app.prolific.com/","en-US,en;q=0.9","67599ff233234e646e9fe3ca","683dba2a8a9dda3513610c04","6889a23862266cc1853462bc","3","0","67599ff233234e646e9fe3ca","3","0","2025-07-30T04:51:07.840Z","","","","","","","","","","","","","","win-only","2","g1:SE,g2:NW","0.4","10","0","587608.5","1499.8","6501.2","31910.7","1","4","4","6","1","-1","-1","0","0","0","1364.2","3000","-3010","[""down"",""right""]","{""num_key_presses"":7,""num_perfect"":2,""num_errors"":0,""num_randdir"":5,""num_randdir_good_moves"":3,""num_whilered"":0,""num_whileblue"":0,""num_blue"":1,""num_good_moves"":5}","[418.07142857142856,419.1808016640799,0.4,418.07142857142856,419.1808016640799,100.6,418.07142857142856,419.1808016640799,201.6,418.07142857142856,419.1808016640799,301.8,418.07142857142856,419.1808016640799,406.1,418.07142857142856,419.1808016640799,510.6,418.07142857142856,419.1808016640799,611.7,497.57142857142856,474.6808016640799,716.2,626.5714285714286,635.1808016640799,822,676.0714285714286,674.1808016640799,926,706.0714285714286,689.1808016640799,1026.3,767.5714285714286,741.6808016640799,1130.6,767.5714285714286,746.1808016640799,1230.7,767.5714285714286,746.1808016640799,1331.9,767.5714285714286,746.1808016640799,1435.9,767.5714285714286,746.1808016640799,1537.1,767.5714285714286,746.1808016640799,1637.8,767.5714285714286,746.1808016640799,1740.8,932.5714285714286,689.1808016640799,1841.5,947.5714285714286,686.1808016640799,1945.6,976.0714285714286,672.6808016640799,2046.3,979.0714285714286,674.1808016640799,2150.6,979.0714285714286,674.1808016640799,2250.6,979.0714285714286,674.1808016640799,2352.4,979.0714285714286,674.1808016640799,2456.6,979.0714285714286,674.1808016640799,2561.7,979.0714285714286,674.1808016640799,2665.7,979.0714285714286,674.1808016640799,2770.6,979.0714285714286,674.1808016640799,2870.6,979.0714285714286,674.1808016640799,2971.4,979.0714285714286,674.1808016640799,3071.7,979.0714285714286,674.1808016640799,3172.2,979.0714285714286,674.1808016640799,3272.5,979.0714285714286,674.1808016640799,3376.7,979.0714285714286,674.1808016640799,3480.8,979.0714285714286,674.1808016640799,3581.1,979.0714285714286,674.1808016640799,3687.7,979.0714285714286,674.1808016640799,3790.7,979.0714285714286,674.1808016640799,3896.1,979.0714285714286,674.1808016640799,4003.8,979.0714285714286,674.1808016640799,4105.6,979.0714285714286,674.1808016640799,4205.8,979.0714285714286,674.1808016640799,4306.7,979.0714285714286,674.1808016640799,4408.4,979.0714285714286,674.1808016640799,4510,979.0714285714286,674.1808016640799,4610.5,979.0714285714286,674.1808016640799,4711.1,979.0714285714286,674.1808016640799,4811.5,979.0714285714286,674.1808016640799,4915.8]","[1434.6,1434.7,1000,0,434.7,""oops"",""right"",""right"",""good_move"",4137.6,2702.2,2328.3,1435.4,373.9,""oops"",""right"",""left"",""bad_move"",7121.5,2983.1,2615.9,4138.4,367.2,""oops"",""right"",""right"",""good_move"",12810.2,5688.3,1869,10499,442.2,""oops"",""down"",""down"",""good_move"",15698.9,2888.5,2526.8,12810.4,361.7,""oops"",""right"",""left"",""bad_move"",18796.9,3097.6,2682.3,15699.3,415.3,""smooth"",""right"",""right"",""good_move"",22386.6,3589.4,3195.7,18797.3,393.7,""smooth"",""right"",""right"",""good_move""]","",""
"18049","","<div style=""width:500px;"">
  <p>What determined the result of this run?</p>
  </div>","22","html-slider-response","55","637782","0.0-5.0-1.9","247","1","2025-07-30 04:40:46","1f75c3e559b7213887762d5229550c2b","165.225.16.188","Mozilla/5.0 (Windows NT 10.0; Win64; x64) AppleWebKit/537.36 (KHTML, like Gecko) Chrome/138.0.0.0 Safari/537.36","WebKit","Chrome","138.0.0.0","Windows","10.0","https://app.prolific.com/","en-US,en;q=0.9","67599ff233234e646e9fe3ca","683dba2a8a9dda3513610c04","6889a23862266cc1853462bc","3","0","67599ff233234e646e9fe3ca","3","0","2025-07-30T04:51:25.890Z","","","","","","","","","","","AttribQ","","50","","","","","","","","","","","","","","","","","","","","","","","","","","","","",""
"3832","","<div style=""width:500px;"">
  <p>How much control did you have over the ball?</p>
  </div>","27","html-slider-response","56","641616","0.0-5.0-2.9","247","1","2025-07-30 04:40:46","1f75c3e559b7213887762d5229550c2b","165.225.16.188","Mozilla/5.0 (Windows NT 10.0; Win64; x64) AppleWebKit/537.36 (KHTML, like Gecko) Chrome/138.0.0.0 Safari/537.36","WebKit","Chrome","138.0.0.0","Windows","10.0","https://app.prolific.com/","en-US,en;q=0.9","67599ff233234e646e9fe3ca","683dba2a8a9dda3513610c04","6889a23862266cc1853462bc","3","0","67599ff233234e646e9fe3ca","3","0","2025-07-30T04:51:29.724Z","","","","","","","","","","","ControlQ","","50","","","","","","","","","","","","","","","","","","","","","","","","","","","","",""
"3109","","<div style=""width:500px;"">
  <p>How would you describe your current emotional state?</p>
  </div>","54","html-slider-response","57","644726","0.0-5.0-3.9","247","1","2025-07-30 04:40:46","1f75c3e559b7213887762d5229550c2b","165.225.16.188","Mozilla/5.0 (Windows NT 10.0; Win64; x64) AppleWebKit/537.36 (KHTML, like Gecko) Chrome/138.0.0.0 Safari/537.36","WebKit","Chrome","138.0.0.0","Windows","10.0","https://app.prolific.com/","en-US,en;q=0.9","67599ff233234e646e9fe3ca","683dba2a8a9dda3513610c04","6889a23862266cc1853462bc","3","0","67599ff233234e646e9fe3ca","3","0","2025-07-30T04:51:32.834Z","","","","","","","","","","","StressQ","","50","","","","","","","","","","","","","","","","","","","","","","","","","","","","",""
"4701","","<div style=""width:500px;"">
  <p>What best describes how you currently feel?</p>
  </div>","43","html-slider-response","58","649428","0.0-5.0-4.9","247","1","2025-07-30 04:40:46","1f75c3e559b7213887762d5229550c2b","165.225.16.188","Mozilla/5.0 (Windows NT 10.0; Win64; x64) AppleWebKit/537.36 (KHTML, like Gecko) Chrome/138.0.0.0 Safari/537.36","WebKit","Chrome","138.0.0.0","Windows","10.0","https://app.prolific.com/","en-US,en;q=0.9","67599ff233234e646e9fe3ca","683dba2a8a9dda3513610c04","6889a23862266cc1853462bc","3","0","67599ff233234e646e9fe3ca","3","0","2025-07-30T04:51:37.536Z","","","","","","","","","","","MotivationQ","","50","","","","","","","","","","","","","","","","","","","","","","","","","","","","",""
"","","","","ctl-task-cpt","59","677539","0.0-5.0-0.10","247","1","2025-07-30 04:40:46","1f75c3e559b7213887762d5229550c2b","165.225.16.188","Mozilla/5.0 (Windows NT 10.0; Win64; x64) AppleWebKit/537.36 (KHTML, like Gecko) Chrome/138.0.0.0 Safari/537.36","WebKit","Chrome","138.0.0.0","Windows","10.0","https://app.prolific.com/","en-US,en;q=0.9","67599ff233234e646e9fe3ca","683dba2a8a9dda3513610c04","6889a23862266cc1853462bc","3","0","67599ff233234e646e9fe3ca","3","0","2025-07-30T04:52:05.647Z","","","","","","","","","","","","","","win-only","3","g1:SW,g2:NE","0.5","11","0","652235.1","1580.4","6586.5","25090.4","1","4","4","6","1","1","0","0","0","0","1380.7","3000","1265","[""down"",""left""]","{""num_key_presses"":6,""num_perfect"":3,""num_errors"":1,""num_randdir"":2,""num_randdir_good_moves"":1,""num_whilered"":0,""num_whileblue"":1,""num_blue"":2,""num_good_moves"":5}","[422.57142857142856,413.1808016640799,0.2,422.57142857142856,413.1808016640799,100.2,422.57142857142856,413.1808016640799,201.3,422.57142857142856,413.1808016640799,305.9,422.57142857142856,413.1808016640799,406.3,430.07142857142856,413.1808016640799,511.8,640.0714285714286,422.1808016640799,615.6,553.0714285714286,464.1808016640799,720.8,206.57142857142856,764.1808016640799,821,191.57142857142856,779.1808016640799,925.6,182.57142857142856,773.1808016640799,1026.4,116.57142857142857,779.1808016640799,1132.8,109.07142857142857,780.6808016640799,1233.3,110.57142857142857,780.6808016640799,1336.1,110.57142857142857,780.6808016640799,1448.6,110.57142857142857,780.6808016640799,1550.8,110.57142857142857,780.6808016640799,1651.2,110.57142857142857,780.6808016640799,1755.1,110.57142857142857,780.6808016640799,1855.9,-36.42857142857143,758.1808016640799,1956,-120.42857142857143,746.1808016640799,2056.1,-147.42857142857144,735.6808016640799,2157.3,-147.42857142857144,735.6808016640799,2263.8,-147.42857142857144,735.6808016640799,2365.6,-147.42857142857144,735.6808016640799,2465.9,-147.42857142857144,735.6808016640799,2566.1,-147.42857142857144,735.6808016640799,2671.2,-147.42857142857144,735.6808016640799,2771.8,-147.42857142857144,735.6808016640799,2877.1,-147.42857142857144,735.6808016640799,2983.8,-147.42857142857144,735.6808016640799,3086.9,-147.42857142857144,735.6808016640799,3187.3,-147.42857142857144,735.6808016640799,3290.1,-147.42857142857144,735.6808016640799,3390.5,-147.42857142857144,735.6808016640799,3492.1,-147.42857142857144,735.6808016640799,3597.7,-147.42857142857144,735.6808016640799,3701.4,-147.42857142857144,735.6808016640799,3806.1,-147.42857142857144,735.6808016640799,3910.4,-147.42857142857144,735.6808016640799,4013.8,-147.42857142857144,735.6808016640799,4114.2,-147.42857142857144,735.6808016640799,4216.1,-147.42857142857144,735.6808016640799,4316.3,-147.42857142857144,735.6808016640799,4420.3,-147.42857142857144,735.6808016640799,4521.7,-147.42857142857144,735.6808016640799,4626,-147.42857142857144,735.6808016640799,4732.8,-147.42857142857144,735.6808016640799,4836,-147.42857142857144,735.6808016640799,4936.3]","[1441.3,1441.3,1000,0,441.3,""smooth"",""left"",""left"",""good_move"",4039.9,2598.2,2228.5,1441.7,369.7,""while_blue"",""left"",""left"",""good_move"",10279.2,6239.1,2301.6,7645.6,332,""smooth"",""down"",""down"",""good_move"",13354,3074.5,2719.2,10279.5,355.3,""oops"",""down"",""up"",""bad_move"",16070.6,2716.3,2338.3,13354.3,378,""smooth"",""down"",""down"",""good_move"",18419.6,2348.8,1977.3,16070.9,371.5,""oops"",""down"",""down"",""good_move""]","",""
"4941","","<div style=""width:500px;"">
  <p>What determined the result of this run?</p>
  </div>","24","html-slider-response","60","682481","0.0-5.0-1.10","247","1","2025-07-30 04:40:46","1f75c3e559b7213887762d5229550c2b","165.225.16.188","Mozilla/5.0 (Windows NT 10.0; Win64; x64) AppleWebKit/537.36 (KHTML, like Gecko) Chrome/138.0.0.0 Safari/537.36","WebKit","Chrome","138.0.0.0","Windows","10.0","https://app.prolific.com/","en-US,en;q=0.9","67599ff233234e646e9fe3ca","683dba2a8a9dda3513610c04","6889a23862266cc1853462bc","3","0","67599ff233234e646e9fe3ca","3","0","2025-07-30T04:52:10.589Z","","","","","","","","","","","AttribQ","","50","","","","","","","","","","","","","","","","","","","","","","","","","","","","",""
"3259","","<div style=""width:500px;"">
  <p>How much control did you have over the ball?</p>
  </div>","26","html-slider-response","61","685740","0.0-5.0-2.10","247","1","2025-07-30 04:40:46","1f75c3e559b7213887762d5229550c2b","165.225.16.188","Mozilla/5.0 (Windows NT 10.0; Win64; x64) AppleWebKit/537.36 (KHTML, like Gecko) Chrome/138.0.0.0 Safari/537.36","WebKit","Chrome","138.0.0.0","Windows","10.0","https://app.prolific.com/","en-US,en;q=0.9","67599ff233234e646e9fe3ca","683dba2a8a9dda3513610c04","6889a23862266cc1853462bc","3","0","67599ff233234e646e9fe3ca","3","0","2025-07-30T04:52:13.849Z","","","","","","","","","","","ControlQ","","50","","","","","","","","","","","","","","","","","","","","","","","","","","","","",""
"5554","","<div style=""width:500px;"">
  <p>How would you describe your current emotional state?</p>
  </div>","53","html-slider-response","62","691295","0.0-5.0-3.10","247","1","2025-07-30 04:40:46","1f75c3e559b7213887762d5229550c2b","165.225.16.188","Mozilla/5.0 (Windows NT 10.0; Win64; x64) AppleWebKit/537.36 (KHTML, like Gecko) Chrome/138.0.0.0 Safari/537.36","WebKit","Chrome","138.0.0.0","Windows","10.0","https://app.prolific.com/","en-US,en;q=0.9","67599ff233234e646e9fe3ca","683dba2a8a9dda3513610c04","6889a23862266cc1853462bc","3","0","67599ff233234e646e9fe3ca","3","0","2025-07-30T04:52:19.403Z","","","","","","","","","","","StressQ","","50","","","","","","","","","","","","","","","","","","","","","","","","","","","","",""
"3644","","<div style=""width:500px;"">
  <p>What best describes how you currently feel?</p>
  </div>","47","html-slider-response","63","694941","0.0-5.0-4.10","247","1","2025-07-30 04:40:46","1f75c3e559b7213887762d5229550c2b","165.225.16.188","Mozilla/5.0 (Windows NT 10.0; Win64; x64) AppleWebKit/537.36 (KHTML, like Gecko) Chrome/138.0.0.0 Safari/537.36","WebKit","Chrome","138.0.0.0","Windows","10.0","https://app.prolific.com/","en-US,en;q=0.9","67599ff233234e646e9fe3ca","683dba2a8a9dda3513610c04","6889a23862266cc1853462bc","3","0","67599ff233234e646e9fe3ca","3","0","2025-07-30T04:52:23.049Z","","","","","","","","","","","MotivationQ","","50","","","","","","","","","","","","","","","","","","","","","","","","","","","","",""
"","","","","ctl-task-cpt","64","716120","0.0-5.0-0.11","247","1","2025-07-30 04:40:46","1f75c3e559b7213887762d5229550c2b","165.225.16.188","Mozilla/5.0 (Windows NT 10.0; Win64; x64) AppleWebKit/537.36 (KHTML, like Gecko) Chrome/138.0.0.0 Safari/537.36","WebKit","Chrome","138.0.0.0","Windows","10.0","https://app.prolific.com/","en-US,en;q=0.9","67599ff233234e646e9fe3ca","683dba2a8a9dda3513610c04","6889a23862266cc1853462bc","3","0","67599ff233234e646e9fe3ca","3","0","2025-07-30T04:52:44.228Z","","","","","","","","","","","","","","win-only","3","g1:SW,g2:NE","0.6","12","0","697747.6","1330.2","6332.4","18160.2","1","4","8","6","1","1","1","1","0","0.007575757575757576","1043.9","3000","1495","[""down"",""left""]","{""num_key_presses"":4,""num_perfect"":2,""num_errors"":0,""num_randdir"":2,""num_randdir_good_moves"":2,""num_whilered"":0,""num_whileblue"":0,""num_blue"":0,""num_good_moves"":4}","[419.57142857142856,416.1808016640799,0.2,419.57142857142856,416.1808016640799,102.1,419.57142857142856,416.1808016640799,205.3,419.57142857142856,416.1808016640799,305.5,419.57142857142856,416.1808016640799,405.5,407.57142857142856,435.6808016640799,505.6,209.57142857142856,764.1808016640799,610.9,173.57142857142856,774.6808016640799,711.2,124.07142857142857,777.6808016640799,811.5,112.07142857142857,770.1808016640799,919,112.07142857142857,767.1808016640799,1019.6,112.07142857142857,767.1808016640799,1119.6,112.07142857142857,767.1808016640799,1221.3,112.07142857142857,767.1808016640799,1321.4,112.07142857142857,767.1808016640799,1421.5,-102.42857142857143,726.6808016640799,1525,-154.92857142857144,735.6808016640799,1625.8,-187.92857142857144,737.1808016640799,1733.9,-187.92857142857144,737.1808016640799,1836.2,-187.92857142857144,737.1808016640799,1940.7,-187.92857142857144,737.1808016640799,2051.4,-187.92857142857144,737.1808016640799,2155.7,-187.92857142857144,737.1808016640799,2260.5,-187.92857142857144,737.1808016640799,2360.8,-187.92857142857144,737.1808016640799,2467.6,-187.92857142857144,737.1808016640799,2568.1,-187.92857142857144,737.1808016640799,2670.8,-187.92857142857144,737.1808016640799,2770.9,-187.92857142857144,737.1808016640799,2871.9,-187.92857142857144,737.1808016640799,2975,-187.92857142857144,737.1808016640799,3076.8,-187.92857142857144,737.1808016640799,3183.1,-187.92857142857144,737.1808016640799,3283.5,-187.92857142857144,737.1808016640799,3383.9,-187.92857142857144,737.1808016640799,3483.9,-187.92857142857144,737.1808016640799,3584.7,-187.92857142857144,737.1808016640799,3686.4,-187.92857142857144,737.1808016640799,3791.1,-187.92857142857144,737.1808016640799,3891.4,-187.92857142857144,737.1808016640799,4000.6,-187.92857142857144,737.1808016640799,4102.2,-187.92857142857144,737.1808016640799,4205.2,-187.92857142857144,737.1808016640799,4306.7,-187.92857142857144,737.1808016640799,4411.3,-187.92857142857144,737.1808016640799,4518.9,-187.92857142857144,737.1808016640799,4620.5,-187.92857142857144,737.1808016640799,4724.9,-187.92857142857144,737.1808016640799,4825.3,-187.92857142857144,737.1808016640799,4935.2]","[1449.6,1449.6,1000,0,449.6,""smooth"",""left"",""left"",""good_move"",5739.7,4289.8,3873.4,1449.9,416.4,""smooth"",""left"",""left"",""good_move"",8576.3,2836.2,2483,5740.1,353.2,""oops"",""down"",""down"",""good_move"",11742.9,3166.2,2809.2,8576.7,357,""oops"",""down"",""down"",""good_move""]","",""
"5226","","<div style=""width:500px;"">
  <p>What determined the result of this run?</p>
  </div>","64","html-slider-response","65","721348","0.0-5.0-1.11","247","1","2025-07-30 04:40:46","1f75c3e559b7213887762d5229550c2b","165.225.16.188","Mozilla/5.0 (Windows NT 10.0; Win64; x64) AppleWebKit/537.36 (KHTML, like Gecko) Chrome/138.0.0.0 Safari/537.36","WebKit","Chrome","138.0.0.0","Windows","10.0","https://app.prolific.com/","en-US,en;q=0.9","67599ff233234e646e9fe3ca","683dba2a8a9dda3513610c04","6889a23862266cc1853462bc","3","0","67599ff233234e646e9fe3ca","3","0","2025-07-30T04:52:49.456Z","","","","","","","","","","","AttribQ","","50","","","","","","","","","","","","","","","","","","","","","","","","","","","","",""
"5999","","<div style=""width:500px;"">
  <p>How much control did you have over the ball?</p>
  </div>","88","html-slider-response","66","727347","0.0-5.0-2.11","247","1","2025-07-30 04:40:46","1f75c3e559b7213887762d5229550c2b","165.225.16.188","Mozilla/5.0 (Windows NT 10.0; Win64; x64) AppleWebKit/537.36 (KHTML, like Gecko) Chrome/138.0.0.0 Safari/537.36","WebKit","Chrome","138.0.0.0","Windows","10.0","https://app.prolific.com/","en-US,en;q=0.9","67599ff233234e646e9fe3ca","683dba2a8a9dda3513610c04","6889a23862266cc1853462bc","3","0","67599ff233234e646e9fe3ca","3","0","2025-07-30T04:52:55.456Z","","","","","","","","","","","ControlQ","","50","","","","","","","","","","","","","","","","","","","","","","","","","","","","",""
"3467","","<div style=""width:500px;"">
  <p>How would you describe your current emotional state?</p>
  </div>","44","html-slider-response","67","730816","0.0-5.0-3.11","247","1","2025-07-30 04:40:46","1f75c3e559b7213887762d5229550c2b","165.225.16.188","Mozilla/5.0 (Windows NT 10.0; Win64; x64) AppleWebKit/537.36 (KHTML, like Gecko) Chrome/138.0.0.0 Safari/537.36","WebKit","Chrome","138.0.0.0","Windows","10.0","https://app.prolific.com/","en-US,en;q=0.9","67599ff233234e646e9fe3ca","683dba2a8a9dda3513610c04","6889a23862266cc1853462bc","3","0","67599ff233234e646e9fe3ca","3","0","2025-07-30T04:52:58.924Z","","","","","","","","","","","StressQ","","50","","","","","","","","","","","","","","","","","","","","","","","","","","","","",""
"2668","","<div style=""width:500px;"">
  <p>What best describes how you currently feel?</p>
  </div>","57","html-slider-response","68","733485","0.0-5.0-4.11","247","1","2025-07-30 04:40:46","1f75c3e559b7213887762d5229550c2b","165.225.16.188","Mozilla/5.0 (Windows NT 10.0; Win64; x64) AppleWebKit/537.36 (KHTML, like Gecko) Chrome/138.0.0.0 Safari/537.36","WebKit","Chrome","138.0.0.0","Windows","10.0","https://app.prolific.com/","en-US,en;q=0.9","67599ff233234e646e9fe3ca","683dba2a8a9dda3513610c04","6889a23862266cc1853462bc","3","0","67599ff233234e646e9fe3ca","3","0","2025-07-30T04:53:01.593Z","","","","","","","","","","","MotivationQ","","50","","","","","","","","","","","","","","","","","","","","","","","","","","","","",""
"","","","","ctl-task-cpt","69","760676","0.0-5.0-0.12","247","1","2025-07-30 04:40:46","1f75c3e559b7213887762d5229550c2b","165.225.16.188","Mozilla/5.0 (Windows NT 10.0; Win64; x64) AppleWebKit/537.36 (KHTML, like Gecko) Chrome/138.0.0.0 Safari/537.36","WebKit","Chrome","138.0.0.0","Windows","10.0","https://app.prolific.com/","en-US,en;q=0.9","67599ff233234e646e9fe3ca","683dba2a8a9dda3513610c04","6889a23862266cc1853462bc","3","0","67599ff233234e646e9fe3ca","3","0","2025-07-30T04:53:28.784Z","","","","","","","","","","","","","","win-only","2","g1:SE,g2:NW","0.7","13","0","736292","1484.2","6486.4","24170.3","1","4","4","6","1","1","1","2","1","0.015151515151515152","1284.2","3000","1705","[""down"",""right""]","{""num_key_presses"":4,""num_perfect"":3,""num_errors"":0,""num_randdir"":1,""num_randdir_good_moves"":1,""num_whilered"":0,""num_whileblue"":0,""num_blue"":2,""num_good_moves"":4}","[410.57142857142856,419.1808016640799,0.3,410.57142857142856,419.1808016640799,103,410.57142857142856,419.1808016640799,206.4,410.57142857142856,419.1808016640799,306.6,467.57142857142856,434.1808016640799,407.3,758.5714285714286,468.6808016640799,507.3,743.5714285714286,605.1808016640799,619.6,737.5714285714286,669.6808016640799,721,743.5714285714286,725.1808016640799,823.5,751.0714285714286,734.1808016640799,927.4,742.0714285714286,801.6808016640799,1036.7,740.5714285714286,807.6808016640799,1137,740.5714285714286,807.6808016640799,1241.6,740.5714285714286,807.6808016640799,1341.8,740.5714285714286,807.6808016640799,1452.2,740.5714285714286,807.6808016640799,1554.3,740.5714285714286,807.6808016640799,1656.6,782.5714285714286,776.1808016640799,1761.4,914.5714285714286,690.6808016640799,1862.6,923.5714285714286,689.1808016640799,1969.2,926.5714285714286,684.6808016640799,2070.4,926.5714285714286,684.6808016640799,2170.4,926.5714285714286,684.6808016640799,2270.9,926.5714285714286,684.6808016640799,2372,926.5714285714286,684.6808016640799,2472,926.5714285714286,684.6808016640799,2576.5,926.5714285714286,684.6808016640799,2676.8,926.5714285714286,684.6808016640799,2777.6,926.5714285714286,684.6808016640799,2884.9,926.5714285714286,684.6808016640799,2985.9,926.5714285714286,684.6808016640799,3086.5,926.5714285714286,684.6808016640799,3192.8,926.5714285714286,684.6808016640799,3292.9,926.5714285714286,684.6808016640799,3403.8,926.5714285714286,684.6808016640799,3504.1,926.5714285714286,684.6808016640799,3604.7,926.5714285714286,684.6808016640799,3706.7,926.5714285714286,684.6808016640799,3811.2,926.5714285714286,684.6808016640799,3911.9,926.5714285714286,684.6808016640799,4019,926.5714285714286,684.6808016640799,4122.6,926.5714285714286,684.6808016640799,4226.5,926.5714285714286,684.6808016640799,4327.7,926.5714285714286,684.6808016640799,4435.3,926.5714285714286,684.6808016640799,4535.3,926.5714285714286,684.6808016640799,4636.2,926.5714285714286,684.6808016640799,4736.7,926.5714285714286,684.6808016640799,4837.1,926.5714285714286,684.6808016640799,4937.6]","[4681.9,4681.9,2307.5,2001.1,373.3,""smooth"",""right"",""right"",""good_move"",7602.1,2919.9,2537.9,4682.2,382,""smooth"",""right"",""right"",""good_move"",9984.9,2382.6,1999.7,7602.3,382.9,""oops"",""down"",""down"",""good_move"",17581.1,7595.8,2862,14353.9,365.2,""smooth"",""down"",""down"",""good_move""]","",""
"5631","","<div style=""width:500px;"">
  <p>What determined the result of this run?</p>
  </div>","62","html-slider-response","70","766310","0.0-5.0-1.12","247","1","2025-07-30 04:40:46","1f75c3e559b7213887762d5229550c2b","165.225.16.188","Mozilla/5.0 (Windows NT 10.0; Win64; x64) AppleWebKit/537.36 (KHTML, like Gecko) Chrome/138.0.0.0 Safari/537.36","WebKit","Chrome","138.0.0.0","Windows","10.0","https://app.prolific.com/","en-US,en;q=0.9","67599ff233234e646e9fe3ca","683dba2a8a9dda3513610c04","6889a23862266cc1853462bc","3","0","67599ff233234e646e9fe3ca","3","0","2025-07-30T04:53:34.418Z","","","","","","","","","","","AttribQ","","50","","","","","","","","","","","","","","","","","","","","","","","","","","","","",""
"3089","","<div style=""width:500px;"">
  <p>How much control did you have over the ball?</p>
  </div>","57","html-slider-response","71","769399","0.0-5.0-2.12","247","1","2025-07-30 04:40:46","1f75c3e559b7213887762d5229550c2b","165.225.16.188","Mozilla/5.0 (Windows NT 10.0; Win64; x64) AppleWebKit/537.36 (KHTML, like Gecko) Chrome/138.0.0.0 Safari/537.36","WebKit","Chrome","138.0.0.0","Windows","10.0","https://app.prolific.com/","en-US,en;q=0.9","67599ff233234e646e9fe3ca","683dba2a8a9dda3513610c04","6889a23862266cc1853462bc","3","0","67599ff233234e646e9fe3ca","3","0","2025-07-30T04:53:37.508Z","","","","","","","","","","","ControlQ","","50","","","","","","","","","","","","","","","","","","","","","","","","","","","","",""
"4560","","<div style=""width:500px;"">
  <p>How would you describe your current emotional state?</p>
  </div>","39","html-slider-response","72","773961","0.0-5.0-3.12","247","1","2025-07-30 04:40:46","1f75c3e559b7213887762d5229550c2b","165.225.16.188","Mozilla/5.0 (Windows NT 10.0; Win64; x64) AppleWebKit/537.36 (KHTML, like Gecko) Chrome/138.0.0.0 Safari/537.36","WebKit","Chrome","138.0.0.0","Windows","10.0","https://app.prolific.com/","en-US,en;q=0.9","67599ff233234e646e9fe3ca","683dba2a8a9dda3513610c04","6889a23862266cc1853462bc","3","0","67599ff233234e646e9fe3ca","3","0","2025-07-30T04:53:42.069Z","","","","","","","","","","","StressQ","","50","","","","","","","","","","","","","","","","","","","","","","","","","","","","",""
"2604","","<div style=""width:500px;"">
  <p>What best describes how you currently feel?</p>
  </div>","58","html-slider-response","73","776566","0.0-5.0-4.12","247","1","2025-07-30 04:40:46","1f75c3e559b7213887762d5229550c2b","165.225.16.188","Mozilla/5.0 (Windows NT 10.0; Win64; x64) AppleWebKit/537.36 (KHTML, like Gecko) Chrome/138.0.0.0 Safari/537.36","WebKit","Chrome","138.0.0.0","Windows","10.0","https://app.prolific.com/","en-US,en;q=0.9","67599ff233234e646e9fe3ca","683dba2a8a9dda3513610c04","6889a23862266cc1853462bc","3","0","67599ff233234e646e9fe3ca","3","0","2025-07-30T04:53:44.674Z","","","","","","","","","","","MotivationQ","","50","","","","","","","","","","","","","","","","","","","","","","","","","","","","",""
"","","","","ctl-task-cpt","74","805381","0.0-5.0-0.13","247","1","2025-07-30 04:40:46","1f75c3e559b7213887762d5229550c2b","165.225.16.188","Mozilla/5.0 (Windows NT 10.0; Win64; x64) AppleWebKit/537.36 (KHTML, like Gecko) Chrome/138.0.0.0 Safari/537.36","WebKit","Chrome","138.0.0.0","Windows","10.0","https://app.prolific.com/","en-US,en;q=0.9","67599ff233234e646e9fe3ca","683dba2a8a9dda3513610c04","6889a23862266cc1853462bc","3","0","67599ff233234e646e9fe3ca","3","0","2025-07-30T04:54:13.489Z","","","","","","","","","","","","","","win-only","3","g1:SW,g2:NE","0.8","14","0","779372.3","1274.3","6276.6","25796.9","1","4","8","6","1","1","1","3","2","0.022727272727272728","1184","3000","1530","[""down"",""left""]","{""num_key_presses"":4,""num_perfect"":4,""num_errors"":0,""num_randdir"":0,""num_randdir_good_moves"":0,""num_whilered"":0,""num_whileblue"":0,""num_blue"":3,""num_good_moves"":4}","[413.57142857142856,422.1808016640799,0.1,413.57142857142856,422.1808016640799,102,413.57142857142856,422.1808016640799,206.7,413.57142857142856,422.1808016640799,307.7,413.57142857142856,422.1808016640799,414.9,413.57142857142856,422.1808016640799,515.1,401.57142857142856,444.6808016640799,616.2,127.07142857142857,684.6808016640799,716.8,91.07142857142857,756.6808016640799,820.8,92.57142857142857,756.6808016640799,921.6,92.57142857142857,759.6808016640799,1022.2,91.07142857142857,759.6808016640799,1132,91.07142857142857,759.6808016640799,1236.6,91.07142857142857,759.6808016640799,1348.4,91.07142857142857,759.6808016640799,1452,91.07142857142857,759.6808016640799,1557.6,79.07142857142857,752.1808016640799,1657.9,-40.92857142857143,698.1808016640799,1758.2,-105.42857142857143,684.6808016640799,1865.3,-156.42857142857144,677.1808016640799,1965.9,-156.42857142857144,674.1808016640799,2066.4,-156.42857142857144,674.1808016640799,2166.9,-156.42857142857144,674.1808016640799,2271.8,-156.42857142857144,674.1808016640799,2380.3,-156.42857142857144,674.1808016640799,2480.7,-156.42857142857144,674.1808016640799,2581,-156.42857142857144,674.1808016640799,2682,-156.42857142857144,674.1808016640799,2786,-156.42857142857144,674.1808016640799,2886.8,-156.42857142857144,674.1808016640799,2996.5,-156.42857142857144,674.1808016640799,3097.5,-156.42857142857144,674.1808016640799,3201.3,-156.42857142857144,674.1808016640799,3301.7,-156.42857142857144,674.1808016640799,3401.8,-156.42857142857144,674.1808016640799,3505.8,-156.42857142857144,674.1808016640799,3607.2,-156.42857142857144,674.1808016640799,3713.8,-156.42857142857144,674.1808016640799,3814.2,-156.42857142857144,674.1808016640799,3914.9,-156.42857142857144,674.1808016640799,4015.5,-156.42857142857144,674.1808016640799,4116.8,-156.42857142857144,674.1808016640799,4217,-156.42857142857144,674.1808016640799,4322.1,-156.42857142857144,674.1808016640799,4430.3,-156.42857142857144,674.1808016640799,4531.9,-156.42857142857144,674.1808016640799,4631.9,-156.42857142857144,674.1808016640799,4737.7,-156.42857142857144,674.1808016640799,4842.4,-156.42857142857144,674.1808016640799,4948.8]","[12128.7,12128.7,2729.1,8918.7,480.9,""smooth"",""down"",""down"",""good_move"",15093.2,2964,2550.1,12129.2,413.9,""smooth"",""left"",""left"",""good_move"",17093.3,1999.9,1565.5,15093.4,434.4,""smooth"",""left"",""left"",""good_move"",19414.5,2320.8,1952.7,17093.7,368.1,""smooth"",""down"",""down"",""good_move""]","",""
"3279","","<div style=""width:500px;"">
  <p>What determined the result of this run?</p>
  </div>","67","html-slider-response","75","808660","0.0-5.0-1.13","247","1","2025-07-30 04:40:46","1f75c3e559b7213887762d5229550c2b","165.225.16.188","Mozilla/5.0 (Windows NT 10.0; Win64; x64) AppleWebKit/537.36 (KHTML, like Gecko) Chrome/138.0.0.0 Safari/537.36","WebKit","Chrome","138.0.0.0","Windows","10.0","https://app.prolific.com/","en-US,en;q=0.9","67599ff233234e646e9fe3ca","683dba2a8a9dda3513610c04","6889a23862266cc1853462bc","3","0","67599ff233234e646e9fe3ca","3","0","2025-07-30T04:54:16.768Z","","","","","","","","","","","AttribQ","","50","","","","","","","","","","","","","","","","","","","","","","","","","","","","",""
"3410","","<div style=""width:500px;"">
  <p>How much control did you have over the ball?</p>
  </div>","94","html-slider-response","76","812071","0.0-5.0-2.13","247","1","2025-07-30 04:40:46","1f75c3e559b7213887762d5229550c2b","165.225.16.188","Mozilla/5.0 (Windows NT 10.0; Win64; x64) AppleWebKit/537.36 (KHTML, like Gecko) Chrome/138.0.0.0 Safari/537.36","WebKit","Chrome","138.0.0.0","Windows","10.0","https://app.prolific.com/","en-US,en;q=0.9","67599ff233234e646e9fe3ca","683dba2a8a9dda3513610c04","6889a23862266cc1853462bc","3","0","67599ff233234e646e9fe3ca","3","0","2025-07-30T04:54:20.179Z","","","","","","","","","","","ControlQ","","50","","","","","","","","","","","","","","","","","","","","","","","","","","","","",""
"3131","","<div style=""width:500px;"">
  <p>How would you describe your current emotional state?</p>
  </div>","37","html-slider-response","77","815203","0.0-5.0-3.13","247","1","2025-07-30 04:40:46","1f75c3e559b7213887762d5229550c2b","165.225.16.188","Mozilla/5.0 (Windows NT 10.0; Win64; x64) AppleWebKit/537.36 (KHTML, like Gecko) Chrome/138.0.0.0 Safari/537.36","WebKit","Chrome","138.0.0.0","Windows","10.0","https://app.prolific.com/","en-US,en;q=0.9","67599ff233234e646e9fe3ca","683dba2a8a9dda3513610c04","6889a23862266cc1853462bc","3","0","67599ff233234e646e9fe3ca","3","0","2025-07-30T04:54:23.311Z","","","","","","","","","","","StressQ","","50","","","","","","","","","","","","","","","","","","","","","","","","","","","","",""
"2450","","<div style=""width:500px;"">
  <p>What best describes how you currently feel?</p>
  </div>","67","html-slider-response","78","817654","0.0-5.0-4.13","247","1","2025-07-30 04:40:46","1f75c3e559b7213887762d5229550c2b","165.225.16.188","Mozilla/5.0 (Windows NT 10.0; Win64; x64) AppleWebKit/537.36 (KHTML, like Gecko) Chrome/138.0.0.0 Safari/537.36","WebKit","Chrome","138.0.0.0","Windows","10.0","https://app.prolific.com/","en-US,en;q=0.9","67599ff233234e646e9fe3ca","683dba2a8a9dda3513610c04","6889a23862266cc1853462bc","3","0","67599ff233234e646e9fe3ca","3","0","2025-07-30T04:54:25.762Z","","","","","","","","","","","MotivationQ","","50","","","","","","","","","","","","","","","","","","","","","","","","","","","","",""
