"rt","response_timestamp","stimulus","response","trial_type","trial_index","time_elapsed","internal_node_id","run_id","condition","recorded_at","source_code_version","ip","user_agent","device","browser","browser_version","platform","platform_version","referer","accept_language","PROLIFIC_PID","STUDY_ID","SESSION_ID","WEEK","BATCH","prolific_id","week","batch","realtime","success","responses","item_order","radio_event_ids","radio_event_times","key_event_times","mouse_event_times","straightlining","zigzagging","honeypot","eventType","view_history","slider_start","which_type","canvas_config","goals_layout","control_level","trial_number","tutorial_trial_number","trial_start_time","phase1_start_time","phase2_start_time","phase3_start_time","goal_1_value","goal_1_distance","goal_2_value","goal_2_distance","goal_selected","outcome","outcome_total","participant_final_score","participant_initial_score","participant_final_score_prop","goal_choice_rt","allocated_time","allocated_time_remaining","goal_direction","counts","mouse_movements","key_presses","question_order","question_id"
"67884","1753779833231","<p style='font-size:40px;line-height:1.25'><strong>Welcome to the experiment!</strong></p><p style='font-size:1.1em;line-height:1.25'>Thank you for participanting in our experiment again! You will be asked to play the Dysfunctional Ball Game again. We will briefly recap the rules before we start.</p><p style='font-size:1.1em;line-height:1.25'>Press <strong>Next</strong> to continue.</p>","0","custom-html-button-response","0","67887","0.0-0.0","246","1","2025-07-29 09:02:45","1f75c3e559b7213887762d5229550c2b","71.138.89.249","Mozilla/5.0 (Windows NT 10.0; Win64; x64) AppleWebKit/537.36 (KHTML, like Gecko) Chrome/138.0.0.0 Safari/537.36","WebKit","Chrome","138.0.0.0","Windows","10.0","https://app.prolific.com/","en-US,en;q=0.9","5f0a7dec44c42c19a6c9f6d9","683db9eb0562dbf637994deb","68888e2da28635a481a6c12e","2","1","5f0a7dec44c42c19a6c9f6d9","2","1","2025-07-29T09:03:53.232Z","","","","","","","","","","","","","","","","","","","","","","","","","","","","","","","","","","","","","","","","","",""
"8277","","","","fullscreen","1","77182","0.0-1.0","246","1","2025-07-29 09:02:45","1f75c3e559b7213887762d5229550c2b","71.138.89.249","Mozilla/5.0 (Windows NT 10.0; Win64; x64) AppleWebKit/537.36 (KHTML, like Gecko) Chrome/138.0.0.0 Safari/537.36","WebKit","Chrome","138.0.0.0","Windows","10.0","https://app.prolific.com/","en-US,en;q=0.9","5f0a7dec44c42c19a6c9f6d9","683db9eb0562dbf637994deb","68888e2da28635a481a6c12e","2","1","5f0a7dec44c42c19a6c9f6d9","2","1","","true","","","","","","","","","","","","","","","","","","","","","","","","","","","","","","","","","","","","","","","","",""
"7848","1753779850377","<p style='font-size:1.1em;line-height:1.25'>In the following, we will ask you a few questions relating to your feelings in the last 24 hours.<br></p><p style='font-size:1.1em;line-height:1.25'>Press the <strong>Next</strong> button to continue.</p>","0","custom-html-button-response","2","85032","0.0-2.0-0.0","246","1","2025-07-29 09:02:45","1f75c3e559b7213887762d5229550c2b","71.138.89.249","Mozilla/5.0 (Windows NT 10.0; Win64; x64) AppleWebKit/537.36 (KHTML, like Gecko) Chrome/138.0.0.0 Safari/537.36","WebKit","Chrome","138.0.0.0","Windows","10.0","https://app.prolific.com/","en-US,en;q=0.9","5f0a7dec44c42c19a6c9f6d9","683db9eb0562dbf637994deb","68888e2da28635a481a6c12e","2","1","5f0a7dec44c42c19a6c9f6d9","2","1","2025-07-29T09:04:10.377Z","","","","","","","","","","","","","","","","","","","","","","","","","","","","","","","","","","","","","","","","","",""
"61374","","","","survey-template","3","146411","0.0-2.0-1.0","246","1","2025-07-29 09:02:45","1f75c3e559b7213887762d5229550c2b","71.138.89.249","Mozilla/5.0 (Windows NT 10.0; Win64; x64) AppleWebKit/537.36 (KHTML, like Gecko) Chrome/138.0.0.0 Safari/537.36","WebKit","Chrome","138.0.0.0","Windows","10.0","https://app.prolific.com/","en-US,en;q=0.9","5f0a7dec44c42c19a6c9f6d9","683db9eb0562dbf637994deb","68888e2da28635a481a6c12e","2","1","5f0a7dec44c42c19a6c9f6d9","2","1","2025-07-29T09:05:11.756Z","","{""Q01"":""0"",""Q02"":""0"",""Q03"":""0"",""Q04"":""2"",""Q05"":""2"",""Q06"":""2"",""Q07"":""2"",""Q08"":""1"",""Q09"":""0"",""Q10"":""1"",""Q11"":""1"",""Q12"":""2"",""Q13"":""5"",""Q14"":""2"",""Q15"":""1"",""Q16"":""1"",""Q17"":""1"",""Q18"":""0"",""Q19"":""1"",""Q20"":""1"",""Q21"":""1"",""Q22"":""1""}","[0,1,2,3,4,5,6,7,8,9,10,11,12,13,14,15,16,17,18,19,20,21]","[""Q01"",""Q01"",""Q02"",""Q03"",""Q04"",""Q05"",""Q06"",""Q07"",""Q08"",""Q09"",""Q10"",""Q11"",""Q12"",""Q13"",""Q14"",""Q15"",""Q16"",""Q17"",""Q18"",""Q19"",""Q20"",""Q21"",""Q22""]","[2644.699999988079,4810.799999952316,6922.399999976158,7905,9180.5,11006.799999952316,15042.399999976158,17894.5,23120.299999952316,25362.5,26966.399999976158,29020.399999976158,30838.799999952316,32794.39999997616,37734.19999998808,40832.299999952316,43916.59999996424,45499.5,46808.69999998808,48826.59999996424,53536.5,57395.09999996424,60035.09999996424]","[]","[0.19999998807907104,2644.699999988079,4810.799999952316,5622.599999964237,6922.399999976158,7905,9180.5,11006.799999952316,15042.399999976158,16302.5,17894.5,22436.5,23120.299999952316,25362.5,26966.399999976158,29020.399999976158,30838.799999952316,32794.39999997616,35006.59999996424,36574.39999997616,37734.19999998808,40174.39999997616,40832.299999952316,43262.299999952316,43916.59999996424,45499.5,46808.69999998808,48826.59999996424,53536.5,56212.5,56756.59999996424,57395.09999996424,60035.09999996424,61370.5]","0.45454545454545453","0.3333333333333333","0","drsp","","","","","","","","","","","","","","","","","","","","","","","","","","","","","","",""
"10685.600000023842","","","","survey-template","4","157099","0.0-2.0-2.0","246","1","2025-07-29 09:02:45","1f75c3e559b7213887762d5229550c2b","71.138.89.249","Mozilla/5.0 (Windows NT 10.0; Win64; x64) AppleWebKit/537.36 (KHTML, like Gecko) Chrome/138.0.0.0 Safari/537.36","WebKit","Chrome","138.0.0.0","Windows","10.0","https://app.prolific.com/","en-US,en;q=0.9","5f0a7dec44c42c19a6c9f6d9","683db9eb0562dbf637994deb","68888e2da28635a481a6c12e","2","1","5f0a7dec44c42c19a6c9f6d9","2","1","2025-07-29T09:05:22.444Z","","{""Q01"":""3"",""Q02"":""2"",""Q03"":""0""}","[0,1,2]","[""Q01"",""Q02"",""Q03"",""Q03""]","[3680.900000035763,5908.900000035763,8452.699999988079,9688.900000035763]","[]","[2164.699999988079,2839,3680.900000035763,5908.900000035763,8452.699999988079,9688.900000035763,10684.900000035763]","0.6666666666666666","0","0","stress","","","","","","","","","","","","","","","","","","","","","","","","","","","","","","",""
"19765","","","","instructions","5","176865","0.0-3.0-0.0","246","1","2025-07-29 09:02:45","1f75c3e559b7213887762d5229550c2b","71.138.89.249","Mozilla/5.0 (Windows NT 10.0; Win64; x64) AppleWebKit/537.36 (KHTML, like Gecko) Chrome/138.0.0.0 Safari/537.36","WebKit","Chrome","138.0.0.0","Windows","10.0","https://app.prolific.com/","en-US,en;q=0.9","5f0a7dec44c42c19a6c9f6d9","683db9eb0562dbf637994deb","68888e2da28635a481a6c12e","2","1","5f0a7dec44c42c19a6c9f6d9","2","1","","","","","","","","","","","","","[{""page_index"":0,""viewing_time"":19764}]","","","","","","","","","","","","","","","","","","","","","","","","","","","","","",""
"5116","","<p>Before you start with this game please answer the following three questions yourself. </p>
  <p>Through this game, we measure several aspects of your cognitive performance, such as reaction times, multi-tasking capabilities </p>
  <p>and the ability to assess the situation you are in.</p>
  <p></p>
  <p><b>How good do you usually are in such tasks?</b></p>","51","html-slider-response","6","181984","0.0-4.0-0.0","246","1","2025-07-29 09:02:45","1f75c3e559b7213887762d5229550c2b","71.138.89.249","Mozilla/5.0 (Windows NT 10.0; Win64; x64) AppleWebKit/537.36 (KHTML, like Gecko) Chrome/138.0.0.0 Safari/537.36","WebKit","Chrome","138.0.0.0","Windows","10.0","https://app.prolific.com/","en-US,en;q=0.9","5f0a7dec44c42c19a6c9f6d9","683db9eb0562dbf637994deb","68888e2da28635a481a6c12e","2","1","5f0a7dec44c42c19a6c9f6d9","2","1","2025-07-29T09:05:47.329Z","","","","","","","","","","","PreSkillQ","","50","","","","","","","","","","","","","","","","","","","","","","","","","","","","",""
"12152","","<div style=""width:500px;"">
  <p>How well do you think you will perform in this task compared to other participants?</p>
  </div>","52","html-slider-response","7","194138","0.0-4.0-1.0","246","1","2025-07-29 09:02:45","1f75c3e559b7213887762d5229550c2b","71.138.89.249","Mozilla/5.0 (Windows NT 10.0; Win64; x64) AppleWebKit/537.36 (KHTML, like Gecko) Chrome/138.0.0.0 Safari/537.36","WebKit","Chrome","138.0.0.0","Windows","10.0","https://app.prolific.com/","en-US,en;q=0.9","5f0a7dec44c42c19a6c9f6d9","683db9eb0562dbf637994deb","68888e2da28635a481a6c12e","2","1","5f0a7dec44c42c19a6c9f6d9","2","1","2025-07-29T09:05:59.483Z","","","","","","","","","","","PrePerfQ","","50","","","","","","","","","","","","","","","","","","","","","","","","","","","","",""
"3297","","<div style=""width:500px;"">
  <p>What best describes how you currently feel?</p>
  </div>","71","html-slider-response","8","197437","0.0-4.0-2.0","246","1","2025-07-29 09:02:45","1f75c3e559b7213887762d5229550c2b","71.138.89.249","Mozilla/5.0 (Windows NT 10.0; Win64; x64) AppleWebKit/537.36 (KHTML, like Gecko) Chrome/138.0.0.0 Safari/537.36","WebKit","Chrome","138.0.0.0","Windows","10.0","https://app.prolific.com/","en-US,en;q=0.9","5f0a7dec44c42c19a6c9f6d9","683db9eb0562dbf637994deb","68888e2da28635a481a6c12e","2","1","5f0a7dec44c42c19a6c9f6d9","2","1","2025-07-29T09:06:02.782Z","","","","","","","","","","","PreMotivationQ","","50","","","","","","","","","","","","","","","","","","","","","","","","","","","","",""
"","","","","ctl-task-cpt","9","231129","0.0-5.0-0.0","246","1","2025-07-29 09:02:45","1f75c3e559b7213887762d5229550c2b","71.138.89.249","Mozilla/5.0 (Windows NT 10.0; Win64; x64) AppleWebKit/537.36 (KHTML, like Gecko) Chrome/138.0.0.0 Safari/537.36","WebKit","Chrome","138.0.0.0","Windows","10.0","https://app.prolific.com/","en-US,en;q=0.9","5f0a7dec44c42c19a6c9f6d9","683db9eb0562dbf637994deb","68888e2da28635a481a6c12e","2","1","5f0a7dec44c42c19a6c9f6d9","2","1","2025-07-29T09:06:36.474Z","","","","","","","","","","","","","","win-only","0","g1:NW,g2:SE","1","1","0","201583.4","1464.4","6466.2","30684.1","1","4","4","6","2","4","2","2","0","0.015151515151515152","5001.7","3000","155","[""down"",""right""]","{""num_key_presses"":9,""num_perfect"":7,""num_errors"":2,""num_randdir"":0,""num_randdir_good_moves"":0,""num_whilered"":0,""num_whileblue"":1,""num_blue"":1,""num_good_moves"":7}","[344.2851462364197,348.8164039850235,0.2,344.2851462364197,348.8164039850235,107.4,344.2851462364197,348.8164039850235,207.6,344.2851462364197,348.8164039850235,308.1,344.2851462364197,348.8164039850235,411.7,344.2851462364197,348.8164039850235,511.9,344.2851462364197,348.8164039850235,616.5,344.2851462364197,348.8164039850235,718.2,344.2851462364197,348.8164039850235,824.6,344.2851462364197,348.8164039850235,928.2,344.2851462364197,348.8164039850235,1032.7,344.2851462364197,348.8164039850235,1141,344.2851462364197,348.8164039850235,1241.1,344.2851462364197,348.8164039850235,1341.2,344.2851462364197,348.8164039850235,1447.1,344.2851462364197,348.8164039850235,1551.9,344.2851462364197,348.8164039850235,1657.9,344.2851462364197,348.8164039850235,1758,344.2851462364197,348.8164039850235,1861.7,344.2851462364197,348.8164039850235,1966.5,344.2851462364197,348.8164039850235,2066.7,344.2851462364197,348.8164039850235,2168.4,344.2851462364197,348.8164039850235,2274.7,344.2851462364197,348.8164039850235,2375.2,344.2851462364197,348.8164039850235,2478.3,344.2851462364197,348.8164039850235,2578.4,344.2851462364197,348.8164039850235,2681.5,344.2851462364197,348.8164039850235,2781.6,344.2851462364197,348.8164039850235,2881.8,344.2851462364197,348.8164039850235,2991,344.2851462364197,348.8164039850235,3091,344.2851462364197,348.8164039850235,3191,344.2851462364197,348.8164039850235,3291.1,344.2851462364197,348.8164039850235,3391.4,344.2851462364197,348.8164039850235,3491.6,344.2851462364197,348.8164039850235,3598.4,344.2851462364197,348.8164039850235,3701.7,344.2851462364197,348.8164039850235,3801.8,344.2851462364197,348.8164039850235,3907.6,344.2851462364197,348.8164039850235,4011.7,344.2851462364197,348.8164039850235,4111.7,344.2851462364197,348.8164039850235,4211.7,344.2851462364197,348.8164039850235,4311.9,344.2851462364197,348.8164039850235,4418.1,344.2851462364197,348.8164039850235,4524.4,344.2851462364197,348.8164039850235,4628,344.2851462364197,348.8164039850235,4731.5,344.2851462364197,348.8164039850235,4831.7,344.2851462364197,348.8164039850235,4941]","[989.7,989.7,1000,0,-10.3,""error"",""-"",""-"",""no_move"",5039.1,4049.1,2362.7,1995,681.4,""smooth"",""down"",""down"",""good_move"",6857.6,1817.8,1365.4,5039.8,452.4,""smooth"",""right"",""right"",""good_move"",9989,3131,2668.7,6858,462.3,""smooth"",""right"",""right"",""good_move"",13541.4,3552.1,3105.3,9989.3,446.8,""smooth"",""right"",""right"",""good_move"",16329.3,2787.5,2484.6,13541.8,302.9,""while_blue"",""down"",""left"",""bad_move"",18714.6,2384.8,1960.1,16329.9,424.7,""smooth"",""down"",""down"",""good_move"",21527.6,2812.7,2458.4,18714.9,354.3,""smooth"",""down"",""down"",""good_move"",24114.3,2586.3,2201.1,21528,385.2,""smooth"",""right"",""right"",""good_move""]","",""
"4588","","<div style=""width:500px;"">
  <p>What determined the result of this run?</p>
  </div>","88","html-slider-response","10","235718","0.0-5.0-1.0","246","1","2025-07-29 09:02:45","1f75c3e559b7213887762d5229550c2b","71.138.89.249","Mozilla/5.0 (Windows NT 10.0; Win64; x64) AppleWebKit/537.36 (KHTML, like Gecko) Chrome/138.0.0.0 Safari/537.36","WebKit","Chrome","138.0.0.0","Windows","10.0","https://app.prolific.com/","en-US,en;q=0.9","5f0a7dec44c42c19a6c9f6d9","683db9eb0562dbf637994deb","68888e2da28635a481a6c12e","2","1","5f0a7dec44c42c19a6c9f6d9","2","1","2025-07-29T09:06:41.063Z","","","","","","","","","","","AttribQ","","50","","","","","","","","","","","","","","","","","","","","","","","","","","","","",""
"2179","","<div style=""width:500px;"">
  <p>How much control did you have over the ball?</p>
  </div>","77","html-slider-response","11","237898","0.0-5.0-2.0","246","1","2025-07-29 09:02:45","1f75c3e559b7213887762d5229550c2b","71.138.89.249","Mozilla/5.0 (Windows NT 10.0; Win64; x64) AppleWebKit/537.36 (KHTML, like Gecko) Chrome/138.0.0.0 Safari/537.36","WebKit","Chrome","138.0.0.0","Windows","10.0","https://app.prolific.com/","en-US,en;q=0.9","5f0a7dec44c42c19a6c9f6d9","683db9eb0562dbf637994deb","68888e2da28635a481a6c12e","2","1","5f0a7dec44c42c19a6c9f6d9","2","1","2025-07-29T09:06:43.243Z","","","","","","","","","","","ControlQ","","50","","","","","","","","","","","","","","","","","","","","","","","","","","","","",""
"3172","","<div style=""width:500px;"">
  <p>How would you describe your current emotional state?</p>
  </div>","18","html-slider-response","12","241072","0.0-5.0-3.0","246","1","2025-07-29 09:02:45","1f75c3e559b7213887762d5229550c2b","71.138.89.249","Mozilla/5.0 (Windows NT 10.0; Win64; x64) AppleWebKit/537.36 (KHTML, like Gecko) Chrome/138.0.0.0 Safari/537.36","WebKit","Chrome","138.0.0.0","Windows","10.0","https://app.prolific.com/","en-US,en;q=0.9","5f0a7dec44c42c19a6c9f6d9","683db9eb0562dbf637994deb","68888e2da28635a481a6c12e","2","1","5f0a7dec44c42c19a6c9f6d9","2","1","2025-07-29T09:06:46.418Z","","","","","","","","","","","StressQ","","50","","","","","","","","","","","","","","","","","","","","","","","","","","","","",""
"2882","","<div style=""width:500px;"">
  <p>What best describes how you currently feel?</p>
  </div>","80","html-slider-response","13","243956","0.0-5.0-4.0","246","1","2025-07-29 09:02:45","1f75c3e559b7213887762d5229550c2b","71.138.89.249","Mozilla/5.0 (Windows NT 10.0; Win64; x64) AppleWebKit/537.36 (KHTML, like Gecko) Chrome/138.0.0.0 Safari/537.36","WebKit","Chrome","138.0.0.0","Windows","10.0","https://app.prolific.com/","en-US,en;q=0.9","5f0a7dec44c42c19a6c9f6d9","683db9eb0562dbf637994deb","68888e2da28635a481a6c12e","2","1","5f0a7dec44c42c19a6c9f6d9","2","1","2025-07-29T09:06:49.301Z","","","","","","","","","","","MotivationQ","","50","","","","","","","","","","","","","","","","","","","","","","","","","","","","",""
"","","","","ctl-task-cpt","14","281213","0.0-5.0-0.1","246","1","2025-07-29 09:02:45","1f75c3e559b7213887762d5229550c2b","71.138.89.249","Mozilla/5.0 (Windows NT 10.0; Win64; x64) AppleWebKit/537.36 (KHTML, like Gecko) Chrome/138.0.0.0 Safari/537.36","WebKit","Chrome","138.0.0.0","Windows","10.0","https://app.prolific.com/","en-US,en;q=0.9","5f0a7dec44c42c19a6c9f6d9","683db9eb0562dbf637994deb","68888e2da28635a481a6c12e","2","1","5f0a7dec44c42c19a6c9f6d9","2","1","2025-07-29T09:07:26.559Z","","","","","","","","","","","","","","win-only","0","g1:NW,g2:SE","0.9","2","0","248101.8","3128","8131.3","34245.9","1","4","8","6","2","8","6","8","2","0.06060606060606061","5003.2","3000","970","[""down"",""right""]","{""num_key_presses"":7,""num_perfect"":4,""num_errors"":2,""num_randdir"":1,""num_randdir_good_moves"":1,""num_whilered"":0,""num_whileblue"":1,""num_blue"":3,""num_good_moves"":6}","[347.5663962364197,342.2539039850235,0.6,347.5663962364197,342.2539039850235,102.6,349.2070212364197,343.8945289850235,203.4,349.2070212364197,343.8945289850235,303.7,349.2070212364197,343.8945289850235,407.8,357.4101462364197,347.1757789850235,513.7,404.9882712364197,348.8164039850235,613.9,572.3320212364197,338.9726539850235,717.6,779.0507712364197,338.9726539850235,818,824.9882712364197,338.9726539850235,923.8,856.1601462364197,325.8476539850235,1029.1,870.9257712364197,320.9257789850235,1133.9,870.9257712364197,320.9257789850235,1237.8,870.9257712364197,320.9257789850235,1338.9,870.9257712364197,320.9257789850235,1443.5,870.9257712364197,320.9257789850235,1547.6,870.9257712364197,320.9257789850235,1648.5,870.9257712364197,320.9257789850235,1752.6,870.9257712364197,320.9257789850235,1852.7,870.9257712364197,320.9257789850235,1957.8,870.9257712364197,320.9257789850235,2057.9,870.9257712364197,320.9257789850235,2162.9,870.9257712364197,320.9257789850235,2262.9,870.9257712364197,320.9257789850235,2363,870.9257712364197,320.9257789850235,2463.9,870.9257712364197,320.9257789850235,2568.2,870.9257712364197,320.9257789850235,2673,870.9257712364197,320.9257789850235,2773.2,870.9257712364197,320.9257789850235,2874.3,870.9257712364197,320.9257789850235,2978.6,870.9257712364197,320.9257789850235,3082.7,870.9257712364197,320.9257789850235,3182.9,870.9257712364197,320.9257789850235,3284,870.9257712364197,320.9257789850235,3388.7,870.9257712364197,320.9257789850235,3493.1,870.9257712364197,320.9257789850235,3595.6,870.9257712364197,320.9257789850235,3697.1,870.9257712364197,320.9257789850235,3797.9,870.9257712364197,320.9257789850235,3902.8,870.9257712364197,320.9257789850235,4007.6,870.9257712364197,320.9257789850235,4108.5,870.9257712364197,320.9257789850235,4212.7,870.9257712364197,320.9257789850235,4314.1,870.9257712364197,320.9257789850235,4418.2,870.9257712364197,320.9257789850235,4523.7,870.9257712364197,320.9257789850235,4628.6,870.9257712364197,320.9257789850235,4733.8,870.9257712364197,320.9257789850235,4833.9,870.9257712364197,320.9257789850235,4938.7]","[975,975.1,1000,0,-24.9,""error"",""-"",""-"",""no_move"",4976.9,4001.2,2558.7,1979.3,438.9,""smooth"",""right"",""right"",""good_move"",14111.5,9133.5,2699.8,10906.8,504.9,""smooth"",""right"",""right"",""good_move"",17089.2,2977.4,2592.2,14111.8,385.2,""smooth"",""right"",""right"",""good_move"",20343.8,3254.4,2833.4,17089.5,421,""smooth"",""down"",""down"",""good_move"",23380.9,3036.7,2716.1,20344.2,320.6,""while_blue"",""down"",""down"",""good_move"",26022.2,2641,2113,23381.2,528,""oops"",""down"",""down"",""good_move""]","",""
"2766","","<div style=""width:500px;"">
  <p>What determined the result of this run?</p>
  </div>","93","html-slider-response","15","283981","0.0-5.0-1.1","246","1","2025-07-29 09:02:45","1f75c3e559b7213887762d5229550c2b","71.138.89.249","Mozilla/5.0 (Windows NT 10.0; Win64; x64) AppleWebKit/537.36 (KHTML, like Gecko) Chrome/138.0.0.0 Safari/537.36","WebKit","Chrome","138.0.0.0","Windows","10.0","https://app.prolific.com/","en-US,en;q=0.9","5f0a7dec44c42c19a6c9f6d9","683db9eb0562dbf637994deb","68888e2da28635a481a6c12e","2","1","5f0a7dec44c42c19a6c9f6d9","2","1","2025-07-29T09:07:29.326Z","","","","","","","","","","","AttribQ","","50","","","","","","","","","","","","","","","","","","","","","","","","","","","","",""
"2572","","<div style=""width:500px;"">
  <p>How much control did you have over the ball?</p>
  </div>","91","html-slider-response","16","286555","0.0-5.0-2.1","246","1","2025-07-29 09:02:45","1f75c3e559b7213887762d5229550c2b","71.138.89.249","Mozilla/5.0 (Windows NT 10.0; Win64; x64) AppleWebKit/537.36 (KHTML, like Gecko) Chrome/138.0.0.0 Safari/537.36","WebKit","Chrome","138.0.0.0","Windows","10.0","https://app.prolific.com/","en-US,en;q=0.9","5f0a7dec44c42c19a6c9f6d9","683db9eb0562dbf637994deb","68888e2da28635a481a6c12e","2","1","5f0a7dec44c42c19a6c9f6d9","2","1","2025-07-29T09:07:31.900Z","","","","","","","","","","","ControlQ","","50","","","","","","","","","","","","","","","","","","","","","","","","","","","","",""
"2335","","<div style=""width:500px;"">
  <p>How would you describe your current emotional state?</p>
  </div>","15","html-slider-response","17","288892","0.0-5.0-3.1","246","1","2025-07-29 09:02:45","1f75c3e559b7213887762d5229550c2b","71.138.89.249","Mozilla/5.0 (Windows NT 10.0; Win64; x64) AppleWebKit/537.36 (KHTML, like Gecko) Chrome/138.0.0.0 Safari/537.36","WebKit","Chrome","138.0.0.0","Windows","10.0","https://app.prolific.com/","en-US,en;q=0.9","5f0a7dec44c42c19a6c9f6d9","683db9eb0562dbf637994deb","68888e2da28635a481a6c12e","2","1","5f0a7dec44c42c19a6c9f6d9","2","1","2025-07-29T09:07:34.237Z","","","","","","","","","","","StressQ","","50","","","","","","","","","","","","","","","","","","","","","","","","","","","","",""
"1997","","<div style=""width:500px;"">
  <p>What best describes how you currently feel?</p>
  </div>","85","html-slider-response","18","290890","0.0-5.0-4.1","246","1","2025-07-29 09:02:45","1f75c3e559b7213887762d5229550c2b","71.138.89.249","Mozilla/5.0 (Windows NT 10.0; Win64; x64) AppleWebKit/537.36 (KHTML, like Gecko) Chrome/138.0.0.0 Safari/537.36","WebKit","Chrome","138.0.0.0","Windows","10.0","https://app.prolific.com/","en-US,en;q=0.9","5f0a7dec44c42c19a6c9f6d9","683db9eb0562dbf637994deb","68888e2da28635a481a6c12e","2","1","5f0a7dec44c42c19a6c9f6d9","2","1","2025-07-29T09:07:36.235Z","","","","","","","","","","","MotivationQ","","50","","","","","","","","","","","","","","","","","","","","","","","","","","","","",""
"","","","","ctl-task-cpt","19","314081","0.0-5.0-0.2","246","1","2025-07-29 09:02:45","1f75c3e559b7213887762d5229550c2b","71.138.89.249","Mozilla/5.0 (Windows NT 10.0; Win64; x64) AppleWebKit/537.36 (KHTML, like Gecko) Chrome/138.0.0.0 Safari/537.36","WebKit","Chrome","138.0.0.0","Windows","10.0","https://app.prolific.com/","en-US,en;q=0.9","5f0a7dec44c42c19a6c9f6d9","683db9eb0562dbf637994deb","68888e2da28635a481a6c12e","2","1","5f0a7dec44c42c19a6c9f6d9","2","1","2025-07-29T09:07:59.426Z","","","","","","","","","","","","","","win-only","3","g1:SW,g2:NE","0.8","3","0","295036","1303.2","6305.3","20172.7","1","4","8","6","1","1","1","9","8","0.06818181818181818","5002.1","3000","1430","[""down"",""left""]","{""num_key_presses"":4,""num_perfect"":4,""num_errors"":0,""num_randdir"":0,""num_randdir_good_moves"":0,""num_whilered"":0,""num_whileblue"":0,""num_blue"":1,""num_good_moves"":4}","[344.2851462364197,347.1757789850235,0.3,344.2851462364197,347.1757789850235,101.3,649.4413962364197,348.8164039850235,202.3,829.9101462364197,348.8164039850235,303.4,829.9101462364197,348.8164039850235,407.7,829.9101462364197,348.8164039850235,507.8,829.9101462364197,348.8164039850235,608.6,829.9101462364197,348.8164039850235,717.8,829.9101462364197,348.8164039850235,818.3,829.9101462364197,348.8164039850235,922.1,829.9101462364197,348.8164039850235,1022.5,829.9101462364197,348.8164039850235,1123.7,829.9101462364197,348.8164039850235,1227.8,829.9101462364197,348.8164039850235,1335.3,829.9101462364197,348.8164039850235,1437.8,829.9101462364197,348.8164039850235,1538,829.9101462364197,348.8164039850235,1638.1,829.9101462364197,348.8164039850235,1743.9,829.9101462364197,348.8164039850235,1851.4,829.9101462364197,348.8164039850235,1952.6,829.9101462364197,348.8164039850235,2053.2,829.9101462364197,348.8164039850235,2154.1,829.9101462364197,348.8164039850235,2254.2,829.9101462364197,348.8164039850235,2357.3,829.9101462364197,348.8164039850235,2457.5,829.9101462364197,348.8164039850235,2557.9,829.9101462364197,348.8164039850235,2667.9,829.9101462364197,348.8164039850235,2773.1,829.9101462364197,348.8164039850235,2877.8,829.9101462364197,348.8164039850235,2978.7,829.9101462364197,348.8164039850235,3085.1,829.9101462364197,348.8164039850235,3185.4,829.9101462364197,348.8164039850235,3287.7,829.9101462364197,348.8164039850235,3387.9,829.9101462364197,348.8164039850235,3487.9,829.9101462364197,348.8164039850235,3588,829.9101462364197,348.8164039850235,3692.1,829.9101462364197,348.8164039850235,3792.4,829.9101462364197,348.8164039850235,3901.4,829.9101462364197,348.8164039850235,4002.2,829.9101462364197,348.8164039850235,4103.2,829.9101462364197,348.8164039850235,4208.4,829.9101462364197,348.8164039850235,4313.4,829.9101462364197,348.8164039850235,4419,829.9101462364197,348.8164039850235,4521,829.9101462364197,348.8164039850235,4623.1,829.9101462364197,348.8164039850235,4723.5,829.9101462364197,348.8164039850235,4824,829.9101462364197,348.8164039850235,4927.3]","[4666.6,4666.6,2193.6,2015.9,457.1,""smooth"",""down"",""down"",""good_move"",7701.8,3034.1,2631.8,4667.7,402.3,""smooth"",""down"",""down"",""good_move"",11010.5,3308.4,2891,7702.1,417.4,""smooth"",""left"",""left"",""good_move"",13776.8,2765.7,2408.4,11011.1,357.3,""smooth"",""left"",""left"",""good_move""]","",""
"2130","","<div style=""width:500px;"">
  <p>What determined the result of this run?</p>
  </div>","90","html-slider-response","20","316213","0.0-5.0-1.2","246","1","2025-07-29 09:02:45","1f75c3e559b7213887762d5229550c2b","71.138.89.249","Mozilla/5.0 (Windows NT 10.0; Win64; x64) AppleWebKit/537.36 (KHTML, like Gecko) Chrome/138.0.0.0 Safari/537.36","WebKit","Chrome","138.0.0.0","Windows","10.0","https://app.prolific.com/","en-US,en;q=0.9","5f0a7dec44c42c19a6c9f6d9","683db9eb0562dbf637994deb","68888e2da28635a481a6c12e","2","1","5f0a7dec44c42c19a6c9f6d9","2","1","2025-07-29T09:08:01.558Z","","","","","","","","","","","AttribQ","","50","","","","","","","","","","","","","","","","","","","","","","","","","","","","",""
"2882","","<div style=""width:500px;"">
  <p>How much control did you have over the ball?</p>
  </div>","95","html-slider-response","21","319096","0.0-5.0-2.2","246","1","2025-07-29 09:02:45","1f75c3e559b7213887762d5229550c2b","71.138.89.249","Mozilla/5.0 (Windows NT 10.0; Win64; x64) AppleWebKit/537.36 (KHTML, like Gecko) Chrome/138.0.0.0 Safari/537.36","WebKit","Chrome","138.0.0.0","Windows","10.0","https://app.prolific.com/","en-US,en;q=0.9","5f0a7dec44c42c19a6c9f6d9","683db9eb0562dbf637994deb","68888e2da28635a481a6c12e","2","1","5f0a7dec44c42c19a6c9f6d9","2","1","2025-07-29T09:08:04.441Z","","","","","","","","","","","ControlQ","","50","","","","","","","","","","","","","","","","","","","","","","","","","","","","",""
"2312","","<div style=""width:500px;"">
  <p>How would you describe your current emotional state?</p>
  </div>","14","html-slider-response","22","321409","0.0-5.0-3.2","246","1","2025-07-29 09:02:45","1f75c3e559b7213887762d5229550c2b","71.138.89.249","Mozilla/5.0 (Windows NT 10.0; Win64; x64) AppleWebKit/537.36 (KHTML, like Gecko) Chrome/138.0.0.0 Safari/537.36","WebKit","Chrome","138.0.0.0","Windows","10.0","https://app.prolific.com/","en-US,en;q=0.9","5f0a7dec44c42c19a6c9f6d9","683db9eb0562dbf637994deb","68888e2da28635a481a6c12e","2","1","5f0a7dec44c42c19a6c9f6d9","2","1","2025-07-29T09:08:06.755Z","","","","","","","","","","","StressQ","","50","","","","","","","","","","","","","","","","","","","","","","","","","","","","",""
"2119","","<div style=""width:500px;"">
  <p>What best describes how you currently feel?</p>
  </div>","96","html-slider-response","23","323531","0.0-5.0-4.2","246","1","2025-07-29 09:02:45","1f75c3e559b7213887762d5229550c2b","71.138.89.249","Mozilla/5.0 (Windows NT 10.0; Win64; x64) AppleWebKit/537.36 (KHTML, like Gecko) Chrome/138.0.0.0 Safari/537.36","WebKit","Chrome","138.0.0.0","Windows","10.0","https://app.prolific.com/","en-US,en;q=0.9","5f0a7dec44c42c19a6c9f6d9","683db9eb0562dbf637994deb","68888e2da28635a481a6c12e","2","1","5f0a7dec44c42c19a6c9f6d9","2","1","2025-07-29T09:08:08.876Z","","","","","","","","","","","MotivationQ","","50","","","","","","","","","","","","","","","","","","","","","","","","","","","","",""
"","","","","ctl-task-cpt","24","359416","0.0-5.0-0.3","246","1","2025-07-29 09:02:45","1f75c3e559b7213887762d5229550c2b","71.138.89.249","Mozilla/5.0 (Windows NT 10.0; Win64; x64) AppleWebKit/537.36 (KHTML, like Gecko) Chrome/138.0.0.0 Safari/537.36","WebKit","Chrome","138.0.0.0","Windows","10.0","https://app.prolific.com/","en-US,en;q=0.9","5f0a7dec44c42c19a6c9f6d9","683db9eb0562dbf637994deb","68888e2da28635a481a6c12e","2","1","5f0a7dec44c42c19a6c9f6d9","2","1","2025-07-29T09:08:44.761Z","","","","","","","","","","","","","","win-only","1","g1:NE,g2:SW","0.7","4","0","327678.6","1080.2","6081.2","32861.3","1","4","4","6","1","1","1","10","9","0.07575757575757576","5001","3000","465","[""up"",""right""]","{""num_key_presses"":6,""num_perfect"":5,""num_errors"":0,""num_randdir"":1,""num_randdir_good_moves"":0,""num_whilered"":0,""num_whileblue"":0,""num_blue"":3,""num_good_moves"":5}","[355.7695212364197,352.0976539850235,0.2,354.1288962364197,353.7382789850235,100.2,414.8320212364197,361.9414039850235,200.6,577.2538962364197,348.8164039850235,301.2,764.2851462364197,314.3632789850235,407.3,774.1288962364197,311.0820289850235,516.6,774.1288962364197,311.0820289850235,620.8,774.1288962364197,311.0820289850235,721.8,774.1288962364197,311.0820289850235,825.3,774.1288962364197,311.0820289850235,927.2,774.1288962364197,311.0820289850235,1034.7,774.1288962364197,311.0820289850235,1136.7,774.1288962364197,311.0820289850235,1240.7,774.1288962364197,311.0820289850235,1355.3,774.1288962364197,311.0820289850235,1455.9,774.1288962364197,311.0820289850235,1566.4,774.1288962364197,311.0820289850235,1670.8,774.1288962364197,311.0820289850235,1771.2,774.1288962364197,311.0820289850235,1872.2,774.1288962364197,311.0820289850235,1975.7,774.1288962364197,311.0820289850235,2075.7,774.1288962364197,311.0820289850235,2175.8,774.1288962364197,311.0820289850235,2276.1,774.1288962364197,311.0820289850235,2382.5,774.1288962364197,311.0820289850235,2482.8,774.1288962364197,311.0820289850235,2583.9,774.1288962364197,311.0820289850235,2686.2,774.1288962364197,311.0820289850235,2788.6,774.1288962364197,311.0820289850235,2892,774.1288962364197,311.0820289850235,2999.5,774.1288962364197,311.0820289850235,3100.9,774.1288962364197,311.0820289850235,3205.6,774.1288962364197,311.0820289850235,3305.6,774.1288962364197,311.0820289850235,3406,774.1288962364197,311.0820289850235,3507.1,774.1288962364197,311.0820289850235,3611.4,774.1288962364197,311.0820289850235,3713.1,774.1288962364197,311.0820289850235,3816.8,774.1288962364197,311.0820289850235,3921.9,774.1288962364197,311.0820289850235,4022.3,774.1288962364197,311.0820289850235,4133.5,774.1288962364197,311.0820289850235,4236,774.1288962364197,311.0820289850235,4341.2,774.1288962364197,311.0820289850235,4449.6,774.1288962364197,311.0820289850235,4549.9,774.1288962364197,311.0820289850235,4650.2,774.1288962364197,311.0820289850235,4750.5,774.1288962364197,311.0820289850235,4850.5,774.1288962364197,311.0820289850235,4955.9]","[1473,1473,1000,0,473,""smooth"",""up"",""up"",""good_move"",8634.5,7161,2699.4,5269.8,665.3,""oops"",""up"",""left"",""bad_move"",10967.7,2332.4,1819.5,8635.3,512.9,""smooth"",""right"",""right"",""good_move"",17315.9,6347.9,2633.1,14199.3,483.5,""smooth"",""right"",""right"",""good_move"",23724.2,6407.9,2751,20616,357.2,""smooth"",""right"",""right"",""good_move"",26671.5,2946.9,2498.5,23724.6,448.4,""smooth"",""up"",""up"",""good_move""]","",""
"2035","","<div style=""width:500px;"">
  <p>What determined the result of this run?</p>
  </div>","80","html-slider-response","25","361452","0.0-5.0-1.3","246","1","2025-07-29 09:02:45","1f75c3e559b7213887762d5229550c2b","71.138.89.249","Mozilla/5.0 (Windows NT 10.0; Win64; x64) AppleWebKit/537.36 (KHTML, like Gecko) Chrome/138.0.0.0 Safari/537.36","WebKit","Chrome","138.0.0.0","Windows","10.0","https://app.prolific.com/","en-US,en;q=0.9","5f0a7dec44c42c19a6c9f6d9","683db9eb0562dbf637994deb","68888e2da28635a481a6c12e","2","1","5f0a7dec44c42c19a6c9f6d9","2","1","2025-07-29T09:08:46.797Z","","","","","","","","","","","AttribQ","","50","","","","","","","","","","","","","","","","","","","","","","","","","","","","",""
"3038","","<div style=""width:500px;"">
  <p>How much control did you have over the ball?</p>
  </div>","69","html-slider-response","26","364492","0.0-5.0-2.3","246","1","2025-07-29 09:02:45","1f75c3e559b7213887762d5229550c2b","71.138.89.249","Mozilla/5.0 (Windows NT 10.0; Win64; x64) AppleWebKit/537.36 (KHTML, like Gecko) Chrome/138.0.0.0 Safari/537.36","WebKit","Chrome","138.0.0.0","Windows","10.0","https://app.prolific.com/","en-US,en;q=0.9","5f0a7dec44c42c19a6c9f6d9","683db9eb0562dbf637994deb","68888e2da28635a481a6c12e","2","1","5f0a7dec44c42c19a6c9f6d9","2","1","2025-07-29T09:08:49.837Z","","","","","","","","","","","ControlQ","","50","","","","","","","","","","","","","","","","","","","","","","","","","","","","",""
"2418","","<div style=""width:500px;"">
  <p>How would you describe your current emotional state?</p>
  </div>","34","html-slider-response","27","366912","0.0-5.0-3.3","246","1","2025-07-29 09:02:45","1f75c3e559b7213887762d5229550c2b","71.138.89.249","Mozilla/5.0 (Windows NT 10.0; Win64; x64) AppleWebKit/537.36 (KHTML, like Gecko) Chrome/138.0.0.0 Safari/537.36","WebKit","Chrome","138.0.0.0","Windows","10.0","https://app.prolific.com/","en-US,en;q=0.9","5f0a7dec44c42c19a6c9f6d9","683db9eb0562dbf637994deb","68888e2da28635a481a6c12e","2","1","5f0a7dec44c42c19a6c9f6d9","2","1","2025-07-29T09:08:52.257Z","","","","","","","","","","","StressQ","","50","","","","","","","","","","","","","","","","","","","","","","","","","","","","",""
"1824","","<div style=""width:500px;"">
  <p>What best describes how you currently feel?</p>
  </div>","88","html-slider-response","28","368738","0.0-5.0-4.3","246","1","2025-07-29 09:02:45","1f75c3e559b7213887762d5229550c2b","71.138.89.249","Mozilla/5.0 (Windows NT 10.0; Win64; x64) AppleWebKit/537.36 (KHTML, like Gecko) Chrome/138.0.0.0 Safari/537.36","WebKit","Chrome","138.0.0.0","Windows","10.0","https://app.prolific.com/","en-US,en;q=0.9","5f0a7dec44c42c19a6c9f6d9","683db9eb0562dbf637994deb","68888e2da28635a481a6c12e","2","1","5f0a7dec44c42c19a6c9f6d9","2","1","2025-07-29T09:08:54.083Z","","","","","","","","","","","MotivationQ","","50","","","","","","","","","","","","","","","","","","","","","","","","","","","","",""
"","","","","ctl-task-cpt","29","397435","0.0-5.0-0.4","246","1","2025-07-29 09:02:45","1f75c3e559b7213887762d5229550c2b","71.138.89.249","Mozilla/5.0 (Windows NT 10.0; Win64; x64) AppleWebKit/537.36 (KHTML, like Gecko) Chrome/138.0.0.0 Safari/537.36","WebKit","Chrome","138.0.0.0","Windows","10.0","https://app.prolific.com/","en-US,en;q=0.9","5f0a7dec44c42c19a6c9f6d9","683db9eb0562dbf637994deb","68888e2da28635a481a6c12e","2","1","5f0a7dec44c42c19a6c9f6d9","2","1","2025-07-29T09:09:22.780Z","","","","","","","","","","","","","","win-only","3","g1:SW,g2:NE","0.6","5","0","372885.7","2848.3","7857","25674.6","1","4","4","6","1","1","1","11","10","0.08333333333333333","5008.6","3000","825","[""down"",""left""]","{""num_key_presses"":6,""num_perfect"":4,""num_errors"":0,""num_randdir"":2,""num_randdir_good_moves"":1,""num_whilered"":0,""num_whileblue"":0,""num_blue"":0,""num_good_moves"":5}","[345.9257712364197,357.0195289850235,0.3,345.9257712364197,357.0195289850235,105.8,345.9257712364197,357.0195289850235,213.1,355.7695212364197,357.0195289850235,316.9,449.2851462364197,357.0195289850235,418.3,642.8788962364197,352.0976539850235,531.4,711.7851462364197,350.4570289850235,632.5,713.4257712364197,350.4570289850235,737.1,713.4257712364197,350.4570289850235,841.3,713.4257712364197,352.0976539850235,941.9,710.1445212364197,352.0976539850235,1042.1,706.8632712364197,355.3789039850235,1146.9,856.1601462364197,348.8164039850235,1247.3,864.3632712364197,348.8164039850235,1347.9,867.6445212364197,348.8164039850235,1457.4,867.6445212364197,348.8164039850235,1561.9,867.6445212364197,348.8164039850235,1661.9,867.6445212364197,348.8164039850235,1763.1,867.6445212364197,348.8164039850235,1863.8,867.6445212364197,348.8164039850235,1967.5,867.6445212364197,348.8164039850235,2067.6,867.6445212364197,348.8164039850235,2168.6,867.6445212364197,348.8164039850235,2272.3,867.6445212364197,348.8164039850235,2378.6,867.6445212364197,348.8164039850235,2483,867.6445212364197,348.8164039850235,2587.6,867.6445212364197,348.8164039850235,2692.4,867.6445212364197,348.8164039850235,2792.4,867.6445212364197,348.8164039850235,2892.9,867.6445212364197,348.8164039850235,2993.1,867.6445212364197,348.8164039850235,3093.1,867.6445212364197,348.8164039850235,3193.5,867.6445212364197,348.8164039850235,3297.7,867.6445212364197,348.8164039850235,3408.2,867.6445212364197,348.8164039850235,3512,867.6445212364197,348.8164039850235,3612.1,867.6445212364197,348.8164039850235,3713.2,867.6445212364197,348.8164039850235,3818.2,867.6445212364197,348.8164039850235,3924.5,867.6445212364197,348.8164039850235,4027.8,867.6445212364197,348.8164039850235,4129.2,867.6445212364197,348.8164039850235,4232,867.6445212364197,348.8164039850235,4332.1,867.6445212364197,348.8164039850235,4432.5,867.6445212364197,348.8164039850235,4541.6,867.6445212364197,348.8164039850235,4642,867.6445212364197,348.8164039850235,4742,867.6445212364197,348.8164039850235,4847.5,867.6445212364197,348.8164039850235,4947.6]","[1467.7,1467.7,1000,0,467.7,""oops"",""down"",""right"",""bad_move"",5134.9,3666.3,3210.9,1468.6,455.4,""smooth"",""left"",""left"",""good_move"",8037.8,2902.4,2482.5,5135.4,419.9,""oops"",""left"",""down"",""good_move"",11434.4,3395.7,3004.5,8038.7,391.2,""smooth"",""left"",""left"",""good_move"",14699.4,3264.7,2860.4,11434.7,404.3,""smooth"",""left"",""left"",""good_move"",17716.9,3016.7,2619.8,14700.3,396.8,""smooth"",""down"",""down"",""good_move""]","",""
"1828","","<div style=""width:500px;"">
  <p>What determined the result of this run?</p>
  </div>","73","html-slider-response","30","399265","0.0-5.0-1.4","246","1","2025-07-29 09:02:45","1f75c3e559b7213887762d5229550c2b","71.138.89.249","Mozilla/5.0 (Windows NT 10.0; Win64; x64) AppleWebKit/537.36 (KHTML, like Gecko) Chrome/138.0.0.0 Safari/537.36","WebKit","Chrome","138.0.0.0","Windows","10.0","https://app.prolific.com/","en-US,en;q=0.9","5f0a7dec44c42c19a6c9f6d9","683db9eb0562dbf637994deb","68888e2da28635a481a6c12e","2","1","5f0a7dec44c42c19a6c9f6d9","2","1","2025-07-29T09:09:24.610Z","","","","","","","","","","","AttribQ","","50","","","","","","","","","","","","","","","","","","","","","","","","","","","","",""
"2486","","<div style=""width:500px;"">
  <p>How much control did you have over the ball?</p>
  </div>","53","html-slider-response","31","401752","0.0-5.0-2.4","246","1","2025-07-29 09:02:45","1f75c3e559b7213887762d5229550c2b","71.138.89.249","Mozilla/5.0 (Windows NT 10.0; Win64; x64) AppleWebKit/537.36 (KHTML, like Gecko) Chrome/138.0.0.0 Safari/537.36","WebKit","Chrome","138.0.0.0","Windows","10.0","https://app.prolific.com/","en-US,en;q=0.9","5f0a7dec44c42c19a6c9f6d9","683db9eb0562dbf637994deb","68888e2da28635a481a6c12e","2","1","5f0a7dec44c42c19a6c9f6d9","2","1","2025-07-29T09:09:27.097Z","","","","","","","","","","","ControlQ","","50","","","","","","","","","","","","","","","","","","","","","","","","","","","","",""
"2778","","<div style=""width:500px;"">
  <p>How would you describe your current emotional state?</p>
  </div>","43","html-slider-response","32","404532","0.0-5.0-3.4","246","1","2025-07-29 09:02:45","1f75c3e559b7213887762d5229550c2b","71.138.89.249","Mozilla/5.0 (Windows NT 10.0; Win64; x64) AppleWebKit/537.36 (KHTML, like Gecko) Chrome/138.0.0.0 Safari/537.36","WebKit","Chrome","138.0.0.0","Windows","10.0","https://app.prolific.com/","en-US,en;q=0.9","5f0a7dec44c42c19a6c9f6d9","683db9eb0562dbf637994deb","68888e2da28635a481a6c12e","2","1","5f0a7dec44c42c19a6c9f6d9","2","1","2025-07-29T09:09:29.877Z","","","","","","","","","","","StressQ","","50","","","","","","","","","","","","","","","","","","","","","","","","","","","","",""
"2361","","<div style=""width:500px;"">
  <p>What best describes how you currently feel?</p>
  </div>","83","html-slider-response","33","406894","0.0-5.0-4.4","246","1","2025-07-29 09:02:45","1f75c3e559b7213887762d5229550c2b","71.138.89.249","Mozilla/5.0 (Windows NT 10.0; Win64; x64) AppleWebKit/537.36 (KHTML, like Gecko) Chrome/138.0.0.0 Safari/537.36","WebKit","Chrome","138.0.0.0","Windows","10.0","https://app.prolific.com/","en-US,en;q=0.9","5f0a7dec44c42c19a6c9f6d9","683db9eb0562dbf637994deb","68888e2da28635a481a6c12e","2","1","5f0a7dec44c42c19a6c9f6d9","2","1","2025-07-29T09:09:32.240Z","","","","","","","","","","","MotivationQ","","50","","","","","","","","","","","","","","","","","","","","","","","","","","","","",""
"","","","","ctl-task-cpt","34","441617","0.0-5.0-0.5","246","1","2025-07-29 09:02:45","1f75c3e559b7213887762d5229550c2b","71.138.89.249","Mozilla/5.0 (Windows NT 10.0; Win64; x64) AppleWebKit/537.36 (KHTML, like Gecko) Chrome/138.0.0.0 Safari/537.36","WebKit","Chrome","138.0.0.0","Windows","10.0","https://app.prolific.com/","en-US,en;q=0.9","5f0a7dec44c42c19a6c9f6d9","683db9eb0562dbf637994deb","68888e2da28635a481a6c12e","2","1","5f0a7dec44c42c19a6c9f6d9","2","1","2025-07-29T09:10:06.962Z","","","","","","","","","","","","","","win-only","2","g1:SE,g2:NW","0.5","6","0","411040.9","1150.1","6152.5","31710.4","1","4","8","6","2","-8","-8","3","11","0.022727272727272728","5002.4","3000","-2530","[""left"",""up""]","{""num_key_presses"":8,""num_perfect"":5,""num_errors"":0,""num_randdir"":3,""num_randdir_good_moves"":1,""num_whilered"":0,""num_whileblue"":0,""num_blue"":0,""num_good_moves"":6}","[350.8476462364197,348.8164039850235,0.4,350.8476462364197,348.8164039850235,106.5,349.2070212364197,352.0976539850235,211.2,377.0976462364197,419.3632789850235,312.4,385.3007712364197,421.0039039850235,425.6,578.8945212364197,443.9726539850235,532.7,701.9413962364197,429.2070289850235,633.1,734.7538962364197,417.7226539850235,736.8,783.9726462364197,412.8007789850235,841.3,833.1913962364197,412.8007789850235,952,833.1913962364197,412.8007789850235,1055.2,833.1913962364197,412.8007789850235,1155.6,833.1913962364197,412.8007789850235,1260.2,833.1913962364197,412.8007789850235,1360.8,833.1913962364197,412.8007789850235,1468.9,833.1913962364197,412.8007789850235,1569.1,833.1913962364197,412.8007789850235,1670.9,833.1913962364197,412.8007789850235,1771.9,833.1913962364197,412.8007789850235,1872.1,833.1913962364197,412.8007789850235,1973.5,833.1913962364197,412.8007789850235,2076.8,833.1913962364197,412.8007789850235,2181.2,833.1913962364197,412.8007789850235,2287.6,833.1913962364197,412.8007789850235,2393.3,833.1913962364197,412.8007789850235,2495.6,833.1913962364197,412.8007789850235,2603.1,833.1913962364197,412.8007789850235,2703.7,833.1913962364197,412.8007789850235,2806.6,833.1913962364197,412.8007789850235,2911.8,833.1913962364197,412.8007789850235,3012,833.1913962364197,412.8007789850235,3117,833.1913962364197,412.8007789850235,3221.1,833.1913962364197,412.8007789850235,3321.2,833.1913962364197,412.8007789850235,3425.4,833.1913962364197,412.8007789850235,3525.5,833.1913962364197,412.8007789850235,3626.6,833.1913962364197,412.8007789850235,3735.7,833.1913962364197,412.8007789850235,3836.7,833.1913962364197,412.8007789850235,3940.8,833.1913962364197,412.8007789850235,4052.1,833.1913962364197,412.8007789850235,4156,833.1913962364197,412.8007789850235,4256.4,833.1913962364197,412.8007789850235,4362.1,833.1913962364197,412.8007789850235,4469.9,833.1913962364197,412.8007789850235,4571.5,833.1913962364197,412.8007789850235,4676.3,833.1913962364197,412.8007789850235,4776.6,833.1913962364197,412.8007789850235,4880.5,833.1913962364197,412.8007789850235,4981]","[1466.2,1466.2,1000,0,466.2,""smooth"",""up"",""up"",""good_move"",4186.8,2719.8,2338.1,1467,381.7,""smooth"",""left"",""left"",""good_move"",7451.2,3264,2889,4187.2,375,""oops"",""left"",""down"",""bad_move"",10600.4,3148.6,2775.2,7451.8,373.4,""smooth"",""left"",""left"",""good_move"",14087.5,3486.8,3098.1,10600.7,388.7,""oops"",""left"",""left"",""good_move"",17056.9,2969.1,2592.1,14087.8,377,""smooth"",""up"",""up"",""good_move"",19824.3,2766.2,2278.3,17058.1,487.9,""smooth"",""up"",""up"",""good_move"",23019.7,3195.1,2801.6,19824.6,393.5,""oops"",""up"",""down"",""bad_move""]","",""
"5474","","<div style=""width:500px;"">
  <p>What determined the result of this run?</p>
  </div>","35","html-slider-response","35","447092","0.0-5.0-1.5","246","1","2025-07-29 09:02:45","1f75c3e559b7213887762d5229550c2b","71.138.89.249","Mozilla/5.0 (Windows NT 10.0; Win64; x64) AppleWebKit/537.36 (KHTML, like Gecko) Chrome/138.0.0.0 Safari/537.36","WebKit","Chrome","138.0.0.0","Windows","10.0","https://app.prolific.com/","en-US,en;q=0.9","5f0a7dec44c42c19a6c9f6d9","683db9eb0562dbf637994deb","68888e2da28635a481a6c12e","2","1","5f0a7dec44c42c19a6c9f6d9","2","1","2025-07-29T09:10:12.437Z","","","","","","","","","","","AttribQ","","50","","","","","","","","","","","","","","","","","","","","","","","","","","","","",""
"2699","","<div style=""width:500px;"">
  <p>How much control did you have over the ball?</p>
  </div>","21","html-slider-response","36","449792","0.0-5.0-2.5","246","1","2025-07-29 09:02:45","1f75c3e559b7213887762d5229550c2b","71.138.89.249","Mozilla/5.0 (Windows NT 10.0; Win64; x64) AppleWebKit/537.36 (KHTML, like Gecko) Chrome/138.0.0.0 Safari/537.36","WebKit","Chrome","138.0.0.0","Windows","10.0","https://app.prolific.com/","en-US,en;q=0.9","5f0a7dec44c42c19a6c9f6d9","683db9eb0562dbf637994deb","68888e2da28635a481a6c12e","2","1","5f0a7dec44c42c19a6c9f6d9","2","1","2025-07-29T09:10:15.138Z","","","","","","","","","","","ControlQ","","50","","","","","","","","","","","","","","","","","","","","","","","","","","","","",""
"2228","","<div style=""width:500px;"">
  <p>How would you describe your current emotional state?</p>
  </div>","68","html-slider-response","37","452022","0.0-5.0-3.5","246","1","2025-07-29 09:02:45","1f75c3e559b7213887762d5229550c2b","71.138.89.249","Mozilla/5.0 (Windows NT 10.0; Win64; x64) AppleWebKit/537.36 (KHTML, like Gecko) Chrome/138.0.0.0 Safari/537.36","WebKit","Chrome","138.0.0.0","Windows","10.0","https://app.prolific.com/","en-US,en;q=0.9","5f0a7dec44c42c19a6c9f6d9","683db9eb0562dbf637994deb","68888e2da28635a481a6c12e","2","1","5f0a7dec44c42c19a6c9f6d9","2","1","2025-07-29T09:10:17.367Z","","","","","","","","","","","StressQ","","50","","","","","","","","","","","","","","","","","","","","","","","","","","","","",""
"1857","","<div style=""width:500px;"">
  <p>What best describes how you currently feel?</p>
  </div>","66","html-slider-response","38","453880","0.0-5.0-4.5","246","1","2025-07-29 09:02:45","1f75c3e559b7213887762d5229550c2b","71.138.89.249","Mozilla/5.0 (Windows NT 10.0; Win64; x64) AppleWebKit/537.36 (KHTML, like Gecko) Chrome/138.0.0.0 Safari/537.36","WebKit","Chrome","138.0.0.0","Windows","10.0","https://app.prolific.com/","en-US,en;q=0.9","5f0a7dec44c42c19a6c9f6d9","683db9eb0562dbf637994deb","68888e2da28635a481a6c12e","2","1","5f0a7dec44c42c19a6c9f6d9","2","1","2025-07-29T09:10:19.225Z","","","","","","","","","","","MotivationQ","","50","","","","","","","","","","","","","","","","","","","","","","","","","","","","",""
"","","","","ctl-task-cpt","39","493904","0.0-5.0-0.6","246","1","2025-07-29 09:02:45","1f75c3e559b7213887762d5229550c2b","71.138.89.249","Mozilla/5.0 (Windows NT 10.0; Win64; x64) AppleWebKit/537.36 (KHTML, like Gecko) Chrome/138.0.0.0 Safari/537.36","WebKit","Chrome","138.0.0.0","Windows","10.0","https://app.prolific.com/","en-US,en;q=0.9","5f0a7dec44c42c19a6c9f6d9","683db9eb0562dbf637994deb","68888e2da28635a481a6c12e","2","1","5f0a7dec44c42c19a6c9f6d9","2","1","2025-07-29T09:10:59.250Z","","","","","","","","","","","","","","win-only","3","g1:SW,g2:NE","0.4","7","0","458026.1","848.2","5856.2","37012.3","1","4","4","6","2","-4","-4","0","3","0","5008","3000","-2370","[""up"",""right""]","{""num_key_presses"":7,""num_perfect"":4,""num_errors"":0,""num_randdir"":3,""num_randdir_good_moves"":0,""num_whilered"":0,""num_whileblue"":0,""num_blue"":3,""num_good_moves"":4}","[350.8476462364197,345.5351539850235,0.2,350.8476462364197,345.5351539850235,104.7,414.8320212364197,352.0976539850235,205.2,672.4101462364197,355.3789039850235,321.3,869.2851462364197,332.4101539850235,427,869.2851462364197,332.4101539850235,528.1,869.2851462364197,332.4101539850235,628.5,869.2851462364197,332.4101539850235,728.9,869.2851462364197,332.4101539850235,833.1,869.2851462364197,332.4101539850235,935,869.2851462364197,332.4101539850235,1037.7,869.2851462364197,332.4101539850235,1139.9,869.2851462364197,332.4101539850235,1243.2,869.2851462364197,332.4101539850235,1347.7,869.2851462364197,332.4101539850235,1453,869.2851462364197,332.4101539850235,1557.1,869.2851462364197,332.4101539850235,1658.8,869.2851462364197,332.4101539850235,1759.1,869.2851462364197,332.4101539850235,1869.6,869.2851462364197,332.4101539850235,1972.2,869.2851462364197,332.4101539850235,2078.7,869.2851462364197,332.4101539850235,2186.6,869.2851462364197,332.4101539850235,2294.3,869.2851462364197,332.4101539850235,2395.7,869.2851462364197,332.4101539850235,2497.5,869.2851462364197,332.4101539850235,2600.2,869.2851462364197,332.4101539850235,2704.1,869.2851462364197,332.4101539850235,2804.5,869.2851462364197,332.4101539850235,2907.4,869.2851462364197,332.4101539850235,3008.6,869.2851462364197,332.4101539850235,3119.4,869.2851462364197,332.4101539850235,3220.4,869.2851462364197,332.4101539850235,3322.7,869.2851462364197,332.4101539850235,3423.1,869.2851462364197,332.4101539850235,3523.9,869.2851462364197,332.4101539850235,3627.8,869.2851462364197,332.4101539850235,3729.7,869.2851462364197,332.4101539850235,3839.1,869.2851462364197,332.4101539850235,3941.5,869.2851462364197,332.4101539850235,4043.2,869.2851462364197,332.4101539850235,4144.2,869.2851462364197,332.4101539850235,4248.1,869.2851462364197,332.4101539850235,4349.1,869.2851462364197,332.4101539850235,4452.3,869.2851462364197,332.4101539850235,4552.7,869.2851462364197,332.4101539850235,4654.8,869.2851462364197,332.4101539850235,4758.8,869.2851462364197,332.4101539850235,4870,869.2851462364197,332.4101539850235,4974.1]","[1484,1484,1000,0,484,""smooth"",""up"",""up"",""good_move"",3379.4,1894.5,1479.4,1484.9,415.1,""smooth"",""up"",""up"",""good_move"",6614.9,3235.4,2832.6,3379.6,402.8,""smooth"",""up"",""up"",""good_move"",9718.6,3103.3,2754.4,6615.3,348.9,""smooth"",""right"",""right"",""good_move"",12801.9,3082.3,2744.2,9719.6,338.2,""oops"",""right"",""down"",""bad_move"",22295.9,9493.7,1941.1,19959.6,395.3,""oops"",""right"",""down"",""bad_move"",28893.2,6596.8,2761,25700.5,431.7,""oops"",""right"",""left"",""bad_move""]","",""
"3826","","<div style=""width:500px;"">
  <p>What determined the result of this run?</p>
  </div>","33","html-slider-response","40","497735","0.0-5.0-1.6","246","1","2025-07-29 09:02:45","1f75c3e559b7213887762d5229550c2b","71.138.89.249","Mozilla/5.0 (Windows NT 10.0; Win64; x64) AppleWebKit/537.36 (KHTML, like Gecko) Chrome/138.0.0.0 Safari/537.36","WebKit","Chrome","138.0.0.0","Windows","10.0","https://app.prolific.com/","en-US,en;q=0.9","5f0a7dec44c42c19a6c9f6d9","683db9eb0562dbf637994deb","68888e2da28635a481a6c12e","2","1","5f0a7dec44c42c19a6c9f6d9","2","1","2025-07-29T09:11:03.080Z","","","","","","","","","","","AttribQ","","50","","","","","","","","","","","","","","","","","","","","","","","","","","","","",""
"2325","","<div style=""width:500px;"">
  <p>How much control did you have over the ball?</p>
  </div>","28","html-slider-response","41","500062","0.0-5.0-2.6","246","1","2025-07-29 09:02:45","1f75c3e559b7213887762d5229550c2b","71.138.89.249","Mozilla/5.0 (Windows NT 10.0; Win64; x64) AppleWebKit/537.36 (KHTML, like Gecko) Chrome/138.0.0.0 Safari/537.36","WebKit","Chrome","138.0.0.0","Windows","10.0","https://app.prolific.com/","en-US,en;q=0.9","5f0a7dec44c42c19a6c9f6d9","683db9eb0562dbf637994deb","68888e2da28635a481a6c12e","2","1","5f0a7dec44c42c19a6c9f6d9","2","1","2025-07-29T09:11:05.408Z","","","","","","","","","","","ControlQ","","50","","","","","","","","","","","","","","","","","","","","","","","","","","","","",""
"2644","","<div style=""width:500px;"">
  <p>How would you describe your current emotional state?</p>
  </div>","78","html-slider-response","42","502708","0.0-5.0-3.6","246","1","2025-07-29 09:02:45","1f75c3e559b7213887762d5229550c2b","71.138.89.249","Mozilla/5.0 (Windows NT 10.0; Win64; x64) AppleWebKit/537.36 (KHTML, like Gecko) Chrome/138.0.0.0 Safari/537.36","WebKit","Chrome","138.0.0.0","Windows","10.0","https://app.prolific.com/","en-US,en;q=0.9","5f0a7dec44c42c19a6c9f6d9","683db9eb0562dbf637994deb","68888e2da28635a481a6c12e","2","1","5f0a7dec44c42c19a6c9f6d9","2","1","2025-07-29T09:11:08.053Z","","","","","","","","","","","StressQ","","50","","","","","","","","","","","","","","","","","","","","","","","","","","","","",""
"1837","","<div style=""width:500px;"">
  <p>What best describes how you currently feel?</p>
  </div>","67","html-slider-response","43","504546","0.0-5.0-4.6","246","1","2025-07-29 09:02:45","1f75c3e559b7213887762d5229550c2b","71.138.89.249","Mozilla/5.0 (Windows NT 10.0; Win64; x64) AppleWebKit/537.36 (KHTML, like Gecko) Chrome/138.0.0.0 Safari/537.36","WebKit","Chrome","138.0.0.0","Windows","10.0","https://app.prolific.com/","en-US,en;q=0.9","5f0a7dec44c42c19a6c9f6d9","683db9eb0562dbf637994deb","68888e2da28635a481a6c12e","2","1","5f0a7dec44c42c19a6c9f6d9","2","1","2025-07-29T09:11:09.891Z","","","","","","","","","","","MotivationQ","","50","","","","","","","","","","","","","","","","","","","","","","","","","","","","",""
"","","","","ctl-task-cpt","44","544252","0.0-5.0-0.7","246","1","2025-07-29 09:02:45","1f75c3e559b7213887762d5229550c2b","71.138.89.249","Mozilla/5.0 (Windows NT 10.0; Win64; x64) AppleWebKit/537.36 (KHTML, like Gecko) Chrome/138.0.0.0 Safari/537.36","WebKit","Chrome","138.0.0.0","Windows","10.0","https://app.prolific.com/","en-US,en;q=0.9","5f0a7dec44c42c19a6c9f6d9","683db9eb0562dbf637994deb","68888e2da28635a481a6c12e","2","1","5f0a7dec44c42c19a6c9f6d9","2","1","2025-07-29T09:11:49.597Z","","","","","","","","","","","","","","win-only","3","g1:SW,g2:NE","0.3","8","0","508692","955","5955.6","36690.7","1","4","8","6","1","-1","-1","0","0","0","5000.6","3000","-2300","[""down"",""left""]","{""num_key_presses"":9,""num_perfect"":3,""num_errors"":0,""num_randdir"":6,""num_randdir_good_moves"":3,""num_whilered"":0,""num_whileblue"":0,""num_blue"":1,""num_good_moves"":6}","[349.2070212364197,352.0976539850235,0.2,349.2070212364197,352.0976539850235,101,350.8476462364197,352.0976539850235,204.4,386.9413962364197,352.0976539850235,314.2,439.4413962364197,352.0976539850235,418,450.9257712364197,343.8945289850235,519.1,534.5976462364197,320.9257789850235,621.2,537.8788962364197,320.9257789850235,730.6,537.8788962364197,320.9257789850235,831.4,551.0038962364197,314.3632789850235,935,775.7695212364197,256.9414039850235,1035.3,841.3945212364197,247.0976539850235,1136.3,841.3945212364197,247.0976539850235,1248.3,841.3945212364197,247.0976539850235,1350.7,841.3945212364197,247.0976539850235,1451.2,841.3945212364197,247.0976539850235,1555.6,841.3945212364197,247.0976539850235,1656.5,841.3945212364197,247.0976539850235,1765.7,841.3945212364197,247.0976539850235,1870.2,841.3945212364197,247.0976539850235,1970.5,841.3945212364197,247.0976539850235,2071.4,841.3945212364197,247.0976539850235,2176.4,841.3945212364197,247.0976539850235,2277.1,841.3945212364197,247.0976539850235,2381.6,841.3945212364197,247.0976539850235,2482.1,841.3945212364197,247.0976539850235,2586.4,841.3945212364197,247.0976539850235,2691.5,841.3945212364197,247.0976539850235,2792.4,841.3945212364197,247.0976539850235,2904,841.3945212364197,247.0976539850235,3005.7,841.3945212364197,247.0976539850235,3115.5,841.3945212364197,247.0976539850235,3222,841.3945212364197,247.0976539850235,3334,841.3945212364197,247.0976539850235,3438.4,841.3945212364197,247.0976539850235,3547.8,841.3945212364197,247.0976539850235,3652.9,841.3945212364197,247.0976539850235,3755.4,841.3945212364197,247.0976539850235,3857.7,841.3945212364197,247.0976539850235,3963.4,841.3945212364197,247.0976539850235,4066.6,841.3945212364197,247.0976539850235,4170.5,841.3945212364197,247.0976539850235,4271.5,841.3945212364197,247.0976539850235,4381.4,841.3945212364197,247.0976539850235,4481.5,841.3945212364197,247.0976539850235,4586.5,841.3945212364197,247.0976539850235,4686.9,841.3945212364197,247.0976539850235,4787,841.3945212364197,247.0976539850235,4887.6,841.3945212364197,247.0976539850235,4991.1]","[1521.3,1521.3,1000,0,521.3,""oops"",""down"",""up"",""bad_move"",4671.4,3149.5,2730.4,1521.9,419.1,""smooth"",""left"",""left"",""good_move"",11941.2,7269.4,2787.7,8767.2,386.3,""oops"",""down"",""left"",""good_move"",15066.4,3124.8,2583.7,11941.6,541.1,""oops"",""down"",""down"",""good_move"",18778.5,3711.2,3282,15067.3,429.2,""oops"",""down"",""up"",""bad_move"",20714.3,1934.9,1485.7,18779.4,449.2,""oops"",""down"",""down"",""good_move"",23145.3,2430.6,2051.8,20714.7,378.8,""smooth"",""down"",""down"",""good_move"",26344.1,3198.2,2836.2,23145.9,362,""oops"",""down"",""right"",""bad_move"",28275.4,1930.8,1593.4,26344.7,337.4,""smooth"",""left"",""left"",""good_move""]","",""
"3877","","<div style=""width:500px;"">
  <p>What determined the result of this run?</p>
  </div>","15","html-slider-response","45","548130","0.0-5.0-1.7","246","1","2025-07-29 09:02:45","1f75c3e559b7213887762d5229550c2b","71.138.89.249","Mozilla/5.0 (Windows NT 10.0; Win64; x64) AppleWebKit/537.36 (KHTML, like Gecko) Chrome/138.0.0.0 Safari/537.36","WebKit","Chrome","138.0.0.0","Windows","10.0","https://app.prolific.com/","en-US,en;q=0.9","5f0a7dec44c42c19a6c9f6d9","683db9eb0562dbf637994deb","68888e2da28635a481a6c12e","2","1","5f0a7dec44c42c19a6c9f6d9","2","1","2025-07-29T09:11:53.475Z","","","","","","","","","","","AttribQ","","50","","","","","","","","","","","","","","","","","","","","","","","","","","","","",""
"2967","","<div style=""width:500px;"">
  <p>How much control did you have over the ball?</p>
  </div>","7","html-slider-response","46","551099","0.0-5.0-2.7","246","1","2025-07-29 09:02:45","1f75c3e559b7213887762d5229550c2b","71.138.89.249","Mozilla/5.0 (Windows NT 10.0; Win64; x64) AppleWebKit/537.36 (KHTML, like Gecko) Chrome/138.0.0.0 Safari/537.36","WebKit","Chrome","138.0.0.0","Windows","10.0","https://app.prolific.com/","en-US,en;q=0.9","5f0a7dec44c42c19a6c9f6d9","683db9eb0562dbf637994deb","68888e2da28635a481a6c12e","2","1","5f0a7dec44c42c19a6c9f6d9","2","1","2025-07-29T09:11:56.444Z","","","","","","","","","","","ControlQ","","50","","","","","","","","","","","","","","","","","","","","","","","","","","","","",""
"2461","","<div style=""width:500px;"">
  <p>How would you describe your current emotional state?</p>
  </div>","76","html-slider-response","47","553561","0.0-5.0-3.7","246","1","2025-07-29 09:02:45","1f75c3e559b7213887762d5229550c2b","71.138.89.249","Mozilla/5.0 (Windows NT 10.0; Win64; x64) AppleWebKit/537.36 (KHTML, like Gecko) Chrome/138.0.0.0 Safari/537.36","WebKit","Chrome","138.0.0.0","Windows","10.0","https://app.prolific.com/","en-US,en;q=0.9","5f0a7dec44c42c19a6c9f6d9","683db9eb0562dbf637994deb","68888e2da28635a481a6c12e","2","1","5f0a7dec44c42c19a6c9f6d9","2","1","2025-07-29T09:11:58.906Z","","","","","","","","","","","StressQ","","50","","","","","","","","","","","","","","","","","","","","","","","","","","","","",""
"2168","","<div style=""width:500px;"">
  <p>What best describes how you currently feel?</p>
  </div>","72","html-slider-response","48","555731","0.0-5.0-4.7","246","1","2025-07-29 09:02:45","1f75c3e559b7213887762d5229550c2b","71.138.89.249","Mozilla/5.0 (Windows NT 10.0; Win64; x64) AppleWebKit/537.36 (KHTML, like Gecko) Chrome/138.0.0.0 Safari/537.36","WebKit","Chrome","138.0.0.0","Windows","10.0","https://app.prolific.com/","en-US,en;q=0.9","5f0a7dec44c42c19a6c9f6d9","683db9eb0562dbf637994deb","68888e2da28635a481a6c12e","2","1","5f0a7dec44c42c19a6c9f6d9","2","1","2025-07-29T09:12:01.076Z","","","","","","","","","","","MotivationQ","","50","","","","","","","","","","","","","","","","","","","","","","","","","","","","",""
"","","","","ctl-task-cpt","49","584317","0.0-5.0-0.8","246","1","2025-07-29 09:02:45","1f75c3e559b7213887762d5229550c2b","71.138.89.249","Mozilla/5.0 (Windows NT 10.0; Win64; x64) AppleWebKit/537.36 (KHTML, like Gecko) Chrome/138.0.0.0 Safari/537.36","WebKit","Chrome","138.0.0.0","Windows","10.0","https://app.prolific.com/","en-US,en;q=0.9","5f0a7dec44c42c19a6c9f6d9","683db9eb0562dbf637994deb","68888e2da28635a481a6c12e","2","1","5f0a7dec44c42c19a6c9f6d9","2","1","2025-07-29T09:12:29.662Z","","","","","","","","","","","","","","win-only","2","g1:SE,g2:NW","0.2","9","0","559878.8","951.7","5953.3","25570.6","1","4","8","6","1","1","1","1","0","0.007575757575757576","5001.6","3000","1285","[""down"",""right""]","{""num_key_presses"":6,""num_perfect"":1,""num_errors"":0,""num_randdir"":5,""num_randdir_good_moves"":4,""num_whilered"":0,""num_whileblue"":0,""num_blue"":1,""num_good_moves"":5}","[349.2070212364197,342.2539039850235,0.5,350.8476462364197,342.2539039850235,100.8,363.9726462364197,343.8945289850235,204.3,472.2538962364197,352.0976539850235,304.3,477.1757712364197,352.0976539850235,405.9,523.1132712364197,343.8945289850235,508.2,523.1132712364197,343.8945289850235,613.2,523.1132712364197,343.8945289850235,719.6,523.1132712364197,343.8945289850235,822.9,523.1132712364197,343.8945289850235,929.5,523.1132712364197,343.8945289850235,1037.9,523.1132712364197,343.8945289850235,1141.3,523.1132712364197,343.8945289850235,1243.8,523.1132712364197,343.8945289850235,1348.2,523.1132712364197,343.8945289850235,1459.1,523.1132712364197,343.8945289850235,1570,523.1132712364197,343.8945289850235,1671.4,523.1132712364197,343.8945289850235,1772.3,523.1132712364197,343.8945289850235,1872.4,523.1132712364197,343.8945289850235,1985.1,523.1132712364197,343.8945289850235,2087.8,523.1132712364197,343.8945289850235,2190.7,523.1132712364197,343.8945289850235,2292.7,523.1132712364197,343.8945289850235,2394,523.1132712364197,343.8945289850235,2499.1,523.1132712364197,343.8945289850235,2604.4,523.1132712364197,343.8945289850235,2704.6,523.1132712364197,343.8945289850235,2810.6,523.1132712364197,343.8945289850235,2911.1,523.1132712364197,343.8945289850235,3011.1,523.1132712364197,343.8945289850235,3112.9,523.1132712364197,343.8945289850235,3213.9,523.1132712364197,343.8945289850235,3315.6,523.1132712364197,343.8945289850235,3417.6,523.1132712364197,343.8945289850235,3521.2,523.1132712364197,343.8945289850235,3621.3,523.1132712364197,343.8945289850235,3728.6,523.1132712364197,343.8945289850235,3833,523.1132712364197,343.8945289850235,3935.9,523.1132712364197,343.8945289850235,4036.7,523.1132712364197,343.8945289850235,4138.4,523.1132712364197,343.8945289850235,4244.1,523.1132712364197,343.8945289850235,4352.5,523.1132712364197,343.8945289850235,4453.3,523.1132712364197,343.8945289850235,4557.4,523.1132712364197,343.8945289850235,4660.9,523.1132712364197,343.8945289850235,4767.5,523.1132712364197,343.8945289850235,4871.9,523.1132712364197,343.8945289850235,4987.4]","[1480,1480,1000,0,480,""oops"",""right"",""right"",""good_move"",4357.7,2875.9,2464.7,1481.8,411.2,""smooth"",""right"",""right"",""good_move"",11152.6,6794.7,2379.8,8331.2,441.6,""oops"",""down"",""left"",""bad_move"",13650.2,2496.8,2123.8,11153.4,373,""oops"",""down"",""right"",""good_move"",16980.9,3330.2,2978.8,13650.7,351.4,""oops"",""down"",""down"",""good_move"",19479.6,2498,2114.9,16981.8,383,""oops"",""down"",""down"",""good_move""]","",""
"2895","","<div style=""width:500px;"">
  <p>What determined the result of this run?</p>
  </div>","65","html-slider-response","50","587214","0.0-5.0-1.8","246","1","2025-07-29 09:02:45","1f75c3e559b7213887762d5229550c2b","71.138.89.249","Mozilla/5.0 (Windows NT 10.0; Win64; x64) AppleWebKit/537.36 (KHTML, like Gecko) Chrome/138.0.0.0 Safari/537.36","WebKit","Chrome","138.0.0.0","Windows","10.0","https://app.prolific.com/","en-US,en;q=0.9","5f0a7dec44c42c19a6c9f6d9","683db9eb0562dbf637994deb","68888e2da28635a481a6c12e","2","1","5f0a7dec44c42c19a6c9f6d9","2","1","2025-07-29T09:12:32.559Z","","","","","","","","","","","AttribQ","","50","","","","","","","","","","","","","","","","","","","","","","","","","","","","",""
"2732","","<div style=""width:500px;"">
  <p>How much control did you have over the ball?</p>
  </div>","47","html-slider-response","51","589949","0.0-5.0-2.8","246","1","2025-07-29 09:02:45","1f75c3e559b7213887762d5229550c2b","71.138.89.249","Mozilla/5.0 (Windows NT 10.0; Win64; x64) AppleWebKit/537.36 (KHTML, like Gecko) Chrome/138.0.0.0 Safari/537.36","WebKit","Chrome","138.0.0.0","Windows","10.0","https://app.prolific.com/","en-US,en;q=0.9","5f0a7dec44c42c19a6c9f6d9","683db9eb0562dbf637994deb","68888e2da28635a481a6c12e","2","1","5f0a7dec44c42c19a6c9f6d9","2","1","2025-07-29T09:12:35.294Z","","","","","","","","","","","ControlQ","","50","","","","","","","","","","","","","","","","","","","","","","","","","","","","",""
"2896","","<div style=""width:500px;"">
  <p>How would you describe your current emotional state?</p>
  </div>","51","html-slider-response","52","592847","0.0-5.0-3.8","246","1","2025-07-29 09:02:45","1f75c3e559b7213887762d5229550c2b","71.138.89.249","Mozilla/5.0 (Windows NT 10.0; Win64; x64) AppleWebKit/537.36 (KHTML, like Gecko) Chrome/138.0.0.0 Safari/537.36","WebKit","Chrome","138.0.0.0","Windows","10.0","https://app.prolific.com/","en-US,en;q=0.9","5f0a7dec44c42c19a6c9f6d9","683db9eb0562dbf637994deb","68888e2da28635a481a6c12e","2","1","5f0a7dec44c42c19a6c9f6d9","2","1","2025-07-29T09:12:38.193Z","","","","","","","","","","","StressQ","","50","","","","","","","","","","","","","","","","","","","","","","","","","","","","",""
"2198","","<div style=""width:500px;"">
  <p>What best describes how you currently feel?</p>
  </div>","51","html-slider-response","53","595048","0.0-5.0-4.8","246","1","2025-07-29 09:02:45","1f75c3e559b7213887762d5229550c2b","71.138.89.249","Mozilla/5.0 (Windows NT 10.0; Win64; x64) AppleWebKit/537.36 (KHTML, like Gecko) Chrome/138.0.0.0 Safari/537.36","WebKit","Chrome","138.0.0.0","Windows","10.0","https://app.prolific.com/","en-US,en;q=0.9","5f0a7dec44c42c19a6c9f6d9","683db9eb0562dbf637994deb","68888e2da28635a481a6c12e","2","1","5f0a7dec44c42c19a6c9f6d9","2","1","2025-07-29T09:12:40.393Z","","","","","","","","","","","MotivationQ","","50","","","","","","","","","","","","","","","","","","","","","","","","","","","","",""
"","","","","ctl-task-cpt","54","638109","0.0-5.0-0.9","246","1","2025-07-29 09:02:45","1f75c3e559b7213887762d5229550c2b","71.138.89.249","Mozilla/5.0 (Windows NT 10.0; Win64; x64) AppleWebKit/537.36 (KHTML, like Gecko) Chrome/138.0.0.0 Safari/537.36","WebKit","Chrome","138.0.0.0","Windows","10.0","https://app.prolific.com/","en-US,en;q=0.9","5f0a7dec44c42c19a6c9f6d9","683db9eb0562dbf637994deb","68888e2da28635a481a6c12e","2","1","5f0a7dec44c42c19a6c9f6d9","2","1","2025-07-29T09:13:23.454Z","","","","","","","","","","","","","","win-only","2","g1:SE,g2:NW","0.4","10","0","599195.3","757","5758.7","40036.1","1","4","4","6","2","-4","-4","0","1","0","5001.7","3000","-2005","[""left"",""up""]","{""num_key_presses"":12,""num_perfect"":5,""num_errors"":0,""num_randdir"":7,""num_randdir_good_moves"":1,""num_whilered"":0,""num_whileblue"":0,""num_blue"":0,""num_good_moves"":6}","[345.9257712364197,355.3789039850235,0.3,345.9257712364197,355.3789039850235,103.5,496.8632712364197,353.7382789850235,216.6,601.8632712364197,379.9882789850235,319.3,629.7538962364197,378.3476539850235,432.4,629.7538962364197,378.3476539850235,538.3,631.3945212364197,376.7070289850235,641,631.3945212364197,376.7070289850235,741.8,631.3945212364197,376.7070289850235,843,754.4413962364197,325.8476539850235,948.1,777.4101462364197,324.2070289850235,1062.3,777.4101462364197,324.2070289850235,1162.8,777.4101462364197,324.2070289850235,1263.8,777.4101462364197,324.2070289850235,1378.2,777.4101462364197,324.2070289850235,1482.2,777.4101462364197,324.2070289850235,1583.5,777.4101462364197,324.2070289850235,1684,777.4101462364197,324.2070289850235,1785.8,777.4101462364197,324.2070289850235,1887.5,777.4101462364197,324.2070289850235,1988,777.4101462364197,324.2070289850235,2095.6,777.4101462364197,324.2070289850235,2200.9,777.4101462364197,324.2070289850235,2314.4,777.4101462364197,324.2070289850235,2431.8,777.4101462364197,324.2070289850235,2533.3,777.4101462364197,324.2070289850235,2633.9,777.4101462364197,324.2070289850235,2738.7,777.4101462364197,324.2070289850235,2848.1,777.4101462364197,324.2070289850235,2948.1,777.4101462364197,324.2070289850235,3053.6,777.4101462364197,324.2070289850235,3181.7,777.4101462364197,324.2070289850235,3283.5,777.4101462364197,324.2070289850235,3391.7,777.4101462364197,324.2070289850235,3492.2,777.4101462364197,324.2070289850235,3603.3,777.4101462364197,324.2070289850235,3705.3,777.4101462364197,324.2070289850235,3806,777.4101462364197,324.2070289850235,3913.5,777.4101462364197,324.2070289850235,4015.1,777.4101462364197,324.2070289850235,4116.6,777.4101462364197,324.2070289850235,4231.5,777.4101462364197,324.2070289850235,4334.1,777.4101462364197,324.2070289850235,4444.3,777.4101462364197,324.2070289850235,4544.3,777.4101462364197,324.2070289850235,4648.6,777.4101462364197,324.2070289850235,4763.7,777.4101462364197,324.2070289850235,4865.9,777.4101462364197,324.2070289850235,4966.7]","[1392.1,1392.1,1000,0,392.1,""oops"",""up"",""right"",""bad_move"",4249.6,2855.9,2417.6,1393.7,438.3,""oops"",""left"",""up"",""good_move"",6948.3,2697.1,2330.2,4251.2,366.9,""smooth"",""left"",""left"",""good_move"",9674,2724.9,2354.6,6949.1,370.3,""oops"",""left"",""down"",""bad_move"",12824.5,3149.9,2800.3,9674.6,349.7,""oops"",""left"",""down"",""bad_move"",15365.3,2540.3,2138,12825.1,402.3,""smooth"",""up"",""up"",""good_move"",18378.9,3013.1,2640.2,15365.8,372.9,""smooth"",""up"",""up"",""good_move"",21574.9,3195.3,2827.3,18379.6,368,""smooth"",""up"",""up"",""good_move"",24341.8,2765.7,2414.9,21576.1,350.8,""oops"",""up"",""right"",""bad_move"",27604.2,3261.7,2933.8,24342.5,327.9,""oops"",""up"",""right"",""bad_move"",29876.3,2271.7,1847.8,27604.6,423.9,""smooth"",""left"",""left"",""good_move"",32463.8,2587.2,2262.4,29876.6,324.8,""oops"",""left"",""right"",""bad_move""]","",""
"2631","","<div style=""width:500px;"">
  <p>What determined the result of this run?</p>
  </div>","4","html-slider-response","55","640742","0.0-5.0-1.9","246","1","2025-07-29 09:02:45","1f75c3e559b7213887762d5229550c2b","71.138.89.249","Mozilla/5.0 (Windows NT 10.0; Win64; x64) AppleWebKit/537.36 (KHTML, like Gecko) Chrome/138.0.0.0 Safari/537.36","WebKit","Chrome","138.0.0.0","Windows","10.0","https://app.prolific.com/","en-US,en;q=0.9","5f0a7dec44c42c19a6c9f6d9","683db9eb0562dbf637994deb","68888e2da28635a481a6c12e","2","1","5f0a7dec44c42c19a6c9f6d9","2","1","2025-07-29T09:13:26.087Z","","","","","","","","","","","AttribQ","","50","","","","","","","","","","","","","","","","","","","","","","","","","","","","",""
"2042","","<div style=""width:500px;"">
  <p>How much control did you have over the ball?</p>
  </div>","8","html-slider-response","56","642788","0.0-5.0-2.9","246","1","2025-07-29 09:02:45","1f75c3e559b7213887762d5229550c2b","71.138.89.249","Mozilla/5.0 (Windows NT 10.0; Win64; x64) AppleWebKit/537.36 (KHTML, like Gecko) Chrome/138.0.0.0 Safari/537.36","WebKit","Chrome","138.0.0.0","Windows","10.0","https://app.prolific.com/","en-US,en;q=0.9","5f0a7dec44c42c19a6c9f6d9","683db9eb0562dbf637994deb","68888e2da28635a481a6c12e","2","1","5f0a7dec44c42c19a6c9f6d9","2","1","2025-07-29T09:13:28.134Z","","","","","","","","","","","ControlQ","","50","","","","","","","","","","","","","","","","","","","","","","","","","","","","",""
"2026","","<div style=""width:500px;"">
  <p>How would you describe your current emotional state?</p>
  </div>","74","html-slider-response","57","644818","0.0-5.0-3.9","246","1","2025-07-29 09:02:45","1f75c3e559b7213887762d5229550c2b","71.138.89.249","Mozilla/5.0 (Windows NT 10.0; Win64; x64) AppleWebKit/537.36 (KHTML, like Gecko) Chrome/138.0.0.0 Safari/537.36","WebKit","Chrome","138.0.0.0","Windows","10.0","https://app.prolific.com/","en-US,en;q=0.9","5f0a7dec44c42c19a6c9f6d9","683db9eb0562dbf637994deb","68888e2da28635a481a6c12e","2","1","5f0a7dec44c42c19a6c9f6d9","2","1","2025-07-29T09:13:30.163Z","","","","","","","","","","","StressQ","","50","","","","","","","","","","","","","","","","","","","","","","","","","","","","",""
"2640","","<div style=""width:500px;"">
  <p>What best describes how you currently feel?</p>
  </div>","61","html-slider-response","58","647460","0.0-5.0-4.9","246","1","2025-07-29 09:02:45","1f75c3e559b7213887762d5229550c2b","71.138.89.249","Mozilla/5.0 (Windows NT 10.0; Win64; x64) AppleWebKit/537.36 (KHTML, like Gecko) Chrome/138.0.0.0 Safari/537.36","WebKit","Chrome","138.0.0.0","Windows","10.0","https://app.prolific.com/","en-US,en;q=0.9","5f0a7dec44c42c19a6c9f6d9","683db9eb0562dbf637994deb","68888e2da28635a481a6c12e","2","1","5f0a7dec44c42c19a6c9f6d9","2","1","2025-07-29T09:13:32.805Z","","","","","","","","","","","MotivationQ","","50","","","","","","","","","","","","","","","","","","","","","","","","","","","","",""
"","","","","ctl-task-cpt","59","686961","0.0-5.0-0.10","246","1","2025-07-29 09:02:45","1f75c3e559b7213887762d5229550c2b","71.138.89.249","Mozilla/5.0 (Windows NT 10.0; Win64; x64) AppleWebKit/537.36 (KHTML, like Gecko) Chrome/138.0.0.0 Safari/537.36","WebKit","Chrome","138.0.0.0","Windows","10.0","https://app.prolific.com/","en-US,en;q=0.9","5f0a7dec44c42c19a6c9f6d9","683db9eb0562dbf637994deb","68888e2da28635a481a6c12e","2","1","5f0a7dec44c42c19a6c9f6d9","2","1","2025-07-29T09:14:12.306Z","","","","","","","","","","","","","","win-only","3","g1:SW,g2:NE","0.5","11","0","651609.8","3234.9","8239.6","36479","1","4","4","6","2","4","4","4","0","0.030303030303030304","5004.7","3000","1530","[""up"",""right""]","{""num_key_presses"":8,""num_perfect"":4,""num_errors"":0,""num_randdir"":4,""num_randdir_good_moves"":3,""num_whilered"":0,""num_whileblue"":0,""num_blue"":2,""num_good_moves"":7}","[350.8476462364197,342.2539039850235,1,350.8476462364197,342.2539039850235,101.8,350.8476462364197,342.2539039850235,206.4,413.1913962364197,353.7382789850235,311.9,551.0038962364197,357.0195289850235,414.8,575.6132712364197,361.9414039850235,517.4,628.1132712364197,365.2226539850235,621.8,642.8788962364197,366.8632789850235,724.2,739.6757712364197,355.3789039850235,824.2,861.0820212364197,348.8164039850235,934.3,861.0820212364197,348.8164039850235,1044.5,861.0820212364197,348.8164039850235,1152.7,861.0820212364197,348.8164039850235,1253.1,861.0820212364197,348.8164039850235,1361.3,861.0820212364197,348.8164039850235,1467.9,861.0820212364197,348.8164039850235,1571,861.0820212364197,348.8164039850235,1677.9,861.0820212364197,348.8164039850235,1783.2,861.0820212364197,348.8164039850235,1899,861.0820212364197,348.8164039850235,2001.3,861.0820212364197,348.8164039850235,2105.9,861.0820212364197,348.8164039850235,2213.9,861.0820212364197,348.8164039850235,2315.5,861.0820212364197,348.8164039850235,2423.5,861.0820212364197,348.8164039850235,2527.7,861.0820212364197,348.8164039850235,2628.8,861.0820212364197,348.8164039850235,2737.2,861.0820212364197,348.8164039850235,2841,861.0820212364197,348.8164039850235,2941.1,861.0820212364197,348.8164039850235,3044,861.0820212364197,348.8164039850235,3151.2,861.0820212364197,348.8164039850235,3253.2,861.0820212364197,348.8164039850235,3360.8,861.0820212364197,348.8164039850235,3476.3,861.0820212364197,348.8164039850235,3577.6,861.0820212364197,348.8164039850235,3697.7,861.0820212364197,348.8164039850235,3804.5,861.0820212364197,348.8164039850235,3911.5,861.0820212364197,348.8164039850235,4013.4,861.0820212364197,348.8164039850235,4116.2,861.0820212364197,348.8164039850235,4217.9,861.0820212364197,348.8164039850235,4318.9,861.0820212364197,348.8164039850235,4419.7,861.0820212364197,348.8164039850235,4529.7,861.0820212364197,348.8164039850235,4637.4,861.0820212364197,348.8164039850235,4743.2,861.0820212364197,348.8164039850235,4844.9,861.0820212364197,348.8164039850235,4953.3]","[7943.3,7943.3,1980,5486.6,476.7,""oops"",""up"",""up"",""good_move"",10595.8,2651.7,2211.1,7944.1,440.6,""oops"",""right"",""left"",""bad_move"",13319,2722,2318.9,10597,403.1,""oops"",""up"",""up"",""good_move"",16108.7,2789,1545.1,13319.7,1243.9,""oops"",""up"",""right"",""good_move"",18990.4,2881,2507.9,16109.4,373.1,""smooth"",""up"",""up"",""good_move"",22184.7,3193.7,2831.8,18991,361.9,""smooth"",""right"",""right"",""good_move"",25265.3,3080.3,2742.6,22185,337.7,""smooth"",""right"",""right"",""good_move"",28078.2,2812.6,2479.6,25265.6,333,""smooth"",""right"",""right"",""good_move""]","",""
"1852","","<div style=""width:500px;"">
  <p>What determined the result of this run?</p>
  </div>","76","html-slider-response","60","688814","0.0-5.0-1.10","246","1","2025-07-29 09:02:45","1f75c3e559b7213887762d5229550c2b","71.138.89.249","Mozilla/5.0 (Windows NT 10.0; Win64; x64) AppleWebKit/537.36 (KHTML, like Gecko) Chrome/138.0.0.0 Safari/537.36","WebKit","Chrome","138.0.0.0","Windows","10.0","https://app.prolific.com/","en-US,en;q=0.9","5f0a7dec44c42c19a6c9f6d9","683db9eb0562dbf637994deb","68888e2da28635a481a6c12e","2","1","5f0a7dec44c42c19a6c9f6d9","2","1","2025-07-29T09:14:14.159Z","","","","","","","","","","","AttribQ","","50","","","","","","","","","","","","","","","","","","","","","","","","","","","","",""
"3376","","<div style=""width:500px;"">
  <p>How much control did you have over the ball?</p>
  </div>","63","html-slider-response","61","692192","0.0-5.0-2.10","246","1","2025-07-29 09:02:45","1f75c3e559b7213887762d5229550c2b","71.138.89.249","Mozilla/5.0 (Windows NT 10.0; Win64; x64) AppleWebKit/537.36 (KHTML, like Gecko) Chrome/138.0.0.0 Safari/537.36","WebKit","Chrome","138.0.0.0","Windows","10.0","https://app.prolific.com/","en-US,en;q=0.9","5f0a7dec44c42c19a6c9f6d9","683db9eb0562dbf637994deb","68888e2da28635a481a6c12e","2","1","5f0a7dec44c42c19a6c9f6d9","2","1","2025-07-29T09:14:17.538Z","","","","","","","","","","","ControlQ","","50","","","","","","","","","","","","","","","","","","","","","","","","","","","","",""
"3361","","<div style=""width:500px;"">
  <p>How would you describe your current emotional state?</p>
  </div>","44","html-slider-response","62","695555","0.0-5.0-3.10","246","1","2025-07-29 09:02:45","1f75c3e559b7213887762d5229550c2b","71.138.89.249","Mozilla/5.0 (Windows NT 10.0; Win64; x64) AppleWebKit/537.36 (KHTML, like Gecko) Chrome/138.0.0.0 Safari/537.36","WebKit","Chrome","138.0.0.0","Windows","10.0","https://app.prolific.com/","en-US,en;q=0.9","5f0a7dec44c42c19a6c9f6d9","683db9eb0562dbf637994deb","68888e2da28635a481a6c12e","2","1","5f0a7dec44c42c19a6c9f6d9","2","1","2025-07-29T09:14:20.900Z","","","","","","","","","","","StressQ","","50","","","","","","","","","","","","","","","","","","","","","","","","","","","","",""
"2751","","<div style=""width:500px;"">
  <p>What best describes how you currently feel?</p>
  </div>","75","html-slider-response","63","698308","0.0-5.0-4.10","246","1","2025-07-29 09:02:45","1f75c3e559b7213887762d5229550c2b","71.138.89.249","Mozilla/5.0 (Windows NT 10.0; Win64; x64) AppleWebKit/537.36 (KHTML, like Gecko) Chrome/138.0.0.0 Safari/537.36","WebKit","Chrome","138.0.0.0","Windows","10.0","https://app.prolific.com/","en-US,en;q=0.9","5f0a7dec44c42c19a6c9f6d9","683db9eb0562dbf637994deb","68888e2da28635a481a6c12e","2","1","5f0a7dec44c42c19a6c9f6d9","2","1","2025-07-29T09:14:23.653Z","","","","","","","","","","","MotivationQ","","50","","","","","","","","","","","","","","","","","","","","","","","","","","","","",""
"","","","","ctl-task-cpt","64","722050","0.0-5.0-0.11","246","1","2025-07-29 09:02:45","1f75c3e559b7213887762d5229550c2b","71.138.89.249","Mozilla/5.0 (Windows NT 10.0; Win64; x64) AppleWebKit/537.36 (KHTML, like Gecko) Chrome/138.0.0.0 Safari/537.36","WebKit","Chrome","138.0.0.0","Windows","10.0","https://app.prolific.com/","en-US,en;q=0.9","5f0a7dec44c42c19a6c9f6d9","683db9eb0562dbf637994deb","68888e2da28635a481a6c12e","2","1","5f0a7dec44c42c19a6c9f6d9","2","1","2025-07-29T09:14:47.395Z","","","","","","","","","","","","","","win-only","3","g1:SW,g2:NE","0.6","12","0","702455","1002.7","6009","20720.3","1","4","8","6","1","1","1","5","4","0.03787878787878788","5006.3","3000","1790","[""down"",""left""]","{""num_key_presses"":6,""num_perfect"":3,""num_errors"":0,""num_randdir"":3,""num_randdir_good_moves"":2,""num_whilered"":0,""num_whileblue"":0,""num_blue"":0,""num_good_moves"":5}","[359.0507712364197,352.0976539850235,0.8,359.0507712364197,352.0976539850235,110.2,359.0507712364197,352.0976539850235,214.6,359.0507712364197,352.0976539850235,317.2,359.0507712364197,352.0976539850235,428.4,359.0507712364197,352.0976539850235,536,359.0507712364197,352.0976539850235,646.9,359.0507712364197,352.0976539850235,750.7,359.0507712364197,352.0976539850235,856,359.0507712364197,352.0976539850235,957.9,365.6132712364197,363.5820289850235,1061.9,377.0976462364197,371.7851539850235,1171.4,388.5820212364197,371.7851539850235,1276.3,711.7851462364197,434.1289039850235,1382.3,803.6601462364197,440.6914039850235,1492.7,803.6601462364197,440.6914039850235,1593.3,803.6601462364197,440.6914039850235,1700.2,803.6601462364197,440.6914039850235,1806.4,805.3007712364197,440.6914039850235,1910,805.3007712364197,440.6914039850235,2012.2,805.3007712364197,440.6914039850235,2114.5,805.3007712364197,440.6914039850235,2215.3,805.3007712364197,440.6914039850235,2315.3,805.3007712364197,440.6914039850235,2421.4,805.3007712364197,440.6914039850235,2527.3,805.3007712364197,440.6914039850235,2632.4,805.3007712364197,440.6914039850235,2733.5,805.3007712364197,440.6914039850235,2843.7,805.3007712364197,440.6914039850235,2945.5,805.3007712364197,440.6914039850235,3049.8,805.3007712364197,440.6914039850235,3161.6,805.3007712364197,440.6914039850235,3267.7,805.3007712364197,440.6914039850235,3381.5,805.3007712364197,440.6914039850235,3490.8,805.3007712364197,440.6914039850235,3596.1,805.3007712364197,440.6914039850235,3700.1,805.3007712364197,440.6914039850235,3801.3,805.3007712364197,440.6914039850235,3904.1,805.3007712364197,440.6914039850235,4004.8,805.3007712364197,440.6914039850235,4107.3,805.3007712364197,440.6914039850235,4211.6,805.3007712364197,440.6914039850235,4313.7,805.3007712364197,440.6914039850235,4421.8,805.3007712364197,440.6914039850235,4532.2,805.3007712364197,440.6914039850235,4639.8,805.3007712364197,440.6914039850235,4746.3,805.3007712364197,440.6914039850235,4847.3,805.3007712364197,440.6914039850235,4957.9]","[1400.7,1400.7,1000,0,400.7,""oops"",""down"",""up"",""bad_move"",3877,2475.9,1789.2,1401.1,686.7,""oops"",""left"",""down"",""good_move"",6198.4,2320.2,1885.4,3878.2,434.8,""oops"",""left"",""left"",""good_move"",9004.4,2805.6,2465.3,6198.8,340.3,""smooth"",""left"",""left"",""good_move"",12155.8,3150.9,2772.4,9004.9,378.5,""smooth"",""down"",""down"",""good_move"",14450,2293.4,1929.5,12156.6,363.9,""smooth"",""down"",""down"",""good_move""]","",""
"5616","","<div style=""width:500px;"">
  <p>What determined the result of this run?</p>
  </div>","70","html-slider-response","65","727669","0.0-5.0-1.11","246","1","2025-07-29 09:02:45","1f75c3e559b7213887762d5229550c2b","71.138.89.249","Mozilla/5.0 (Windows NT 10.0; Win64; x64) AppleWebKit/537.36 (KHTML, like Gecko) Chrome/138.0.0.0 Safari/537.36","WebKit","Chrome","138.0.0.0","Windows","10.0","https://app.prolific.com/","en-US,en;q=0.9","5f0a7dec44c42c19a6c9f6d9","683db9eb0562dbf637994deb","68888e2da28635a481a6c12e","2","1","5f0a7dec44c42c19a6c9f6d9","2","1","2025-07-29T09:14:53.014Z","","","","","","","","","","","AttribQ","","50","","","","","","","","","","","","","","","","","","","","","","","","","","","","",""
"2505","","<div style=""width:500px;"">
  <p>How much control did you have over the ball?</p>
  </div>","44","html-slider-response","66","730175","0.0-5.0-2.11","246","1","2025-07-29 09:02:45","1f75c3e559b7213887762d5229550c2b","71.138.89.249","Mozilla/5.0 (Windows NT 10.0; Win64; x64) AppleWebKit/537.36 (KHTML, like Gecko) Chrome/138.0.0.0 Safari/537.36","WebKit","Chrome","138.0.0.0","Windows","10.0","https://app.prolific.com/","en-US,en;q=0.9","5f0a7dec44c42c19a6c9f6d9","683db9eb0562dbf637994deb","68888e2da28635a481a6c12e","2","1","5f0a7dec44c42c19a6c9f6d9","2","1","2025-07-29T09:14:55.520Z","","","","","","","","","","","ControlQ","","50","","","","","","","","","","","","","","","","","","","","","","","","","","","","",""
"2521","","<div style=""width:500px;"">
  <p>How would you describe your current emotional state?</p>
  </div>","56","html-slider-response","67","732699","0.0-5.0-3.11","246","1","2025-07-29 09:02:45","1f75c3e559b7213887762d5229550c2b","71.138.89.249","Mozilla/5.0 (Windows NT 10.0; Win64; x64) AppleWebKit/537.36 (KHTML, like Gecko) Chrome/138.0.0.0 Safari/537.36","WebKit","Chrome","138.0.0.0","Windows","10.0","https://app.prolific.com/","en-US,en;q=0.9","5f0a7dec44c42c19a6c9f6d9","683db9eb0562dbf637994deb","68888e2da28635a481a6c12e","2","1","5f0a7dec44c42c19a6c9f6d9","2","1","2025-07-29T09:14:58.044Z","","","","","","","","","","","StressQ","","50","","","","","","","","","","","","","","","","","","","","","","","","","","","","",""
"2146","","<div style=""width:500px;"">
  <p>What best describes how you currently feel?</p>
  </div>","65","html-slider-response","68","734847","0.0-5.0-4.11","246","1","2025-07-29 09:02:45","1f75c3e559b7213887762d5229550c2b","71.138.89.249","Mozilla/5.0 (Windows NT 10.0; Win64; x64) AppleWebKit/537.36 (KHTML, like Gecko) Chrome/138.0.0.0 Safari/537.36","WebKit","Chrome","138.0.0.0","Windows","10.0","https://app.prolific.com/","en-US,en;q=0.9","5f0a7dec44c42c19a6c9f6d9","683db9eb0562dbf637994deb","68888e2da28635a481a6c12e","2","1","5f0a7dec44c42c19a6c9f6d9","2","1","2025-07-29T09:15:00.192Z","","","","","","","","","","","MotivationQ","","50","","","","","","","","","","","","","","","","","","","","","","","","","","","","",""
"","","","","ctl-task-cpt","69","780781","0.0-5.0-0.12","246","1","2025-07-29 09:02:45","1f75c3e559b7213887762d5229550c2b","71.138.89.249","Mozilla/5.0 (Windows NT 10.0; Win64; x64) AppleWebKit/537.36 (KHTML, like Gecko) Chrome/138.0.0.0 Safari/537.36","WebKit","Chrome","138.0.0.0","Windows","10.0","https://app.prolific.com/","en-US,en;q=0.9","5f0a7dec44c42c19a6c9f6d9","683db9eb0562dbf637994deb","68888e2da28635a481a6c12e","2","1","5f0a7dec44c42c19a6c9f6d9","2","1","2025-07-29T09:15:46.126Z","","","","","","","","","","","","","","win-only","0","g1:NW,g2:SE","0.7","13","0","738993.3","901.1","5912.3","42908.7","1","4","4","6","1","1","-1","4","5","0.030303030303030304","5011.2","3000","830","[""left"",""up""]","{""num_key_presses"":12,""num_perfect"":7,""num_errors"":2,""num_randdir"":3,""num_randdir_good_moves"":1,""num_whilered"":0,""num_whileblue"":2,""num_blue"":3,""num_good_moves"":8}","[347.5663962364197,350.4570289850235,0.2,347.5663962364197,353.7382789850235,111.3,388.5820212364197,379.9882789850235,216.4,498.5038962364197,407.8789039850235,322.3,639.5976462364197,394.7539039850235,428,782.3320212364197,381.6289039850235,528.4,798.7382712364197,379.9882789850235,639.8,813.5038962364197,379.9882789850235,749.8,813.5038962364197,379.9882789850235,858.7,813.5038962364197,379.9882789850235,959.7,813.5038962364197,379.9882789850235,1071.3,813.5038962364197,379.9882789850235,1181,813.5038962364197,379.9882789850235,1291.9,813.5038962364197,379.9882789850235,1397.3,813.5038962364197,379.9882789850235,1506.5,813.5038962364197,379.9882789850235,1611.1,813.5038962364197,379.9882789850235,1721.1,813.5038962364197,379.9882789850235,1840.4,813.5038962364197,379.9882789850235,1946.3,813.5038962364197,379.9882789850235,2048.8,813.5038962364197,379.9882789850235,2159.7,813.5038962364197,379.9882789850235,2267.5,813.5038962364197,379.9882789850235,2376.5,813.5038962364197,379.9882789850235,2485.5,813.5038962364197,379.9882789850235,2589.5,813.5038962364197,379.9882789850235,2698.2,813.5038962364197,379.9882789850235,2812.3,813.5038962364197,379.9882789850235,2914.5,813.5038962364197,379.9882789850235,3024.3,813.5038962364197,379.9882789850235,3124.4,813.5038962364197,379.9882789850235,3239.1,813.5038962364197,379.9882789850235,3346,813.5038962364197,379.9882789850235,3446.7,813.5038962364197,379.9882789850235,3552.3,813.5038962364197,379.9882789850235,3662,813.5038962364197,379.9882789850235,3766.5,813.5038962364197,379.9882789850235,3879,813.5038962364197,379.9882789850235,3986.2,813.5038962364197,379.9882789850235,4090.2,813.5038962364197,379.9882789850235,4196.9,813.5038962364197,379.9882789850235,4300.3,813.5038962364197,379.9882789850235,4408.9,813.5038962364197,379.9882789850235,4519.7,813.5038962364197,379.9882789850235,4624.3,813.5038962364197,379.9882789850235,4735.8,813.5038962364197,379.9882789850235,4837.5,813.5038962364197,379.9882789850235,4958.2]","[1452.7,1452.7,1000,0,452.7,""oops"",""up"",""right"",""bad_move"",3837.5,2384.2,1983.2,1453.3,401,""oops"",""left"",""down"",""bad_move"",7460.5,3622.1,3262.6,3838.4,359.5,""smooth"",""left"",""left"",""good_move"",10566.2,3104.2,2709.5,7462,394.7,""while_blue"",""left"",""right"",""bad_move"",13534.8,2967.4,2526.3,10567.4,441.1,""smooth"",""left"",""left"",""good_move"",16706.6,3171.6,2793.3,13535,378.3,""oops"",""left"",""left"",""good_move"",19406.1,2699,2345,16707.1,354,""while_blue"",""left"",""right"",""bad_move"",22060.2,2653.5,2198.5,19406.7,455,""smooth"",""left"",""left"",""good_move"",27147.4,5085.8,1430.7,25160,556.7,""smooth"",""left"",""left"",""good_move"",29845.2,2697.5,2183.9,27147.7,513.6,""smooth"",""up"",""up"",""good_move"",32996.1,3150.7,2640.9,29845.5,509.8,""smooth"",""up"",""up"",""good_move"",36819.5,3821.5,3444.9,32998,376.6,""smooth"",""up"",""up"",""good_move""]","",""
"15498","","<div style=""width:500px;"">
  <p>What determined the result of this run?</p>
  </div>","62","html-slider-response","70","796281","0.0-5.0-1.12","246","1","2025-07-29 09:02:45","1f75c3e559b7213887762d5229550c2b","71.138.89.249","Mozilla/5.0 (Windows NT 10.0; Win64; x64) AppleWebKit/537.36 (KHTML, like Gecko) Chrome/138.0.0.0 Safari/537.36","WebKit","Chrome","138.0.0.0","Windows","10.0","https://app.prolific.com/","en-US,en;q=0.9","5f0a7dec44c42c19a6c9f6d9","683db9eb0562dbf637994deb","68888e2da28635a481a6c12e","2","1","5f0a7dec44c42c19a6c9f6d9","2","1","2025-07-29T09:16:01.627Z","","","","","","","","","","","AttribQ","","50","","","","","","","","","","","","","","","","","","","","","","","","","","","","",""
"3771","","<div style=""width:500px;"">
  <p>How much control did you have over the ball?</p>
  </div>","49","html-slider-response","71","800055","0.0-5.0-2.12","246","1","2025-07-29 09:02:45","1f75c3e559b7213887762d5229550c2b","71.138.89.249","Mozilla/5.0 (Windows NT 10.0; Win64; x64) AppleWebKit/537.36 (KHTML, like Gecko) Chrome/138.0.0.0 Safari/537.36","WebKit","Chrome","138.0.0.0","Windows","10.0","https://app.prolific.com/","en-US,en;q=0.9","5f0a7dec44c42c19a6c9f6d9","683db9eb0562dbf637994deb","68888e2da28635a481a6c12e","2","1","5f0a7dec44c42c19a6c9f6d9","2","1","2025-07-29T09:16:05.400Z","","","","","","","","","","","ControlQ","","50","","","","","","","","","","","","","","","","","","","","","","","","","","","","",""
"2416","","<div style=""width:500px;"">
  <p>How would you describe your current emotional state?</p>
  </div>","49","html-slider-response","72","802473","0.0-5.0-3.12","246","1","2025-07-29 09:02:45","1f75c3e559b7213887762d5229550c2b","71.138.89.249","Mozilla/5.0 (Windows NT 10.0; Win64; x64) AppleWebKit/537.36 (KHTML, like Gecko) Chrome/138.0.0.0 Safari/537.36","WebKit","Chrome","138.0.0.0","Windows","10.0","https://app.prolific.com/","en-US,en;q=0.9","5f0a7dec44c42c19a6c9f6d9","683db9eb0562dbf637994deb","68888e2da28635a481a6c12e","2","1","5f0a7dec44c42c19a6c9f6d9","2","1","2025-07-29T09:16:07.818Z","","","","","","","","","","","StressQ","","50","","","","","","","","","","","","","","","","","","","","","","","","","","","","",""
"2078","","<div style=""width:500px;"">
  <p>What best describes how you currently feel?</p>
  </div>","69","html-slider-response","73","804554","0.0-5.0-4.12","246","1","2025-07-29 09:02:45","1f75c3e559b7213887762d5229550c2b","71.138.89.249","Mozilla/5.0 (Windows NT 10.0; Win64; x64) AppleWebKit/537.36 (KHTML, like Gecko) Chrome/138.0.0.0 Safari/537.36","WebKit","Chrome","138.0.0.0","Windows","10.0","https://app.prolific.com/","en-US,en;q=0.9","5f0a7dec44c42c19a6c9f6d9","683db9eb0562dbf637994deb","68888e2da28635a481a6c12e","2","1","5f0a7dec44c42c19a6c9f6d9","2","1","2025-07-29T09:16:09.899Z","","","","","","","","","","","MotivationQ","","50","","","","","","","","","","","","","","","","","","","","","","","","","","","","",""
"","","","","ctl-task-cpt","74","862162","0.0-5.0-0.13","246","1","2025-07-29 09:02:45","1f75c3e559b7213887762d5229550c2b","71.138.89.249","Mozilla/5.0 (Windows NT 10.0; Win64; x64) AppleWebKit/537.36 (KHTML, like Gecko) Chrome/138.0.0.0 Safari/537.36","WebKit","Chrome","138.0.0.0","Windows","10.0","https://app.prolific.com/","en-US,en;q=0.9","5f0a7dec44c42c19a6c9f6d9","683db9eb0562dbf637994deb","68888e2da28635a481a6c12e","2","1","5f0a7dec44c42c19a6c9f6d9","2","1","2025-07-29T09:17:07.507Z","","","","","","","","","","","","","","win-only","1","g1:NE,g2:SW","0.8","14","0","808702.1","883","5898","54581.9","1","4","8","6","2","8","8","12","4","0.09090909090909091","5014.9","3000","1155","[""down"",""left""]","{""num_key_presses"":10,""num_perfect"":8,""num_errors"":0,""num_randdir"":2,""num_randdir_good_moves"":0,""num_whilered"":0,""num_whileblue"":0,""num_blue"":6,""num_good_moves"":8}","[354.1288962364197,348.8164039850235,0.1,354.1288962364197,348.8164039850235,105.7,355.7695212364197,348.8164039850235,210.4,383.6601462364197,357.0195289850235,317.5,396.7851462364197,352.0976539850235,423.5,418.1132712364197,348.8164039850235,524.3,490.3007712364197,335.6914039850235,624.5,549.3632712364197,330.7695289850235,727.8,560.8476462364197,330.7695289850235,831.9,570.6913962364197,329.1289039850235,934.3,739.6757712364197,320.9257789850235,1047.1,841.3945212364197,314.3632789850235,1154.3,843.0351462364197,314.3632789850235,1272.8,843.0351462364197,314.3632789850235,1382.7,844.6757712364197,311.0820289850235,1487.4,844.6757712364197,311.0820289850235,1588.4,844.6757712364197,311.0820289850235,1692.6,844.6757712364197,311.0820289850235,1796,844.6757712364197,311.0820289850235,1899.1,844.6757712364197,311.0820289850235,2005.4,844.6757712364197,311.0820289850235,2115.2,844.6757712364197,311.0820289850235,2215.5,844.6757712364197,311.0820289850235,2316.6,844.6757712364197,311.0820289850235,2420.9,844.6757712364197,311.0820289850235,2536.9,844.6757712364197,311.0820289850235,2637.9,844.6757712364197,311.0820289850235,2742.9,844.6757712364197,311.0820289850235,2846.7,844.6757712364197,311.0820289850235,2960.1,844.6757712364197,311.0820289850235,3067.2,844.6757712364197,311.0820289850235,3172.5,844.6757712364197,311.0820289850235,3273.1,844.6757712364197,311.0820289850235,3379,844.6757712364197,311.0820289850235,3479.6,844.6757712364197,311.0820289850235,3580.7,844.6757712364197,311.0820289850235,3687.7,844.6757712364197,311.0820289850235,3790,844.6757712364197,311.0820289850235,3895.6,844.6757712364197,311.0820289850235,3995.9,844.6757712364197,311.0820289850235,4099.8,844.6757712364197,311.0820289850235,4210.2,844.6757712364197,311.0820289850235,4313.4,844.6757712364197,311.0820289850235,4419.9,844.6757712364197,311.0820289850235,4521.7,844.6757712364197,311.0820289850235,4631,844.6757712364197,311.0820289850235,4734.4,844.6757712364197,311.0820289850235,4842.3,844.6757712364197,311.0820289850235,4957.1]","[5172.1,5172.1,2803.9,2004.3,363.9,""smooth"",""left"",""left"",""good_move"",7917.9,2745,2311.3,5172.9,433.7,""smooth"",""left"",""left"",""good_move"",20427.9,12509.1,2128.7,17808.7,490.5,""smooth"",""left"",""left"",""good_move"",23485.3,3056.5,2583.8,20428.8,472.7,""smooth"",""down"",""down"",""good_move"",26525.9,3039.9,2555,23486,484.9,""oops"",""down"",""right"",""bad_move"",36018.7,9492,1975.5,33610.7,432.5,""smooth"",""left"",""left"",""good_move"",39077,3057.8,2683.7,36019.2,374.1,""oops"",""down"",""up"",""bad_move"",42406.5,3328.8,1475.5,39077.7,1853.3,""smooth"",""down"",""down"",""good_move"",45468.8,3061.1,2705.1,42407.7,356,""smooth"",""down"",""down"",""good_move"",48462.1,2992.9,2650,45469.3,342.8,""smooth"",""down"",""down"",""good_move""]","",""
"1797","","<div style=""width:500px;"">
  <p>What determined the result of this run?</p>
  </div>","69","html-slider-response","75","863961","0.0-5.0-1.13","246","1","2025-07-29 09:02:45","1f75c3e559b7213887762d5229550c2b","71.138.89.249","Mozilla/5.0 (Windows NT 10.0; Win64; x64) AppleWebKit/537.36 (KHTML, like Gecko) Chrome/138.0.0.0 Safari/537.36","WebKit","Chrome","138.0.0.0","Windows","10.0","https://app.prolific.com/","en-US,en;q=0.9","5f0a7dec44c42c19a6c9f6d9","683db9eb0562dbf637994deb","68888e2da28635a481a6c12e","2","1","5f0a7dec44c42c19a6c9f6d9","2","1","2025-07-29T09:17:09.306Z","","","","","","","","","","","AttribQ","","50","","","","","","","","","","","","","","","","","","","","","","","","","","","","",""
"3052","","<div style=""width:500px;"">
  <p>How much control did you have over the ball?</p>
  </div>","45","html-slider-response","76","867017","0.0-5.0-2.13","246","1","2025-07-29 09:02:45","1f75c3e559b7213887762d5229550c2b","71.138.89.249","Mozilla/5.0 (Windows NT 10.0; Win64; x64) AppleWebKit/537.36 (KHTML, like Gecko) Chrome/138.0.0.0 Safari/537.36","WebKit","Chrome","138.0.0.0","Windows","10.0","https://app.prolific.com/","en-US,en;q=0.9","5f0a7dec44c42c19a6c9f6d9","683db9eb0562dbf637994deb","68888e2da28635a481a6c12e","2","1","5f0a7dec44c42c19a6c9f6d9","2","1","2025-07-29T09:17:12.362Z","","","","","","","","","","","ControlQ","","50","","","","","","","","","","","","","","","","","","","","","","","","","","","","",""
"2498","","<div style=""width:500px;"">
  <p>How would you describe your current emotional state?</p>
