"rt","response_timestamp","stimulus","response","trial_type","trial_index","time_elapsed","internal_node_id","run_id","condition","recorded_at","source_code_version","ip","user_agent","device","browser","browser_version","platform","platform_version","referer","accept_language","PROLIFIC_PID","STUDY_ID","SESSION_ID","WEEK","BATCH","prolific_id","week","batch","realtime","success","responses","item_order","radio_event_ids","radio_event_times","key_event_times","mouse_event_times","straightlining","zigzagging","honeypot","eventType","view_history","slider_start","which_type","canvas_config","goals_layout","control_level","trial_number","tutorial_trial_number","trial_start_time","phase1_start_time","phase2_start_time","phase3_start_time","goal_1_value","goal_1_distance","goal_2_value","goal_2_distance","goal_selected","outcome","outcome_total","participant_final_score","participant_initial_score","participant_final_score_prop","goal_choice_rt","allocated_time","allocated_time_remaining","goal_direction","counts","mouse_movements","key_presses","question_order","question_id"
"59385","1753252464095","<p style='font-size:40px;line-height:1.25'><strong>Welcome to the experiment!</strong></p><p style='font-size:1.1em;line-height:1.25'>Thank you for participanting in our experiment again! You will be asked to play the Dysfunctional Ball Game again. We will briefly recap the rules before we start.</p><p style='font-size:1.1em;line-height:1.25'>Press <strong>Next</strong> to continue.</p>","0","custom-html-button-response","0","59391","0.0-0.0","150","1","2025-07-23 06:33:21","1f75c3e559b7213887762d5229550c2b","41.145.196.124","Mozilla/5.0 (Windows NT 10.0; Win64; x64) AppleWebKit/537.36 (KHTML, like Gecko) Chrome/138.0.0.0 Safari/537.36","WebKit","Chrome","138.0.0.0","Windows","10.0","https://app.prolific.com/","en-US,en;q=0.9","67c7672373207a4fb29efe7f","683db9eb0562dbf637994deb","688081491347ce3568dfec62","2","1","67c7672373207a4fb29efe7f","2","1","2025-07-23T06:34:24.100Z","","","","","","","","","","","","","","","","","","","","","","","","","","","","","","","","","","","","","","","","","",""
"28924","","","","fullscreen","1","89324","0.0-1.0","150","1","2025-07-23 06:33:21","1f75c3e559b7213887762d5229550c2b","41.145.196.124","Mozilla/5.0 (Windows NT 10.0; Win64; x64) AppleWebKit/537.36 (KHTML, like Gecko) Chrome/138.0.0.0 Safari/537.36","WebKit","Chrome","138.0.0.0","Windows","10.0","https://app.prolific.com/","en-US,en;q=0.9","67c7672373207a4fb29efe7f","683db9eb0562dbf637994deb","688081491347ce3568dfec62","2","1","67c7672373207a4fb29efe7f","2","1","","true","","","","","","","","","","","","","","","","","","","","","","","","","","","","","","","","","","","","","","","","",""
"54744","1753252548780","<p style='font-size:1.1em;line-height:1.25'>In the following, we will ask you a few questions relating to your feelings in the last 24 hours.<br></p><p style='font-size:1.1em;line-height:1.25'>Press the <strong>Next</strong> button to continue.</p>","0","custom-html-button-response","2","144072","0.0-2.0-0.0","150","1","2025-07-23 06:33:21","1f75c3e559b7213887762d5229550c2b","41.145.196.124","Mozilla/5.0 (Windows NT 10.0; Win64; x64) AppleWebKit/537.36 (KHTML, like Gecko) Chrome/138.0.0.0 Safari/537.36","WebKit","Chrome","138.0.0.0","Windows","10.0","https://app.prolific.com/","en-US,en;q=0.9","67c7672373207a4fb29efe7f","683db9eb0562dbf637994deb","688081491347ce3568dfec62","2","1","67c7672373207a4fb29efe7f","2","1","2025-07-23T06:35:48.781Z","","","","","","","","","","","","","","","","","","","","","","","","","","","","","","","","","","","","","","","","","",""
"159640.19999998808","","","","survey-template","3","303727","0.0-2.0-1.0","150","1","2025-07-23 06:33:21","1f75c3e559b7213887762d5229550c2b","41.145.196.124","Mozilla/5.0 (Windows NT 10.0; Win64; x64) AppleWebKit/537.36 (KHTML, like Gecko) Chrome/138.0.0.0 Safari/537.36","WebKit","Chrome","138.0.0.0","Windows","10.0","https://app.prolific.com/","en-US,en;q=0.9","67c7672373207a4fb29efe7f","683db9eb0562dbf637994deb","688081491347ce3568dfec62","2","1","67c7672373207a4fb29efe7f","2","1","2025-07-23T06:38:28.435Z","","{""Q01"":""0"",""Q02"":""0"",""Q03"":""0"",""Q04"":""0"",""Q05"":""0"",""Q06"":""0"",""Q07"":""0"",""Q08"":""0"",""Q09"":""1"",""Q10"":""0"",""Q11"":""1"",""Q12"":""0"",""Q13"":""5"",""Q14"":""0"",""Q15"":""0"",""Q16"":""0"",""Q17"":""0"",""Q18"":""0"",""Q19"":""0"",""Q20"":""0"",""Q21"":""1"",""Q22"":""0""}","[0,1,2,3,4,5,6,7,8,9,10,11,12,13,14,15,16,17,18,19,20,21]","[""Q01"",""Q02"",""Q03"",""Q04"",""Q05"",""Q07"",""Q06"",""Q08"",""Q09"",""Q10"",""Q11"",""Q12"",""Q13"",""Q11"",""Q09"",""Q14"",""Q15"",""Q16"",""Q17"",""Q18"",""Q19"",""Q20"",""Q21"",""Q22"",""Q21""]","[14506.299999982119,15566.59999999404,16642.399999976158,19565,20477.399999976158,22294.79999998212,24112.59999999404,30521.19999998808,60772.59999999404,65415.39999997616,103864.79999998212,105999.69999998808,109077.89999997616,118987.79999998212,122168.39999997616,128026.79999998212,132194.09999999404,133417.59999999404,134478.09999999404,135494,142146.39999997616,143717.39999997616,144807.39999997616,146513,150695.39999997616]","[]","[3.0999999940395355,14506.299999982119,15566.59999999404,16642.399999976158,19565,20477.399999976158,21923.399999976158,22294.79999998212,23133.09999999404,24112.59999999404,30521.19999998808,60772.59999999404,64429,65415.39999997616,101921.19999998808,103864.79999998212,105999.69999998808,109077.89999997616,118987.79999998212,122168.39999997616,128026.79999998212,132194.09999999404,133417.59999999404,134478.09999999404,135494,142146.39999997616,143717.39999997616,144807.39999997616,146513,150695.39999997616,159624.5]","0.8181818181818182","0.38095238095238093","0","drsp","","","","","","","","","","","","","","","","","","","","","","","","","","","","","","",""
"9693.5","","","","survey-template","4","313426","0.0-2.0-2.0","150","1","2025-07-23 06:33:21","1f75c3e559b7213887762d5229550c2b","41.145.196.124","Mozilla/5.0 (Windows NT 10.0; Win64; x64) AppleWebKit/537.36 (KHTML, like Gecko) Chrome/138.0.0.0 Safari/537.36","WebKit","Chrome","138.0.0.0","Windows","10.0","https://app.prolific.com/","en-US,en;q=0.9","67c7672373207a4fb29efe7f","683db9eb0562dbf637994deb","688081491347ce3568dfec62","2","1","67c7672373207a4fb29efe7f","2","1","2025-07-23T06:38:38.134Z","","{""Q01"":""0"",""Q02"":""0"",""Q03"":""0""}","[0,1,2]","[""Q01"",""Q02"",""Q03""]","[3715.800000011921,5771.300000011921,7675.699999988079]","[]","[3715.800000011921,5771.300000011921,7675.699999988079,9692.300000011921]","0.6666666666666666","1","0","stress","","","","","","","","","","","","","","","","","","","","","","","","","","","","","","",""
"29684","","","","instructions","5","343112","0.0-3.0-0.0","150","1","2025-07-23 06:33:21","1f75c3e559b7213887762d5229550c2b","41.145.196.124","Mozilla/5.0 (Windows NT 10.0; Win64; x64) AppleWebKit/537.36 (KHTML, like Gecko) Chrome/138.0.0.0 Safari/537.36","WebKit","Chrome","138.0.0.0","Windows","10.0","https://app.prolific.com/","en-US,en;q=0.9","67c7672373207a4fb29efe7f","683db9eb0562dbf637994deb","688081491347ce3568dfec62","2","1","67c7672373207a4fb29efe7f","2","1","","","","","","","","","","","","","[{""page_index"":0,""viewing_time"":29684}]","","","","","","","","","","","","","","","","","","","","","","","","","","","","","",""
"25099","","<p>Before you start with this game please answer the following three questions yourself. </p>
  <p>Through this game, we measure several aspects of your cognitive performance, such as reaction times, multi-tasking capabilities </p>
  <p>and the ability to assess the situation you are in.</p>
  <p></p>
  <p><b>How good do you usually are in such tasks?</b></p>","100","html-slider-response","6","368218","0.0-4.0-0.0","150","1","2025-07-23 06:33:21","1f75c3e559b7213887762d5229550c2b","41.145.196.124","Mozilla/5.0 (Windows NT 10.0; Win64; x64) AppleWebKit/537.36 (KHTML, like Gecko) Chrome/138.0.0.0 Safari/537.36","WebKit","Chrome","138.0.0.0","Windows","10.0","https://app.prolific.com/","en-US,en;q=0.9","67c7672373207a4fb29efe7f","683db9eb0562dbf637994deb","688081491347ce3568dfec62","2","1","67c7672373207a4fb29efe7f","2","1","2025-07-23T06:39:32.926Z","","","","","","","","","","","PreSkillQ","","50","","","","","","","","","","","","","","","","","","","","","","","","","","","","",""
"8325","","<div style=""width:500px;"">
  <p>How well do you think you will perform in this task compared to other participants?</p>
  </div>","96","html-slider-response","7","376545","0.0-4.0-1.0","150","1","2025-07-23 06:33:21","1f75c3e559b7213887762d5229550c2b","41.145.196.124","Mozilla/5.0 (Windows NT 10.0; Win64; x64) AppleWebKit/537.36 (KHTML, like Gecko) Chrome/138.0.0.0 Safari/537.36","WebKit","Chrome","138.0.0.0","Windows","10.0","https://app.prolific.com/","en-US,en;q=0.9","67c7672373207a4fb29efe7f","683db9eb0562dbf637994deb","688081491347ce3568dfec62","2","1","67c7672373207a4fb29efe7f","2","1","2025-07-23T06:39:41.253Z","","","","","","","","","","","PrePerfQ","","50","","","","","","","","","","","","","","","","","","","","","","","","","","","","",""
"3433","","<div style=""width:500px;"">
  <p>What best describes how you currently feel?</p>
  </div>","100","html-slider-response","8","379984","0.0-4.0-2.0","150","1","2025-07-23 06:33:21","1f75c3e559b7213887762d5229550c2b","41.145.196.124","Mozilla/5.0 (Windows NT 10.0; Win64; x64) AppleWebKit/537.36 (KHTML, like Gecko) Chrome/138.0.0.0 Safari/537.36","WebKit","Chrome","138.0.0.0","Windows","10.0","https://app.prolific.com/","en-US,en;q=0.9","67c7672373207a4fb29efe7f","683db9eb0562dbf637994deb","688081491347ce3568dfec62","2","1","67c7672373207a4fb29efe7f","2","1","2025-07-23T06:39:44.693Z","","","","","","","","","","","PreMotivationQ","","50","","","","","","","","","","","","","","","","","","","","","","","","","","","","",""
"","","","","ctl-task-cpt","9","421628","0.0-5.0-0.0","150","1","2025-07-23 06:33:21","1f75c3e559b7213887762d5229550c2b","41.145.196.124","Mozilla/5.0 (Windows NT 10.0; Win64; x64) AppleWebKit/537.36 (KHTML, like Gecko) Chrome/138.0.0.0 Safari/537.36","WebKit","Chrome","138.0.0.0","Windows","10.0","https://app.prolific.com/","en-US,en;q=0.9","67c7672373207a4fb29efe7f","683db9eb0562dbf637994deb","688081491347ce3568dfec62","2","1","67c7672373207a4fb29efe7f","2","1","2025-07-23T06:40:26.336Z","","","","","","","","","","","","","","win-only","3","g1:SW,g2:NE","1","1","0","386610","2924","7927.2","38581.5","1","4","8","6","2","-8","-8","0","0","0","2129","3000","-2965","[""up"",""right""]","{""num_key_presses"":5,""num_perfect"":5,""num_errors"":0,""num_randdir"":0,""num_randdir_good_moves"":0,""num_whilered"":0,""num_whileblue"":0,""num_blue"":4,""num_good_moves"":5}","[298.22232142857143,298.12857142857143,0.6,298.22232142857143,298.12857142857143,101.9,298.22232142857143,298.12857142857143,207.1,298.22232142857143,298.12857142857143,307.5,298.22232142857143,298.12857142857143,408.3,298.22232142857143,298.12857142857143,512.1,298.22232142857143,298.12857142857143,618,298.22232142857143,298.12857142857143,718,298.22232142857143,298.12857142857143,818.1,298.22232142857143,298.12857142857143,921.9,298.22232142857143,298.12857142857143,1022.3,298.22232142857143,298.12857142857143,1123.6,298.22232142857143,298.12857142857143,1227.7,298.22232142857143,298.12857142857143,1332.3,418.22232142857143,158.12857142857143,1432.4,483.22232142857143,95.12857142857143,1532.7,494.22232142857143,92.12857142857143,1633.6,511.22232142857143,89.12857142857143,1742.5,514.2223214285714,89.12857142857143,1847.3,514.2223214285714,89.12857142857143,1948.1,514.2223214285714,89.12857142857143,2048.5,514.2223214285714,89.12857142857143,2152,514.2223214285714,89.12857142857143,2260.2,514.2223214285714,89.12857142857143,2361.8,514.2223214285714,89.12857142857143,2462.1,514.2223214285714,89.12857142857143,2562.2,514.2223214285714,89.12857142857143,2662.5,497.22232142857143,111.12857142857143,2768.2,453.22232142857143,162.12857142857143,2868.6,443.22232142857143,175.12857142857143,2974.1,443.22232142857143,176.12857142857143,3077.5,443.22232142857143,176.12857142857143,3177.7,443.22232142857143,176.12857142857143,3281.7,443.22232142857143,176.12857142857143,3382.1,443.22232142857143,176.12857142857143,3482.1,443.22232142857143,176.12857142857143,3582.1,443.22232142857143,176.12857142857143,3682.2,443.22232142857143,176.12857142857143,3782.2,443.22232142857143,176.12857142857143,3882.8,443.22232142857143,176.12857142857143,3987.7,441.22232142857143,178.12857142857143,4093.8,428.22232142857143,194.12857142857143,4197.1,423.22232142857143,199.12857142857143,4297.2,405.22232142857143,222.12857142857143,4397.6,339.22232142857143,304.12857142857143,4497.8,335.22232142857143,309.12857142857143,4602.2,335.22232142857143,309.12857142857143,4707.7,335.22232142857143,309.12857142857143,4812.6,335.22232142857143,309.12857142857143,4917.2]","[1825.8,1825.8,1000,0,825.8,""smooth"",""right"",""right"",""good_move"",5174.9,3347.8,2849,1827.1,498.8,""smooth"",""right"",""right"",""good_move"",7927.3,2751.5,2011.4,5175.9,740,""smooth"",""up"",""up"",""good_move"",21083.1,13154,2313.4,18194.8,574.9,""smooth"",""up"",""up"",""good_move"",27806.1,6722.5,2917.6,24431.8,456.8,""smooth"",""right"",""right"",""good_move""]","",""
"5239","","<div style=""width:500px;"">
  <p>What determined the result of this run?</p>
  </div>","33","html-slider-response","10","426869","0.0-5.0-1.0","150","1","2025-07-23 06:33:21","1f75c3e559b7213887762d5229550c2b","41.145.196.124","Mozilla/5.0 (Windows NT 10.0; Win64; x64) AppleWebKit/537.36 (KHTML, like Gecko) Chrome/138.0.0.0 Safari/537.36","WebKit","Chrome","138.0.0.0","Windows","10.0","https://app.prolific.com/","en-US,en;q=0.9","67c7672373207a4fb29efe7f","683db9eb0562dbf637994deb","688081491347ce3568dfec62","2","1","67c7672373207a4fb29efe7f","2","1","2025-07-23T06:40:31.578Z","","","","","","","","","","","AttribQ","","50","","","","","","","","","","","","","","","","","","","","","","","","","","","","",""
"9342","","<div style=""width:500px;"">
  <p>How much control did you have over the ball?</p>
  </div>","74","html-slider-response","11","436214","0.0-5.0-2.0","150","1","2025-07-23 06:33:21","1f75c3e559b7213887762d5229550c2b","41.145.196.124","Mozilla/5.0 (Windows NT 10.0; Win64; x64) AppleWebKit/537.36 (KHTML, like Gecko) Chrome/138.0.0.0 Safari/537.36","WebKit","Chrome","138.0.0.0","Windows","10.0","https://app.prolific.com/","en-US,en;q=0.9","67c7672373207a4fb29efe7f","683db9eb0562dbf637994deb","688081491347ce3568dfec62","2","1","67c7672373207a4fb29efe7f","2","1","2025-07-23T06:40:40.922Z","","","","","","","","","","","ControlQ","","50","","","","","","","","","","","","","","","","","","","","","","","","","","","","",""
"5641","","<div style=""width:500px;"">
  <p>How would you describe your current emotional state?</p>
  </div>","14","html-slider-response","12","441857","0.0-5.0-3.0","150","1","2025-07-23 06:33:21","1f75c3e559b7213887762d5229550c2b","41.145.196.124","Mozilla/5.0 (Windows NT 10.0; Win64; x64) AppleWebKit/537.36 (KHTML, like Gecko) Chrome/138.0.0.0 Safari/537.36","WebKit","Chrome","138.0.0.0","Windows","10.0","https://app.prolific.com/","en-US,en;q=0.9","67c7672373207a4fb29efe7f","683db9eb0562dbf637994deb","688081491347ce3568dfec62","2","1","67c7672373207a4fb29efe7f","2","1","2025-07-23T06:40:46.566Z","","","","","","","","","","","StressQ","","50","","","","","","","","","","","","","","","","","","","","","","","","","","","","",""
"4256","","<div style=""width:500px;"">
  <p>What best describes how you currently feel?</p>
  </div>","98","html-slider-response","13","446115","0.0-5.0-4.0","150","1","2025-07-23 06:33:21","1f75c3e559b7213887762d5229550c2b","41.145.196.124","Mozilla/5.0 (Windows NT 10.0; Win64; x64) AppleWebKit/537.36 (KHTML, like Gecko) Chrome/138.0.0.0 Safari/537.36","WebKit","Chrome","138.0.0.0","Windows","10.0","https://app.prolific.com/","en-US,en;q=0.9","67c7672373207a4fb29efe7f","683db9eb0562dbf637994deb","688081491347ce3568dfec62","2","1","67c7672373207a4fb29efe7f","2","1","2025-07-23T06:40:50.824Z","","","","","","","","","","","MotivationQ","","50","","","","","","","","","","","","","","","","","","","","","","","","","","","","",""
"","","","","ctl-task-cpt","14","466430","0.0-5.0-0.1","150","1","2025-07-23 06:33:21","1f75c3e559b7213887762d5229550c2b","41.145.196.124","Mozilla/5.0 (Windows NT 10.0; Win64; x64) AppleWebKit/537.36 (KHTML, like Gecko) Chrome/138.0.0.0 Safari/537.36","WebKit","Chrome","138.0.0.0","Windows","10.0","https://app.prolific.com/","en-US,en;q=0.9","67c7672373207a4fb29efe7f","683db9eb0562dbf637994deb","688081491347ce3568dfec62","2","1","67c7672373207a4fb29efe7f","2","1","2025-07-23T06:41:11.139Z","","","","","","","","","","","","","","win-only","3","g1:SW,g2:NE","0.9","2","0","452687.2","1598.6","6603.5","17296.4","1","4","4","6","1","1","1","1","0","0.007575757575757576","1645.5","3000","715","[""down"",""left""]","{""num_key_presses"":4,""num_perfect"":3,""num_errors"":0,""num_randdir"":1,""num_randdir_good_moves"":1,""num_whilered"":0,""num_whileblue"":0,""num_blue"":0,""num_good_moves"":4}","[293.22232142857143,297.12857142857143,0.5,293.22232142857143,297.12857142857143,103,293.22232142857143,297.12857142857143,207.5,293.22232142857143,297.12857142857143,307.6,293.22232142857143,297.12857142857143,412,293.22232142857143,297.12857142857143,518.7,293.22232142857143,297.12857142857143,622.2,293.22232142857143,297.12857142857143,722.7,293.22232142857143,297.12857142857143,826.7,263.22232142857143,316.12857142857143,926.8,94.22232142857143,468.12857142857143,1027.4,74.22232142857143,489.12857142857143,1134.7,71.22232142857143,493.12857142857143,1238.8,62.222321428571426,504.12857142857143,1340,62.222321428571426,504.12857142857143,1442.3,62.222321428571426,504.12857142857143,1542.5,62.222321428571426,504.12857142857143,1644,62.222321428571426,504.12857142857143,1747.5,62.222321428571426,504.12857142857143,1847.5,62.222321428571426,504.12857142857143,1953.9,62.222321428571426,504.12857142857143,2054.5,62.222321428571426,504.12857142857143,2157.4,62.222321428571426,504.12857142857143,2262.3,62.222321428571426,504.12857142857143,2362.4,62.222321428571426,504.12857142857143,2467.4,62.222321428571426,504.12857142857143,2568.2,62.222321428571426,504.12857142857143,2669,62.222321428571426,504.12857142857143,2772.6,62.222321428571426,504.12857142857143,2877.3,62.222321428571426,504.12857142857143,2984,62.222321428571426,504.12857142857143,3087.4,62.222321428571426,504.12857142857143,3193.6,62.222321428571426,504.12857142857143,3297.7,62.222321428571426,504.12857142857143,3406,62.222321428571426,504.12857142857143,3507,62.222321428571426,504.12857142857143,3607.6,62.222321428571426,504.12857142857143,3708.4,62.222321428571426,504.12857142857143,3811.8,62.222321428571426,504.12857142857143,3911.8,62.222321428571426,504.12857142857143,4012.7,62.222321428571426,504.12857142857143,4118.2,62.222321428571426,504.12857142857143,4222.4,62.222321428571426,504.12857142857143,4327.2,62.222321428571426,504.12857142857143,4433.3,62.222321428571426,504.12857142857143,4534,62.222321428571426,504.12857142857143,4634.1,62.222321428571426,504.12857142857143,4738,62.222321428571426,504.12857142857143,4840,62.222321428571426,504.12857142857143,4943.6]","[1804.4,1804.4,1000,0.1,804.3,""smooth"",""down"",""down"",""good_move"",4482.2,2675.8,2102.6,1806.4,573.2,""smooth"",""left"",""left"",""good_move"",7851.3,3367.7,2787,4483.6,580.8,""oops"",""down"",""left"",""good_move"",10591.8,2738.3,2345.4,7853.5,392.9,""smooth"",""down"",""down"",""good_move""]","",""
"4637","","<div style=""width:500px;"">
  <p>What determined the result of this run?</p>
  </div>","88","html-slider-response","15","471070","0.0-5.0-1.1","150","1","2025-07-23 06:33:21","1f75c3e559b7213887762d5229550c2b","41.145.196.124","Mozilla/5.0 (Windows NT 10.0; Win64; x64) AppleWebKit/537.36 (KHTML, like Gecko) Chrome/138.0.0.0 Safari/537.36","WebKit","Chrome","138.0.0.0","Windows","10.0","https://app.prolific.com/","en-US,en;q=0.9","67c7672373207a4fb29efe7f","683db9eb0562dbf637994deb","688081491347ce3568dfec62","2","1","67c7672373207a4fb29efe7f","2","1","2025-07-23T06:41:15.778Z","","","","","","","","","","","AttribQ","","50","","","","","","","","","","","","","","","","","","","","","","","","","","","","",""
"3253","","<div style=""width:500px;"">
  <p>How much control did you have over the ball?</p>
  </div>","88","html-slider-response","16","474325","0.0-5.0-2.1","150","1","2025-07-23 06:33:21","1f75c3e559b7213887762d5229550c2b","41.145.196.124","Mozilla/5.0 (Windows NT 10.0; Win64; x64) AppleWebKit/537.36 (KHTML, like Gecko) Chrome/138.0.0.0 Safari/537.36","WebKit","Chrome","138.0.0.0","Windows","10.0","https://app.prolific.com/","en-US,en;q=0.9","67c7672373207a4fb29efe7f","683db9eb0562dbf637994deb","688081491347ce3568dfec62","2","1","67c7672373207a4fb29efe7f","2","1","2025-07-23T06:41:19.034Z","","","","","","","","","","","ControlQ","","50","","","","","","","","","","","","","","","","","","","","","","","","","","","","",""
"3636","","<div style=""width:500px;"">
  <p>How would you describe your current emotional state?</p>
  </div>","9","html-slider-response","17","477964","0.0-5.0-3.1","150","1","2025-07-23 06:33:21","1f75c3e559b7213887762d5229550c2b","41.145.196.124","Mozilla/5.0 (Windows NT 10.0; Win64; x64) AppleWebKit/537.36 (KHTML, like Gecko) Chrome/138.0.0.0 Safari/537.36","WebKit","Chrome","138.0.0.0","Windows","10.0","https://app.prolific.com/","en-US,en;q=0.9","67c7672373207a4fb29efe7f","683db9eb0562dbf637994deb","688081491347ce3568dfec62","2","1","67c7672373207a4fb29efe7f","2","1","2025-07-23T06:41:22.673Z","","","","","","","","","","","StressQ","","50","","","","","","","","","","","","","","","","","","","","","","","","","","","","",""
"4239","","<div style=""width:500px;"">
  <p>What best describes how you currently feel?</p>
  </div>","96","html-slider-response","18","482205","0.0-5.0-4.1","150","1","2025-07-23 06:33:21","1f75c3e559b7213887762d5229550c2b","41.145.196.124","Mozilla/5.0 (Windows NT 10.0; Win64; x64) AppleWebKit/537.36 (KHTML, like Gecko) Chrome/138.0.0.0 Safari/537.36","WebKit","Chrome","138.0.0.0","Windows","10.0","https://app.prolific.com/","en-US,en;q=0.9","67c7672373207a4fb29efe7f","683db9eb0562dbf637994deb","688081491347ce3568dfec62","2","1","67c7672373207a4fb29efe7f","2","1","2025-07-23T06:41:26.914Z","","","","","","","","","","","MotivationQ","","50","","","","","","","","","","","","","","","","","","","","","","","","","","","","",""
"","","","","ctl-task-cpt","19","515147","0.0-5.0-0.2","150","1","2025-07-23 06:33:21","1f75c3e559b7213887762d5229550c2b","41.145.196.124","Mozilla/5.0 (Windows NT 10.0; Win64; x64) AppleWebKit/537.36 (KHTML, like Gecko) Chrome/138.0.0.0 Safari/537.36","WebKit","Chrome","138.0.0.0","Windows","10.0","https://app.prolific.com/","en-US,en;q=0.9","67c7672373207a4fb29efe7f","683db9eb0562dbf637994deb","688081491347ce3568dfec62","2","1","67c7672373207a4fb29efe7f","2","1","2025-07-23T06:41:59.856Z","","","","","","","","","","","","","","win-only","0","g1:NW,g2:SE","0.8","3","0","488778.7","1796.2","6799.6","29904.1","1","4","4","6","2","-4","-4","0","1","0","1782.5","3000","-2655","[""down"",""right""]","{""num_key_presses"":6,""num_perfect"":5,""num_errors"":0,""num_randdir"":1,""num_randdir_good_moves"":0,""num_whilered"":0,""num_whileblue"":0,""num_blue"":1,""num_good_moves"":5}","[303.22232142857143,298.12857142857143,0.7,303.22232142857143,298.12857142857143,101.7,303.22232142857143,298.12857142857143,203.5,303.22232142857143,298.12857142857143,305.3,303.22232142857143,298.12857142857143,411.3,303.22232142857143,298.12857142857143,513.9,303.22232142857143,298.12857142857143,617.3,303.22232142857143,298.12857142857143,719.6,307.22232142857143,306.12857142857143,824.6,429.22232142857143,525.1285714285714,933.5,452.22232142857143,600.1285714285714,1034.3,457.22232142857143,603.1285714285714,1135.2,484.22232142857143,582.1285714285714,1240.2,511.22232142857143,566.1285714285714,1346.1,525.2223214285714,559.1285714285714,1447.6,526.2223214285714,559.1285714285714,1550.8,526.2223214285714,559.1285714285714,1651.7,526.2223214285714,559.1285714285714,1753.1,526.2223214285714,559.1285714285714,1854.9,526.2223214285714,559.1285714285714,1961.4,526.2223214285714,559.1285714285714,2065,526.2223214285714,559.1285714285714,2168.9,526.2223214285714,559.1285714285714,2269.7,526.2223214285714,559.1285714285714,2370.4,526.2223214285714,559.1285714285714,2474.8,526.2223214285714,559.1285714285714,2582.2,526.2223214285714,559.1285714285714,2684.4,526.2223214285714,559.1285714285714,2784.7,526.2223214285714,559.1285714285714,2884.9,526.2223214285714,559.1285714285714,2989,526.2223214285714,559.1285714285714,3090.1,526.2223214285714,559.1285714285714,3196.8,526.2223214285714,559.1285714285714,3298,526.2223214285714,559.1285714285714,3399.5,526.2223214285714,559.1285714285714,3500,526.2223214285714,559.1285714285714,3605.4,526.2223214285714,559.1285714285714,3705.7,526.2223214285714,559.1285714285714,3815.1,526.2223214285714,559.1285714285714,3920.1,526.2223214285714,559.1285714285714,4026,526.2223214285714,559.1285714285714,4130.8,526.2223214285714,559.1285714285714,4234.4,526.2223214285714,559.1285714285714,4341.1,526.2223214285714,559.1285714285714,4448.5,526.2223214285714,559.1285714285714,4549.8,526.2223214285714,559.1285714285714,4655,526.2223214285714,559.1285714285714,4756.3,526.2223214285714,559.1285714285714,4859.7,526.2223214285714,559.1285714285714,4962.7]","[1919.9,1919.9,1000,0,919.9,""smooth"",""down"",""down"",""good_move"",5590.2,3669.2,3043.5,1921,625.7,""smooth"",""right"",""right"",""good_move"",8391.1,2799.5,2333.5,5591.7,466,""oops"",""right"",""up"",""bad_move"",11403.3,3010.8,2392.4,8392.5,618.4,""smooth"",""down"",""down"",""good_move"",14583.5,3179,2779.4,11404.6,399.5,""smooth"",""down"",""down"",""good_move"",17576.1,2991.6,2543.1,14584.6,448.4,""smooth"",""down"",""down"",""good_move""]","",""
"4529","","<div style=""width:500px;"">
  <p>What determined the result of this run?</p>
  </div>","20","html-slider-response","20","519679","0.0-5.0-1.2","150","1","2025-07-23 06:33:21","1f75c3e559b7213887762d5229550c2b","41.145.196.124","Mozilla/5.0 (Windows NT 10.0; Win64; x64) AppleWebKit/537.36 (KHTML, like Gecko) Chrome/138.0.0.0 Safari/537.36","WebKit","Chrome","138.0.0.0","Windows","10.0","https://app.prolific.com/","en-US,en;q=0.9","67c7672373207a4fb29efe7f","683db9eb0562dbf637994deb","688081491347ce3568dfec62","2","1","67c7672373207a4fb29efe7f","2","1","2025-07-23T06:42:04.387Z","","","","","","","","","","","AttribQ","","50","","","","","","","","","","","","","","","","","","","","","","","","","","","","",""
"3967","","<div style=""width:500px;"">
  <p>How much control did you have over the ball?</p>
  </div>","38","html-slider-response","21","523649","0.0-5.0-2.2","150","1","2025-07-23 06:33:21","1f75c3e559b7213887762d5229550c2b","41.145.196.124","Mozilla/5.0 (Windows NT 10.0; Win64; x64) AppleWebKit/537.36 (KHTML, like Gecko) Chrome/138.0.0.0 Safari/537.36","WebKit","Chrome","138.0.0.0","Windows","10.0","https://app.prolific.com/","en-US,en;q=0.9","67c7672373207a4fb29efe7f","683db9eb0562dbf637994deb","688081491347ce3568dfec62","2","1","67c7672373207a4fb29efe7f","2","1","2025-07-23T06:42:08.358Z","","","","","","","","","","","ControlQ","","50","","","","","","","","","","","","","","","","","","","","","","","","","","","","",""
"3522","","<div style=""width:500px;"">
  <p>How would you describe your current emotional state?</p>
  </div>","27","html-slider-response","22","527175","0.0-5.0-3.2","150","1","2025-07-23 06:33:21","1f75c3e559b7213887762d5229550c2b","41.145.196.124","Mozilla/5.0 (Windows NT 10.0; Win64; x64) AppleWebKit/537.36 (KHTML, like Gecko) Chrome/138.0.0.0 Safari/537.36","WebKit","Chrome","138.0.0.0","Windows","10.0","https://app.prolific.com/","en-US,en;q=0.9","67c7672373207a4fb29efe7f","683db9eb0562dbf637994deb","688081491347ce3568dfec62","2","1","67c7672373207a4fb29efe7f","2","1","2025-07-23T06:42:11.883Z","","","","","","","","","","","StressQ","","50","","","","","","","","","","","","","","","","","","","","","","","","","","","","",""
"2948","","<div style=""width:500px;"">
  <p>What best describes how you currently feel?</p>
  </div>","83","html-slider-response","23","530125","0.0-5.0-4.2","150","1","2025-07-23 06:33:21","1f75c3e559b7213887762d5229550c2b","41.145.196.124","Mozilla/5.0 (Windows NT 10.0; Win64; x64) AppleWebKit/537.36 (KHTML, like Gecko) Chrome/138.0.0.0 Safari/537.36","WebKit","Chrome","138.0.0.0","Windows","10.0","https://app.prolific.com/","en-US,en;q=0.9","67c7672373207a4fb29efe7f","683db9eb0562dbf637994deb","688081491347ce3568dfec62","2","1","67c7672373207a4fb29efe7f","2","1","2025-07-23T06:42:14.833Z","","","","","","","","","","","MotivationQ","","50","","","","","","","","","","","","","","","","","","","","","","","","","","","","",""
"","","","","ctl-task-cpt","24","556767","0.0-5.0-0.3","150","1","2025-07-23 06:33:21","1f75c3e559b7213887762d5229550c2b","41.145.196.124","Mozilla/5.0 (Windows NT 10.0; Win64; x64) AppleWebKit/537.36 (KHTML, like Gecko) Chrome/138.0.0.0 Safari/537.36","WebKit","Chrome","138.0.0.0","Windows","10.0","https://app.prolific.com/","en-US,en;q=0.9","67c7672373207a4fb29efe7f","683db9eb0562dbf637994deb","688081491347ce3568dfec62","2","1","67c7672373207a4fb29efe7f","2","1","2025-07-23T06:42:41.475Z","","","","","","","","","","","","","","win-only","3","g1:SW,g2:NE","0.7","4","0","536697.8","1392.8","6399.6","23615.4","1","4","8","6","2","8","8","8","0","0.06060606060606061","1994.4","3000","860","[""up"",""right""]","{""num_key_presses"":6,""num_perfect"":5,""num_errors"":0,""num_randdir"":1,""num_randdir_good_moves"":1,""num_whilered"":0,""num_whileblue"":0,""num_blue"":0,""num_good_moves"":6}","[298.22232142857143,300.12857142857143,2.1,298.22232142857143,300.12857142857143,112,298.22232142857143,300.12857142857143,213.5,298.22232142857143,300.12857142857143,317.9,298.22232142857143,300.12857142857143,437,298.22232142857143,300.12857142857143,538.4,298.22232142857143,300.12857142857143,643.7,298.22232142857143,300.12857142857143,744.6,298.22232142857143,300.12857142857143,849.3,298.22232142857143,300.12857142857143,949.7,298.22232142857143,300.12857142857143,1050.8,298.22232142857143,300.12857142857143,1151.1,298.22232142857143,300.12857142857143,1255.2,397.22232142857143,191.12857142857143,1356.5,473.22232142857143,107.12857142857143,1460.2,489.22232142857143,94.12857142857143,1564.4,511.22232142857143,82.12857142857143,1669.8,513.2223214285714,79.12857142857143,1773.3,513.2223214285714,79.12857142857143,1874.5,513.2223214285714,79.12857142857143,1985.4,513.2223214285714,79.12857142857143,2091.2,513.2223214285714,79.12857142857143,2192.9,513.2223214285714,79.12857142857143,2294.9,513.2223214285714,79.12857142857143,2399.4,513.2223214285714,79.12857142857143,2500.2,513.2223214285714,79.12857142857143,2604.5,513.2223214285714,79.12857142857143,2712.2,508.22232142857143,85.12857142857143,2831.3,498.22232142857143,103.12857142857143,2941.2,489.22232142857143,117.12857142857143,3045.6,486.22232142857143,123.12857142857143,3146.2,486.22232142857143,123.12857142857143,3258.6,486.22232142857143,123.12857142857143,3370,486.22232142857143,123.12857142857143,3484.2,486.22232142857143,123.12857142857143,3586.1,486.22232142857143,123.12857142857143,3691,486.22232142857143,123.12857142857143,3795.4,486.22232142857143,123.12857142857143,3910.6,486.22232142857143,123.12857142857143,4012.4,486.22232142857143,123.12857142857143,4113.3,486.22232142857143,123.12857142857143,4220.4,486.22232142857143,123.12857142857143,4324.3,486.22232142857143,123.12857142857143,4428.2,486.22232142857143,123.12857142857143,4528.3,486.22232142857143,123.12857142857143,4629.8,486.22232142857143,123.12857142857143,4746,486.22232142857143,123.12857142857143,4848.3,486.22232142857143,123.12857142857143,4964.6]","[1555.5,1555.5,1000,0,555.5,""smooth"",""right"",""right"",""good_move"",4563.9,3007.1,2308.7,1556.9,698.4,""smooth"",""up"",""up"",""good_move"",7593.4,3025.3,2509.3,4568.2,515.9,""smooth"",""up"",""up"",""good_move"",11793.2,4197.6,3676.3,7595.6,521.3,""smooth"",""up"",""up"",""good_move"",14443.3,2649.1,2177.8,11794.2,471.3,""smooth"",""right"",""right"",""good_move"",17077.2,2631.8,2045,14445.5,586.7,""oops"",""right"",""right"",""good_move""]","",""
"7760","","<div style=""width:500px;"">
  <p>What determined the result of this run?</p>
  </div>","83","html-slider-response","25","564530","0.0-5.0-1.3","150","1","2025-07-23 06:33:21","1f75c3e559b7213887762d5229550c2b","41.145.196.124","Mozilla/5.0 (Windows NT 10.0; Win64; x64) AppleWebKit/537.36 (KHTML, like Gecko) Chrome/138.0.0.0 Safari/537.36","WebKit","Chrome","138.0.0.0","Windows","10.0","https://app.prolific.com/","en-US,en;q=0.9","67c7672373207a4fb29efe7f","683db9eb0562dbf637994deb","688081491347ce3568dfec62","2","1","67c7672373207a4fb29efe7f","2","1","2025-07-23T06:42:49.238Z","","","","","","","","","","","AttribQ","","50","","","","","","","","","","","","","","","","","","","","","","","","","","","","",""
"3625","","<div style=""width:500px;"">
  <p>How much control did you have over the ball?</p>
  </div>","72","html-slider-response","26","568158","0.0-5.0-2.3","150","1","2025-07-23 06:33:21","1f75c3e559b7213887762d5229550c2b","41.145.196.124","Mozilla/5.0 (Windows NT 10.0; Win64; x64) AppleWebKit/537.36 (KHTML, like Gecko) Chrome/138.0.0.0 Safari/537.36","WebKit","Chrome","138.0.0.0","Windows","10.0","https://app.prolific.com/","en-US,en;q=0.9","67c7672373207a4fb29efe7f","683db9eb0562dbf637994deb","688081491347ce3568dfec62","2","1","67c7672373207a4fb29efe7f","2","1","2025-07-23T06:42:52.866Z","","","","","","","","","","","ControlQ","","50","","","","","","","","","","","","","","","","","","","","","","","","","","","","",""
"3414","","<div style=""width:500px;"">
  <p>How would you describe your current emotional state?</p>
  </div>","13","html-slider-response","27","571575","0.0-5.0-3.3","150","1","2025-07-23 06:33:21","1f75c3e559b7213887762d5229550c2b","41.145.196.124","Mozilla/5.0 (Windows NT 10.0; Win64; x64) AppleWebKit/537.36 (KHTML, like Gecko) Chrome/138.0.0.0 Safari/537.36","WebKit","Chrome","138.0.0.0","Windows","10.0","https://app.prolific.com/","en-US,en;q=0.9","67c7672373207a4fb29efe7f","683db9eb0562dbf637994deb","688081491347ce3568dfec62","2","1","67c7672373207a4fb29efe7f","2","1","2025-07-23T06:42:56.283Z","","","","","","","","","","","StressQ","","50","","","","","","","","","","","","","","","","","","","","","","","","","","","","",""
"3671","","<div style=""width:500px;"">
  <p>What best describes how you currently feel?</p>
  </div>","97","html-slider-response","28","575249","0.0-5.0-4.3","150","1","2025-07-23 06:33:21","1f75c3e559b7213887762d5229550c2b","41.145.196.124","Mozilla/5.0 (Windows NT 10.0; Win64; x64) AppleWebKit/537.36 (KHTML, like Gecko) Chrome/138.0.0.0 Safari/537.36","WebKit","Chrome","138.0.0.0","Windows","10.0","https://app.prolific.com/","en-US,en;q=0.9","67c7672373207a4fb29efe7f","683db9eb0562dbf637994deb","688081491347ce3568dfec62","2","1","67c7672373207a4fb29efe7f","2","1","2025-07-23T06:42:59.958Z","","","","","","","","","","","MotivationQ","","50","","","","","","","","","","","","","","","","","","","","","","","","","","","","",""
"","","","","ctl-task-cpt","29","614162","0.0-5.0-0.4","150","1","2025-07-23 06:33:21","1f75c3e559b7213887762d5229550c2b","41.145.196.124","Mozilla/5.0 (Windows NT 10.0; Win64; x64) AppleWebKit/537.36 (KHTML, like Gecko) Chrome/138.0.0.0 Safari/537.36","WebKit","Chrome","138.0.0.0","Windows","10.0","https://app.prolific.com/","en-US,en;q=0.9","67c7672373207a4fb29efe7f","683db9eb0562dbf637994deb","688081491347ce3568dfec62","2","1","67c7672373207a4fb29efe7f","2","1","2025-07-23T06:43:38.870Z","","","","","","","","","","","","","","win-only","0","g1:NW,g2:SE","0.6","5","0","581823.7","1853.9","6856","35861.1","1","4","8","6","2","8","8","16","8","0.12121212121212122","1828.4","3000","70","[""down"",""right""]","{""num_key_presses"":8,""num_perfect"":5,""num_errors"":0,""num_randdir"":3,""num_randdir_good_moves"":2,""num_whilered"":0,""num_whileblue"":0,""num_blue"":2,""num_good_moves"":7}","[293.22232142857143,293.12857142857143,0.7,293.22232142857143,293.12857142857143,110.7,293.22232142857143,293.12857142857143,225.7,293.22232142857143,293.12857142857143,328.8,293.22232142857143,293.12857142857143,433.8,293.22232142857143,293.12857142857143,537.5,293.22232142857143,293.12857142857143,640.7,293.22232142857143,293.12857142857143,741.2,293.22232142857143,293.12857142857143,858.6,293.22232142857143,293.12857142857143,959.2,382.22232142857143,379.12857142857143,1061,498.22232142857143,522.1285714285714,1170.8,539.2223214285714,583.1285714285714,1277.5,541.2223214285714,585.1285714285714,1387,538.2223214285714,570.1285714285714,1490.8,535.2223214285714,564.1285714285714,1619,535.2223214285714,564.1285714285714,1720.3,535.2223214285714,564.1285714285714,1843.2,535.2223214285714,564.1285714285714,1953.7,535.2223214285714,564.1285714285714,2060.2,535.2223214285714,564.1285714285714,2177.1,535.2223214285714,564.1285714285714,2278.8,535.2223214285714,564.1285714285714,2390.4,535.2223214285714,564.1285714285714,2493.5,535.2223214285714,564.1285714285714,2593.8,535.2223214285714,564.1285714285714,2699.6,535.2223214285714,564.1285714285714,2800.6,535.2223214285714,564.1285714285714,2920.8,535.2223214285714,564.1285714285714,3023.7,535.2223214285714,564.1285714285714,3125.9,535.2223214285714,564.1285714285714,3228.1,535.2223214285714,564.1285714285714,3336.5,535.2223214285714,564.1285714285714,3440.8,535.2223214285714,564.1285714285714,3543.9,535.2223214285714,564.1285714285714,3645.6,535.2223214285714,564.1285714285714,3747.3,535.2223214285714,564.1285714285714,3849.9,535.2223214285714,564.1285714285714,3954,535.2223214285714,564.1285714285714,4073.2,535.2223214285714,564.1285714285714,4173.2,535.2223214285714,564.1285714285714,4276,535.2223214285714,564.1285714285714,4387.4,535.2223214285714,564.1285714285714,4495.4,535.2223214285714,564.1285714285714,4598.7,535.2223214285714,564.1285714285714,4710.9,535.2223214285714,564.1285714285714,4812.7,535.2223214285714,564.1285714285714,4936.2]","[1911.4,1911.4,1000,0,911.4,""smooth"",""down"",""down"",""good_move"",5003.7,3090.8,2380.4,1912.9,710.4,""oops"",""right"",""up"",""bad_move"",8021.1,3015.3,2239.3,5005.8,776.1,""oops"",""right"",""right"",""good_move"",10780.2,2757.3,2075.8,8022.9,681.5,""oops"",""right"",""down"",""good_move"",13095.5,2314.1,1639.5,10781.4,674.6,""smooth"",""right"",""right"",""good_move"",19545.7,6447.6,2872.1,16058.8,614.8,""smooth"",""right"",""right"",""good_move"",22346.3,2799.7,2171.7,19546.6,628,""smooth"",""down"",""down"",""good_move"",28831.3,6481.1,2218.2,26113.2,499.9,""smooth"",""down"",""down"",""good_move""]","",""
"5212","","<div style=""width:500px;"">
  <p>What determined the result of this run?</p>
  </div>","87","html-slider-response","30","619377","0.0-5.0-1.4","150","1","2025-07-23 06:33:21","1f75c3e559b7213887762d5229550c2b","41.145.196.124","Mozilla/5.0 (Windows NT 10.0; Win64; x64) AppleWebKit/537.36 (KHTML, like Gecko) Chrome/138.0.0.0 Safari/537.36","WebKit","Chrome","138.0.0.0","Windows","10.0","https://app.prolific.com/","en-US,en;q=0.9","67c7672373207a4fb29efe7f","683db9eb0562dbf637994deb","688081491347ce3568dfec62","2","1","67c7672373207a4fb29efe7f","2","1","2025-07-23T06:43:44.085Z","","","","","","","","","","","AttribQ","","50","","","","","","","","","","","","","","","","","","","","","","","","","","","","",""
"3674","","<div style=""width:500px;"">
  <p>How much control did you have over the ball?</p>
  </div>","72","html-slider-response","31","623054","0.0-5.0-2.4","150","1","2025-07-23 06:33:21","1f75c3e559b7213887762d5229550c2b","41.145.196.124","Mozilla/5.0 (Windows NT 10.0; Win64; x64) AppleWebKit/537.36 (KHTML, like Gecko) Chrome/138.0.0.0 Safari/537.36","WebKit","Chrome","138.0.0.0","Windows","10.0","https://app.prolific.com/","en-US,en;q=0.9","67c7672373207a4fb29efe7f","683db9eb0562dbf637994deb","688081491347ce3568dfec62","2","1","67c7672373207a4fb29efe7f","2","1","2025-07-23T06:43:47.763Z","","","","","","","","","","","ControlQ","","50","","","","","","","","","","","","","","","","","","","","","","","","","","","","",""
"3800","","<div style=""width:500px;"">
  <p>How would you describe your current emotional state?</p>
  </div>","12","html-slider-response","32","626858","0.0-5.0-3.4","150","1","2025-07-23 06:33:21","1f75c3e559b7213887762d5229550c2b","41.145.196.124","Mozilla/5.0 (Windows NT 10.0; Win64; x64) AppleWebKit/537.36 (KHTML, like Gecko) Chrome/138.0.0.0 Safari/537.36","WebKit","Chrome","138.0.0.0","Windows","10.0","https://app.prolific.com/","en-US,en;q=0.9","67c7672373207a4fb29efe7f","683db9eb0562dbf637994deb","688081491347ce3568dfec62","2","1","67c7672373207a4fb29efe7f","2","1","2025-07-23T06:43:51.566Z","","","","","","","","","","","StressQ","","50","","","","","","","","","","","","","","","","","","","","","","","","","","","","",""
"4178","","<div style=""width:500px;"">
  <p>What best describes how you currently feel?</p>
  </div>","88","html-slider-response","33","631040","0.0-5.0-4.4","150","1","2025-07-23 06:33:21","1f75c3e559b7213887762d5229550c2b","41.145.196.124","Mozilla/5.0 (Windows NT 10.0; Win64; x64) AppleWebKit/537.36 (KHTML, like Gecko) Chrome/138.0.0.0 Safari/537.36","WebKit","Chrome","138.0.0.0","Windows","10.0","https://app.prolific.com/","en-US,en;q=0.9","67c7672373207a4fb29efe7f","683db9eb0562dbf637994deb","688081491347ce3568dfec62","2","1","67c7672373207a4fb29efe7f","2","1","2025-07-23T06:43:55.748Z","","","","","","","","","","","MotivationQ","","50","","","","","","","","","","","","","","","","","","","","","","","","","","","","",""
"","","","","ctl-task-cpt","34","677094","0.0-5.0-0.5","150","1","2025-07-23 06:33:21","1f75c3e559b7213887762d5229550c2b","41.145.196.124","Mozilla/5.0 (Windows NT 10.0; Win64; x64) AppleWebKit/537.36 (KHTML, like Gecko) Chrome/138.0.0.0 Safari/537.36","WebKit","Chrome","138.0.0.0","Windows","10.0","https://app.prolific.com/","en-US,en;q=0.9","67c7672373207a4fb29efe7f","683db9eb0562dbf637994deb","688081491347ce3568dfec62","2","1","67c7672373207a4fb29efe7f","2","1","2025-07-23T06:44:41.802Z","","","","","","","","","","","","","","win-only","3","g1:SW,g2:NE","0.5","6","0","637615.4","1914.9","6918.9","43028.2","1","4","4","6","1","1","1","17","16","0.12878787878787878","2251.8","3000","690","[""down"",""left""]","{""num_key_presses"":8,""num_perfect"":5,""num_errors"":0,""num_randdir"":3,""num_randdir_good_moves"":1,""num_whilered"":0,""num_whileblue"":0,""num_blue"":3,""num_good_moves"":6}","[292.22232142857143,299.12857142857143,1.8,292.22232142857143,299.12857142857143,100.7,292.22232142857143,299.12857142857143,202.5,292.22232142857143,299.12857142857143,345.8,292.22232142857143,299.12857142857143,458,292.22232142857143,299.12857142857143,575.5,292.22232142857143,299.12857142857143,676.5,292.22232142857143,299.12857142857143,782.6,305.22232142857143,289.12857142857143,890.2,297.22232142857143,295.12857142857143,990.6,198.22232142857143,381.12857142857143,1140.9,198.22232142857143,381.12857142857143,1289.9,198.22232142857143,381.12857142857143,1390.1,90.22232142857143,479.12857142857143,1490.6,11.222321428571426,553.1285714285714,1593.5,9.222321428571426,556.1285714285714,1727.1,9.222321428571426,556.1285714285714,1830,26.222321428571426,541.1285714285714,1940.5,26.222321428571426,540.1285714285714,2045.2,26.222321428571426,540.1285714285714,2153.2,26.222321428571426,540.1285714285714,2263.5,26.222321428571426,540.1285714285714,2415.6,26.222321428571426,540.1285714285714,2527.7,26.222321428571426,540.1285714285714,2681.2,26.222321428571426,540.1285714285714,2803.1,26.222321428571426,540.1285714285714,2927.3,26.222321428571426,540.1285714285714,3074.6,26.222321428571426,540.1285714285714,3175,26.222321428571426,540.1285714285714,3276.4,26.222321428571426,540.1285714285714,3412.9,26.222321428571426,540.1285714285714,3519.8,26.222321428571426,540.1285714285714,3660.7,26.222321428571426,540.1285714285714,3760.7,26.222321428571426,540.1285714285714,3861.5,26.222321428571426,540.1285714285714,3961.6,26.222321428571426,540.1285714285714,4093,26.222321428571426,540.1285714285714,4195.3,26.222321428571426,540.1285714285714,4312.5,26.222321428571426,540.1285714285714,4413,26.222321428571426,540.1285714285714,4565.1,26.222321428571426,540.1285714285714,4666,26.222321428571426,540.1285714285714,4768,26.222321428571426,540.1285714285714,4885.2,26.222321428571426,540.1285714285714,4988.3]","[5006.1,5006.1,2095.8,2004.7,905.6,""smooth"",""down"",""down"",""good_move"",8131.8,3124.3,2505.2,5007.7,619,""smooth"",""down"",""down"",""good_move"",11587.8,3452.9,2853.5,8134.9,599.4,""oops"",""left"",""right"",""bad_move"",15032.4,3442.8,2815,11589.6,627.8,""oops"",""left"",""right"",""bad_move"",18472.7,3438.1,2552.7,15034.7,885.4,""smooth"",""left"",""left"",""good_move"",21077.6,2603.1,2131.1,18474.5,472,""oops"",""left"",""left"",""good_move"",24557.7,3477.5,3044.8,21080.2,432.8,""smooth"",""left"",""left"",""good_move"",35931.2,11372.4,2427.2,32615.6,888.4,""smooth"",""left"",""left"",""good_move""]","",""
"4160","","<div style=""width:500px;"">
  <p>What determined the result of this run?</p>
  </div>","24","html-slider-response","35","681256","0.0-5.0-1.5","150","1","2025-07-23 06:33:21","1f75c3e559b7213887762d5229550c2b","41.145.196.124","Mozilla/5.0 (Windows NT 10.0; Win64; x64) AppleWebKit/537.36 (KHTML, like Gecko) Chrome/138.0.0.0 Safari/537.36","WebKit","Chrome","138.0.0.0","Windows","10.0","https://app.prolific.com/","en-US,en;q=0.9","67c7672373207a4fb29efe7f","683db9eb0562dbf637994deb","688081491347ce3568dfec62","2","1","67c7672373207a4fb29efe7f","2","1","2025-07-23T06:44:45.964Z","","","","","","","","","","","AttribQ","","50","","","","","","","","","","","","","","","","","","","","","","","","","","","","",""
"3295","","<div style=""width:500px;"">
  <p>How much control did you have over the ball?</p>
  </div>","13","html-slider-response","36","684555","0.0-5.0-2.5","150","1","2025-07-23 06:33:21","1f75c3e559b7213887762d5229550c2b","41.145.196.124","Mozilla/5.0 (Windows NT 10.0; Win64; x64) AppleWebKit/537.36 (KHTML, like Gecko) Chrome/138.0.0.0 Safari/537.36","WebKit","Chrome","138.0.0.0","Windows","10.0","https://app.prolific.com/","en-US,en;q=0.9","67c7672373207a4fb29efe7f","683db9eb0562dbf637994deb","688081491347ce3568dfec62","2","1","67c7672373207a4fb29efe7f","2","1","2025-07-23T06:44:49.263Z","","","","","","","","","","","ControlQ","","50","","","","","","","","","","","","","","","","","","","","","","","","","","","","",""
"4273","","<div style=""width:500px;"">
  <p>How would you describe your current emotional state?</p>
  </div>","21","html-slider-response","37","688832","0.0-5.0-3.5","150","1","2025-07-23 06:33:21","1f75c3e559b7213887762d5229550c2b","41.145.196.124","Mozilla/5.0 (Windows NT 10.0; Win64; x64) AppleWebKit/537.36 (KHTML, like Gecko) Chrome/138.0.0.0 Safari/537.36","WebKit","Chrome","138.0.0.0","Windows","10.0","https://app.prolific.com/","en-US,en;q=0.9","67c7672373207a4fb29efe7f","683db9eb0562dbf637994deb","688081491347ce3568dfec62","2","1","67c7672373207a4fb29efe7f","2","1","2025-07-23T06:44:53.540Z","","","","","","","","","","","StressQ","","50","","","","","","","","","","","","","","","","","","","","","","","","","","","","",""
"4243","","<div style=""width:500px;"">
  <p>What best describes how you currently feel?</p>
  </div>","94","html-slider-response","38","693079","0.0-5.0-4.5","150","1","2025-07-23 06:33:21","1f75c3e559b7213887762d5229550c2b","41.145.196.124","Mozilla/5.0 (Windows NT 10.0; Win64; x64) AppleWebKit/537.36 (KHTML, like Gecko) Chrome/138.0.0.0 Safari/537.36","WebKit","Chrome","138.0.0.0","Windows","10.0","https://app.prolific.com/","en-US,en;q=0.9","67c7672373207a4fb29efe7f","683db9eb0562dbf637994deb","688081491347ce3568dfec62","2","1","67c7672373207a4fb29efe7f","2","1","2025-07-23T06:44:57.787Z","","","","","","","","","","","MotivationQ","","50","","","","","","","","","","","","","","","","","","","","","","","","","","","","",""
"","","","","ctl-task-cpt","39","732621","0.0-5.0-0.6","150","1","2025-07-23 06:33:21","1f75c3e559b7213887762d5229550c2b","41.145.196.124","Mozilla/5.0 (Windows NT 10.0; Win64; x64) AppleWebKit/537.36 (KHTML, like Gecko) Chrome/138.0.0.0 Safari/537.36","WebKit","Chrome","138.0.0.0","Windows","10.0","https://app.prolific.com/","en-US,en;q=0.9","67c7672373207a4fb29efe7f","683db9eb0562dbf637994deb","688081491347ce3568dfec62","2","1","67c7672373207a4fb29efe7f","2","1","2025-07-23T06:45:37.329Z","","","","","","","","","","","","","","win-only","1","g1:NE,g2:SW","0.4","7","0","699652.9","2033.9","7037.4","36518.8","1","4","8","6","2","8","8","25","17","0.1893939393939394","1596.3","3000","470","[""down"",""left""]","{""num_key_presses"":8,""num_perfect"":4,""num_errors"":0,""num_randdir"":4,""num_randdir_good_moves"":3,""num_whilered"":0,""num_whileblue"":0,""num_blue"":1,""num_good_moves"":7}","[298.22232142857143,296.12857142857143,1,298.22232142857143,296.12857142857143,102.8,298.22232142857143,296.12857142857143,208.1,298.22232142857143,296.12857142857143,312.2,298.22232142857143,296.12857142857143,413,298.22232142857143,296.12857142857143,521.4,298.22232142857143,296.12857142857143,623.5,296.22232142857143,300.12857142857143,727.4,122.22232142857143,433.12857142857143,834,37.222321428571426,501.12857142857143,943.9,21.222321428571426,518.1285714285714,1052.5,13.222321428571426,528.1285714285714,1156.8,13.222321428571426,536.1285714285714,1261.4,15.222321428571426,539.1285714285714,1389.1,15.222321428571426,539.1285714285714,1501.4,15.222321428571426,539.1285714285714,1617.8,15.222321428571426,539.1285714285714,1761.9,15.222321428571426,539.1285714285714,1884.6,15.222321428571426,539.1285714285714,1985.6,15.222321428571426,539.1285714285714,2088.5,15.222321428571426,539.1285714285714,2195.7,15.222321428571426,539.1285714285714,2325.6,15.222321428571426,539.1285714285714,2428.9,15.222321428571426,539.1285714285714,2533.1,15.222321428571426,539.1285714285714,2642.5,15.222321428571426,539.1285714285714,2743.3,19.222321428571426,537.1285714285714,2846.9,21.222321428571426,533.1285714285714,2949.1,21.222321428571426,532.1285714285714,3057.8,22.222321428571426,531.1285714285714,3164.9,24.222321428571426,528.1285714285714,3268.2,25.222321428571426,528.1285714285714,3375.6,25.222321428571426,527.1285714285714,3480,25.222321428571426,527.1285714285714,3581.3,25.222321428571426,527.1285714285714,3705,25.222321428571426,527.1285714285714,3808.7,25.222321428571426,527.1285714285714,3948,25.222321428571426,527.1285714285714,4064.9,25.222321428571426,527.1285714285714,4191.3,25.222321428571426,527.1285714285714,4295.6,25.222321428571426,527.1285714285714,4400.4,25.222321428571426,527.1285714285714,4504.4,25.222321428571426,527.1285714285714,4622.8,25.222321428571426,527.1285714285714,4723.7,25.222321428571426,527.1285714285714,4825.3,25.222321428571426,527.1285714285714,4962.3]","[2104.7,2104.7,1000,0,1104.7,""oops"",""down"",""down"",""good_move"",5479.8,3372.4,2511.8,2107.4,860.6,""smooth"",""left"",""left"",""good_move"",13150.3,7668.9,2838.6,9589,722.7,""smooth"",""down"",""down"",""good_move"",16322.8,3171.8,2548.2,13151,623.6,""oops"",""down"",""left"",""good_move"",19630.5,3306.6,2787.1,16324.1,519.3,""oops"",""down"",""right"",""bad_move"",22528.5,2896.2,2288.2,19632.3,608,""smooth"",""down"",""down"",""good_move"",25600.5,3070.7,2515.9,22529.8,554.9,""oops"",""left"",""left"",""good_move"",29288.2,3686.5,3169.1,25601.8,517.3,""smooth"",""left"",""left"",""good_move""]","",""
"5893","","<div style=""width:500px;"">
  <p>What determined the result of this run?</p>
  </div>","40","html-slider-response","40","738516","0.0-5.0-1.6","150","1","2025-07-23 06:33:21","1f75c3e559b7213887762d5229550c2b","41.145.196.124","Mozilla/5.0 (Windows NT 10.0; Win64; x64) AppleWebKit/537.36 (KHTML, like Gecko) Chrome/138.0.0.0 Safari/537.36","WebKit","Chrome","138.0.0.0","Windows","10.0","https://app.prolific.com/","en-US,en;q=0.9","67c7672373207a4fb29efe7f","683db9eb0562dbf637994deb","688081491347ce3568dfec62","2","1","67c7672373207a4fb29efe7f","2","1","2025-07-23T06:45:43.224Z","","","","","","","","","","","AttribQ","","50","","","","","","","","","","","","","","","","","","","","","","","","","","","","",""
"8843","","<div style=""width:500px;"">
  <p>How much control did you have over the ball?</p>
  </div>","83","html-slider-response","41","747362","0.0-5.0-2.6","150","1","2025-07-23 06:33:21","1f75c3e559b7213887762d5229550c2b","41.145.196.124","Mozilla/5.0 (Windows NT 10.0; Win64; x64) AppleWebKit/537.36 (KHTML, like Gecko) Chrome/138.0.0.0 Safari/537.36","WebKit","Chrome","138.0.0.0","Windows","10.0","https://app.prolific.com/","en-US,en;q=0.9","67c7672373207a4fb29efe7f","683db9eb0562dbf637994deb","688081491347ce3568dfec62","2","1","67c7672373207a4fb29efe7f","2","1","2025-07-23T06:45:52.071Z","","","","","","","","","","","ControlQ","","50","","","","","","","","","","","","","","","","","","","","","","","","","","","","",""
"5877","","<div style=""width:500px;"">
  <p>How would you describe your current emotional state?</p>
  </div>","9","html-slider-response","42","753246","0.0-5.0-3.6","150","1","2025-07-23 06:33:21","1f75c3e559b7213887762d5229550c2b","41.145.196.124","Mozilla/5.0 (Windows NT 10.0; Win64; x64) AppleWebKit/537.36 (KHTML, like Gecko) Chrome/138.0.0.0 Safari/537.36","WebKit","Chrome","138.0.0.0","Windows","10.0","https://app.prolific.com/","en-US,en;q=0.9","67c7672373207a4fb29efe7f","683db9eb0562dbf637994deb","688081491347ce3568dfec62","2","1","67c7672373207a4fb29efe7f","2","1","2025-07-23T06:45:57.954Z","","","","","","","","","","","StressQ","","50","","","","","","","","","","","","","","","","","","","","","","","","","","","","",""
"9935","","<div style=""width:500px;"">
  <p>What best describes how you currently feel?</p>
  </div>","83","html-slider-response","43","763183","0.0-5.0-4.6","150","1","2025-07-23 06:33:21","1f75c3e559b7213887762d5229550c2b","41.145.196.124","Mozilla/5.0 (Windows NT 10.0; Win64; x64) AppleWebKit/537.36 (KHTML, like Gecko) Chrome/138.0.0.0 Safari/537.36","WebKit","Chrome","138.0.0.0","Windows","10.0","https://app.prolific.com/","en-US,en;q=0.9","67c7672373207a4fb29efe7f","683db9eb0562dbf637994deb","688081491347ce3568dfec62","2","1","67c7672373207a4fb29efe7f","2","1","2025-07-23T06:46:07.892Z","","","","","","","","","","","MotivationQ","","50","","","","","","","","","","","","","","","","","","","","","","","","","","","","",""
"","","","","ctl-task-cpt","44","838870","0.0-5.0-0.7","150","1","2025-07-23 06:33:21","1f75c3e559b7213887762d5229550c2b","41.145.196.124","Mozilla/5.0 (Windows NT 10.0; Win64; x64) AppleWebKit/537.36 (KHTML, like Gecko) Chrome/138.0.0.0 Safari/537.36","WebKit","Chrome","138.0.0.0","Windows","10.0","https://app.prolific.com/","en-US,en;q=0.9","67c7672373207a4fb29efe7f","683db9eb0562dbf637994deb","688081491347ce3568dfec62","2","1","67c7672373207a4fb29efe7f","2","1","2025-07-23T06:47:23.579Z","","","","","","","","","","","","","","win-only","3","g1:SW,g2:NE","0.3","8","0","769758.5","6493.5","11516.1","72640","1","4","4","6","1","-1","-1","24","25","0.18181818181818182","1855","3000","-1375","[""down"",""left""]","{""num_key_presses"":13,""num_perfect"":4,""num_errors"":0,""num_randdir"":9,""num_randdir_good_moves"":4,""num_whilered"":0,""num_whileblue"":0,""num_blue"":4,""num_good_moves"":7}","[292.22232142857143,297.12857142857143,6.1,292.22232142857143,297.12857142857143,106,292.22232142857143,297.12857142857143,214.2,292.22232142857143,297.12857142857143,316.4,292.22232142857143,297.12857142857143,419.8,292.22232142857143,297.12857142857143,524.3,292.22232142857143,297.12857142857143,656.3,292.22232142857143,297.12857142857143,759.6,292.22232142857143,297.12857142857143,867.6,292.22232142857143,297.12857142857143,968.3,283.22232142857143,309.12857142857143,1103.3,166.22232142857143,410.12857142857143,1203.3,73.22232142857143,506.12857142857143,1318.3,45.222321428571426,539.1285714285714,1435.7,37.222321428571426,547.1285714285714,1548.6,36.222321428571426,548.1285714285714,1655.7,36.222321428571426,548.1285714285714,1759.2,36.222321428571426,548.1285714285714,1865.4,36.222321428571426,548.1285714285714,1972.7,36.222321428571426,548.1285714285714,2076.9,36.222321428571426,548.1285714285714,2178.6,36.222321428571426,548.1285714285714,2313.8,36.222321428571426,548.1285714285714,2418.3,36.222321428571426,548.1285714285714,2520.4,36.222321428571426,548.1285714285714,2627,36.222321428571426,548.1285714285714,2730.3,36.222321428571426,548.1285714285714,2831.2,36.222321428571426,548.1285714285714,2952.2,36.222321428571426,548.1285714285714,3053.7,36.222321428571426,548.1285714285714,3201.4,36.222321428571426,548.1285714285714,3325.3,36.222321428571426,548.1285714285714,3425.6,36.222321428571426,548.1285714285714,3531.7,36.222321428571426,548.1285714285714,3639.2,36.222321428571426,548.1285714285714,3798.1,36.222321428571426,548.1285714285714,3926,36.222321428571426,548.1285714285714,4027.5,36.222321428571426,548.1285714285714,4134.4,36.222321428571426,548.1285714285714,4243.5,36.222321428571426,548.1285714285714,4350.2,36.222321428571426,548.1285714285714,4461.9,36.222321428571426,548.1285714285714,4568.5,36.222321428571426,548.1285714285714,4672.8,36.222321428571426,548.1285714285714,4774.2,36.222321428571426,548.1285714285714,4874.8,36.222321428571426,548.1285714285714,4975.4]","[2112.3,2112.3,1000,0,1112.3,""smooth"",""right"",""right"",""bad_move"",5745.5,3631.8,2956.7,2113.7,675.1,""oops"",""left"",""right"",""bad_move"",8795.6,3049,2258.2,5746.6,790.8,""oops"",""down"",""down"",""good_move"",11842.9,3045.2,2478,8797.7,567.2,""smooth"",""down"",""down"",""good_move"",15020.9,3176.7,2652.2,11844.3,524.4,""oops"",""left"",""right"",""bad_move"",18274.4,3252.5,2671.5,15021.9,581,""oops"",""left"",""up"",""bad_move"",27424.2,9148.3,2961.6,23706.9,755.7,""smooth"",""left"",""left"",""good_move"",37166.1,9740.4,2639.1,33894.7,632.3,""oops"",""left"",""right"",""bad_move"",40566.1,3398.8,2650.9,37167.3,747.9,""oops"",""left"",""down"",""good_move"",44020.7,3452.8,2842.4,40567.9,610.5,""oops"",""left"",""left"",""good_move"",47433.8,3399.7,1648.1,44034.3,1751.5,""oops"",""left"",""up"",""bad_move"",54966.7,7531,2854.9,51533.3,578.5,""oops"",""left"",""left"",""good_move"",57946.1,2978.3,1932.2,54967.8,1046.1,""smooth"",""left"",""left"",""good_move""]","",""
"11236","","<div style=""width:500px;"">
  <p>What determined the result of this run?</p>
  </div>","34","html-slider-response","45","850109","0.0-5.0-1.7","150","1","2025-07-23 06:33:21","1f75c3e559b7213887762d5229550c2b","41.145.196.124","Mozilla/5.0 (Windows NT 10.0; Win64; x64) AppleWebKit/537.36 (KHTML, like Gecko) Chrome/138.0.0.0 Safari/537.36","WebKit","Chrome","138.0.0.0","Windows","10.0","https://app.prolific.com/","en-US,en;q=0.9","67c7672373207a4fb29efe7f","683db9eb0562dbf637994deb","688081491347ce3568dfec62","2","1","67c7672373207a4fb29efe7f","2","1","2025-07-23T06:47:34.817Z","","","","","","","","","","","AttribQ","","50","","","","","","","","","","","","","","","","","","","","","","","","","","","","",""
"6045","","<div style=""width:500px;"">
  <p>How much control did you have over the ball?</p>
  </div>","71","html-slider-response","46","856159","0.0-5.0-2.7","150","1","2025-07-23 06:33:21","1f75c3e559b7213887762d5229550c2b","41.145.196.124","Mozilla/5.0 (Windows NT 10.0; Win64; x64) AppleWebKit/537.36 (KHTML, like Gecko) Chrome/138.0.0.0 Safari/537.36","WebKit","Chrome","138.0.0.0","Windows","10.0","https://app.prolific.com/","en-US,en;q=0.9","67c7672373207a4fb29efe7f","683db9eb0562dbf637994deb","688081491347ce3568dfec62","2","1","67c7672373207a4fb29efe7f","2","1","2025-07-23T06:47:40.867Z","","","","","","","","","","","ControlQ","","50","","","","","","","","","","","","","","","","","","","","","","","","","","","","",""
"6017","","<div style=""width:500px;"">
  <p>How would you describe your current emotional state?</p>
  </div>","16","html-slider-response","47","862179","0.0-5.0-3.7","150","1","2025-07-23 06:33:21","1f75c3e559b7213887762d5229550c2b","41.145.196.124","Mozilla/5.0 (Windows NT 10.0; Win64; x64) AppleWebKit/537.36 (KHTML, like Gecko) Chrome/138.0.0.0 Safari/537.36","WebKit","Chrome","138.0.0.0","Windows","10.0","https://app.prolific.com/","en-US,en;q=0.9","67c7672373207a4fb29efe7f","683db9eb0562dbf637994deb","688081491347ce3568dfec62","2","1","67c7672373207a4fb29efe7f","2","1","2025-07-23T06:47:46.887Z","","","","","","","","","","","StressQ","","50","","","","","","","","","","","","","","","","","","","","","","","","","","","","",""
"5199","","<div style=""width:500px;"">
  <p>What best describes how you currently feel?</p>
  </div>","74","html-slider-response","48","867381","0.0-5.0-4.7","150","1","2025-07-23 06:33:21","1f75c3e559b7213887762d5229550c2b","41.145.196.124","Mozilla/5.0 (Windows NT 10.0; Win64; x64) AppleWebKit/537.36 (KHTML, like Gecko) Chrome/138.0.0.0 Safari/537.36","WebKit","Chrome","138.0.0.0","Windows","10.0","https://app.prolific.com/","en-US,en;q=0.9","67c7672373207a4fb29efe7f","683db9eb0562dbf637994deb","688081491347ce3568dfec62","2","1","67c7672373207a4fb29efe7f","2","1","2025-07-23T06:47:52.090Z","","","","","","","","","","","MotivationQ","","50","","","","","","","","","","","","","","","","","","","","","","","","","","","","",""
"","","","","ctl-task-cpt","49","949407","0.0-5.0-0.8","150","1","2025-07-23 06:33:21","1f75c3e559b7213887762d5229550c2b","41.145.196.124","Mozilla/5.0 (Windows NT 10.0; Win64; x64) AppleWebKit/537.36 (KHTML, like Gecko) Chrome/138.0.0.0 Safari/537.36","WebKit","Chrome","138.0.0.0","Windows","10.0","https://app.prolific.com/","en-US,en;q=0.9","67c7672373207a4fb29efe7f","683db9eb0562dbf637994deb","688081491347ce3568dfec62","2","1","67c7672373207a4fb29efe7f","2","1","2025-07-23T06:49:14.115Z","","","","","","","","","","","","","","win-only","0","g1:NW,g2:SE","0.2","9","0","873959.7","7086.1","12093.4","79003.9","1","4","8","6","2","-8","-8","16","24","0.12121212121212122","1687.8","3000","-1035","[""down"",""right""]","{""num_key_presses"":15,""num_perfect"":4,""num_errors"":0,""num_randdir"":11,""num_randdir_good_moves"":6,""num_whilered"":0,""num_whileblue"":0,""num_blue"":4,""num_good_moves"":10}","[302.22232142857143,293.12857142857143,1.6,302.22232142857143,293.12857142857143,107,302.22232142857143,293.12857142857143,261,302.22232142857143,293.12857142857143,378,302.22232142857143,293.12857142857143,479.4,302.22232142857143,293.12857142857143,643.1,309.22232142857143,310.12857142857143,754.7,516.2223214285714,489.12857142857143,866.1,587.2223214285714,533.1285714285714,969.2,588.2223214285714,534.1285714285714,1072,587.2223214285714,535.1285714285714,1174,576.2223214285714,536.1285714285714,1274.9,565.2223214285714,537.1285714285714,1380.5,565.2223214285714,537.1285714285714,1501.8,565.2223214285714,537.1285714285714,1602,565.2223214285714,537.1285714285714,1708.8,565.2223214285714,537.1285714285714,1813.6,565.2223214285714,537.1285714285714,1913.9,565.2223214285714,537.1285714285714,2040.9,565.2223214285714,537.1285714285714,2144.6,565.2223214285714,537.1285714285714,2247.9,565.2223214285714,537.1285714285714,2353.4,565.2223214285714,537.1285714285714,2518.1,565.2223214285714,537.1285714285714,2622,565.2223214285714,537.1285714285714,2729.8,565.2223214285714,537.1285714285714,2838.3,565.2223214285714,537.1285714285714,2954.3,565.2223214285714,537.1285714285714,3062.5,565.2223214285714,537.1285714285714,3164.4,565.2223214285714,537.1285714285714,3271.8,565.2223214285714,537.1285714285714,3443.4,565.2223214285714,537.1285714285714,3592.4,565.2223214285714,537.1285714285714,3744.7,565.2223214285714,537.1285714285714,3847.1,565.2223214285714,537.1285714285714,4064.9,565.2223214285714,537.1285714285714,4167,565.2223214285714,537.1285714285714,4270,565.2223214285714,537.1285714285714,4378.6,565.2223214285714,537.1285714285714,4538,565.2223214285714,537.1285714285714,4639.7,565.2223214285714,537.1285714285714,4748,565.2223214285714,537.1285714285714,4939.6]","[5758.9,5758.9,2555,2068.8,1135.1,""smooth"",""right"",""right"",""good_move"",15415.5,9650,2345.6,12336.4,733.5,""oops"",""down"",""left"",""bad_move"",18737.5,3317.5,2650.1,15420.1,667.4,""oops"",""down"",""right"",""good_move"",25547.3,6808,2066,22734.5,746.8,""oops"",""down"",""right"",""good_move"",28640.9,3091.6,2374.4,25549.3,717.2,""oops"",""down"",""up"",""bad_move"",32170,3527.4,2862.1,28642.6,665.3,""oops"",""down"",""right"",""good_move"",35426.8,3255.6,2662.4,32171.2,593.2,""smooth"",""down"",""down"",""good_move"",38984.2,3555.8,2997.5,35428.4,558.3,""oops"",""down"",""up"",""bad_move"",42460.8,3475.4,2553.4,38985.5,921.9,""oops"",""down"",""up"",""bad_move"",46440.8,3977.4,2459.3,42463.4,1518.1,""oops"",""down"",""left"",""bad_move"",51771.6,5329.4,1707.6,46442.2,3621.8,""smooth"",""down"",""down"",""good_move"",55337,3564.7,2965.8,51772.4,598.8,""oops"",""down"",""right"",""good_move"",58050.2,2712.1,2095.9,55338.1,616.2,""smooth"",""down"",""down"",""good_move"",60962.5,2906.6,2402.9,58056,503.6,""oops"",""down"",""down"",""good_move"",64145.9,3181.1,2694.9,60964.8,486.2,""oops"",""down"",""down"",""good_move""]","",""
"4791","","<div style=""width:500px;"">
  <p>What determined the result of this run?</p>
  </div>","17","html-slider-response","50","954202","0.0-5.0-1.8","150","1","2025-07-23 06:33:21","1f75c3e559b7213887762d5229550c2b","41.145.196.124","Mozilla/5.0 (Windows NT 10.0; Win64; x64) AppleWebKit/537.36 (KHTML, like Gecko) Chrome/138.0.0.0 Safari/537.36","WebKit","Chrome","138.0.0.0","Windows","10.0","https://app.prolific.com/","en-US,en;q=0.9","67c7672373207a4fb29efe7f","683db9eb0562dbf637994deb","688081491347ce3568dfec62","2","1","67c7672373207a4fb29efe7f","2","1","2025-07-23T06:49:18.910Z","","","","","","","","","","","AttribQ","","50","","","","","","","","","","","","","","","","","","","","","","","","","","","","",""
"5135","","<div style=""width:500px;"">
  <p>How much control did you have over the ball?</p>
  </div>","81","html-slider-response","51","959340","0.0-5.0-2.8","150","1","2025-07-23 06:33:21","1f75c3e559b7213887762d5229550c2b","41.145.196.124","Mozilla/5.0 (Windows NT 10.0; Win64; x64) AppleWebKit/537.36 (KHTML, like Gecko) Chrome/138.0.0.0 Safari/537.36","WebKit","Chrome","138.0.0.0","Windows","10.0","https://app.prolific.com/","en-US,en;q=0.9","67c7672373207a4fb29efe7f","683db9eb0562dbf637994deb","688081491347ce3568dfec62","2","1","67c7672373207a4fb29efe7f","2","1","2025-07-23T06:49:24.048Z","","","","","","","","","","","ControlQ","","50","","","","","","","","","","","","","","","","","","","","","","","","","","","","",""
"6319","","<div style=""width:500px;"">
  <p>How would you describe your current emotional state?</p>
  </div>","28","html-slider-response","52","965662","0.0-5.0-3.8","150","1","2025-07-23 06:33:21","1f75c3e559b7213887762d5229550c2b","41.145.196.124","Mozilla/5.0 (Windows NT 10.0; Win64; x64) AppleWebKit/537.36 (KHTML, like Gecko) Chrome/138.0.0.0 Safari/537.36","WebKit","Chrome","138.0.0.0","Windows","10.0","https://app.prolific.com/","en-US,en;q=0.9","67c7672373207a4fb29efe7f","683db9eb0562dbf637994deb","688081491347ce3568dfec62","2","1","67c7672373207a4fb29efe7f","2","1","2025-07-23T06:49:30.370Z","","","","","","","","","","","StressQ","","50","","","","","","","","","","","","","","","","","","","","","","","","","","","","",""
"6172","","<div style=""width:500px;"">
  <p>What best describes how you currently feel?</p>
  </div>","75","html-slider-response","53","971837","0.0-5.0-4.8","150","1","2025-07-23 06:33:21","1f75c3e559b7213887762d5229550c2b","41.145.196.124","Mozilla/5.0 (Windows NT 10.0; Win64; x64) AppleWebKit/537.36 (KHTML, like Gecko) Chrome/138.0.0.0 Safari/537.36","WebKit","Chrome","138.0.0.0","Windows","10.0","https://app.prolific.com/","en-US,en;q=0.9","67c7672373207a4fb29efe7f","683db9eb0562dbf637994deb","688081491347ce3568dfec62","2","1","67c7672373207a4fb29efe7f","2","1","2025-07-23T06:49:36.545Z","","","","","","","","","","","MotivationQ","","50","","","","","","","","","","","","","","","","","","","","","","","","","","","","",""
"","","","","ctl-task-cpt","54","1050706","0.0-5.0-0.9","150","1","2025-07-23 06:33:21","1f75c3e559b7213887762d5229550c2b","41.145.196.124","Mozilla/5.0 (Windows NT 10.0; Win64; x64) AppleWebKit/537.36 (KHTML, like Gecko) Chrome/138.0.0.0 Safari/537.36","WebKit","Chrome","138.0.0.0","Windows","10.0","https://app.prolific.com/","en-US,en;q=0.9","67c7672373207a4fb29efe7f","683db9eb0562dbf637994deb","688081491347ce3568dfec62","2","1","67c7672373207a4fb29efe7f","2","1","2025-07-23T06:50:55.414Z","","","","","","","","","","","","","","win-only","3","g1:SW,g2:NE","0.4","10","0","978414.6","5476.6","10478.9","75831.6","1","4","4","6","1","-1","-1","15","16","0.11363636363636363","1875.8","3000","-1080","[""down"",""left""]","{""num_key_presses"":16,""num_perfect"":7,""num_errors"":0,""num_randdir"":9,""num_randdir_good_moves"":2,""num_whilered"":0,""num_whileblue"":0,""num_blue"":3,""num_good_moves"":9}","[296.22232142857143,293.12857142857143,1,296.22232142857143,293.12857142857143,118.7,296.22232142857143,293.12857142857143,238.9,296.22232142857143,293.12857142857143,351.5,296.22232142857143,293.12857142857143,466.6,296.22232142857143,293.12857142857143,569.6,296.22232142857143,293.12857142857143,669.7,296.22232142857143,293.12857142857143,777.8,296.22232142857143,293.12857142857143,890.4,296.22232142857143,293.12857142857143,995.9,296.22232142857143,293.12857142857143,1098.2,211.22232142857143,377.12857142857143,1203.3,77.22232142857143,534.1285714285714,1320.2,70.22232142857143,543.1285714285714,1420.4,68.22232142857143,543.1285714285714,1522.5,64.22232142857143,543.1285714285714,1631.8,64.22232142857143,543.1285714285714,1741.3,64.22232142857143,543.1285714285714,1846.6,64.22232142857143,543.1285714285714,1966.4,64.22232142857143,543.1285714285714,2079.7,64.22232142857143,543.1285714285714,2186.7,64.22232142857143,543.1285714285714,2288.9,64.22232142857143,543.1285714285714,2411.7,64.22232142857143,543.1285714285714,2528.9,64.22232142857143,543.1285714285714,2631.3,64.22232142857143,543.1285714285714,2743.6,64.22232142857143,543.1285714285714,2855,64.22232142857143,543.1285714285714,2963.3,64.22232142857143,543.1285714285714,3065.2,64.22232142857143,543.1285714285714,3167.7,64.22232142857143,543.1285714285714,3275.2,64.22232142857143,543.1285714285714,3376.9,64.22232142857143,543.1285714285714,3490.1,64.22232142857143,543.1285714285714,3595.3,64.22232142857143,543.1285714285714,3702.5,64.22232142857143,543.1285714285714,3817.3,64.22232142857143,543.1285714285714,3930.9,64.22232142857143,543.1285714285714,4045.5,64.22232142857143,543.1285714285714,4151.1,64.22232142857143,543.1285714285714,4260.2,64.22232142857143,543.1285714285714,4374.5,64.22232142857143,543.1285714285714,4488.5,64.22232142857143,543.1285714285714,4598.2,64.22232142857143,543.1285714285714,4716.4,64.22232142857143,543.1285714285714,4839.8,64.22232142857143,543.1285714285714,4959.4]","[2225.3,2225.3,1000,0,1225.3,""oops"",""down"",""down"",""good_move"",5694.7,3467.6,2810.1,2227.1,657.5,""smooth"",""left"",""left"",""good_move"",8946.2,3249.4,2517.8,5696.8,731.6,""smooth"",""left"",""left"",""good_move"",12594.7,3647.2,2820.6,8947.6,826.5,""oops"",""down"",""right"",""bad_move"",20026.8,7430.4,2955.9,16510.6,560.4,""smooth"",""down"",""down"",""good_move"",22584.6,2555.1,2066.2,20029.5,488.9,""oops"",""left"",""right"",""bad_move"",33268.1,10682.4,2679.2,29991.3,597.6,""oops"",""left"",""right"",""bad_move"",35785.4,2516.1,1967,33269.4,549,""oops"",""left"",""up"",""bad_move"",39171.1,3382.8,2593,35788.4,789.7,""oops"",""left"",""down"",""good_move"",42212.6,3038.7,2348.2,39173.9,690.5,""smooth"",""left"",""left"",""good_move"",45740.8,3526.7,2871,42214.1,655.7,""oops"",""left"",""right"",""bad_move"",49392.2,3650.2,2536.4,45742,1113.8,""oops"",""left"",""right"",""bad_move"",52321.6,2928.2,2441.5,49393.6,486.5,""smooth"",""left"",""left"",""good_move"",55934.1,3609.5,3053.8,52324.7,555.6,""smooth"",""left"",""left"",""good_move"",59611.9,3676.6,2439.6,55935.4,1237,""smooth"",""left"",""left"",""good_move"",62816.1,3202.8,2656.2,59613.3,546.6,""oops"",""left"",""right"",""bad_move""]","",""
"7968","","<div style=""width:500px;"">
  <p>What determined the result of this run?</p>
  </div>","40","html-slider-response","55","1058677","0.0-5.0-1.9","150","1","2025-07-23 06:33:21","1f75c3e559b7213887762d5229550c2b","41.145.196.124","Mozilla/5.0 (Windows NT 10.0; Win64; x64) AppleWebKit/537.36 (KHTML, like Gecko) Chrome/138.0.0.0 Safari/537.36","WebKit","Chrome","138.0.0.0","Windows","10.0","https://app.prolific.com/","en-US,en;q=0.9","67c7672373207a4fb29efe7f","683db9eb0562dbf637994deb","688081491347ce3568dfec62","2","1","67c7672373207a4fb29efe7f","2","1","2025-07-23T06:51:03.386Z","","","","","","","","","","","AttribQ","","50","","","","","","","","","","","","","","","","","","","","","","","","","","","","",""
"4118","","<div style=""width:500px;"">
  <p>How much control did you have over the ball?</p>
  </div>","19","html-slider-response","56","1062798","0.0-5.0-2.9","150","1","2025-07-23 06:33:21","1f75c3e559b7213887762d5229550c2b","41.145.196.124","Mozilla/5.0 (Windows NT 10.0; Win64; x64) AppleWebKit/537.36 (KHTML, like Gecko) Chrome/138.0.0.0 Safari/537.36","WebKit","Chrome","138.0.0.0","Windows","10.0","https://app.prolific.com/","en-US,en;q=0.9","67c7672373207a4fb29efe7f","683db9eb0562dbf637994deb","688081491347ce3568dfec62","2","1","67c7672373207a4fb29efe7f","2","1","2025-07-23T06:51:07.506Z","","","","","","","","","","","ControlQ","","50","","","","","","","","","","","","","","","","","","","","","","","","","","","","",""
"3265","","<div style=""width:500px;"">
  <p>How would you describe your current emotional state?</p>
  </div>","36","html-slider-response","57","1066067","0.0-5.0-3.9","150","1","2025-07-23 06:33:21","1f75c3e559b7213887762d5229550c2b","41.145.196.124","Mozilla/5.0 (Windows NT 10.0; Win64; x64) AppleWebKit/537.36 (KHTML, like Gecko) Chrome/138.0.0.0 Safari/537.36","WebKit","Chrome","138.0.0.0","Windows","10.0","https://app.prolific.com/","en-US,en;q=0.9","67c7672373207a4fb29efe7f","683db9eb0562dbf637994deb","688081491347ce3568dfec62","2","1","67c7672373207a4fb29efe7f","2","1","2025-07-23T06:51:10.775Z","","","","","","","","","","","StressQ","","50","","","","","","","","","","","","","","","","","","","","","","","","","","","","",""
"5607","","<div style=""width:500px;"">
  <p>What best describes how you currently feel?</p>
  </div>","63","html-slider-response","58","1071677","0.0-5.0-4.9","150","1","2025-07-23 06:33:21","1f75c3e559b7213887762d5229550c2b","41.145.196.124","Mozilla/5.0 (Windows NT 10.0; Win64; x64) AppleWebKit/537.36 (KHTML, like Gecko) Chrome/138.0.0.0 Safari/537.36","WebKit","Chrome","138.0.0.0","Windows","10.0","https://app.prolific.com/","en-US,en;q=0.9","67c7672373207a4fb29efe7f","683db9eb0562dbf637994deb","688081491347ce3568dfec62","2","1","67c7672373207a4fb29efe7f","2","1","2025-07-23T06:51:16.385Z","","","","","","","","","","","MotivationQ","","50","","","","","","","","","","","","","","","","","","","","","","","","","","","","",""
"","","","","ctl-task-cpt","59","1159933","0.0-5.0-0.10","150","1","2025-07-23 06:33:21","1f75c3e559b7213887762d5229550c2b","41.145.196.124","Mozilla/5.0 (Windows NT 10.0; Win64; x64) AppleWebKit/537.36 (KHTML, like Gecko) Chrome/138.0.0.0 Safari/537.36","WebKit","Chrome","138.0.0.0","Windows","10.0","https://app.prolific.com/","en-US,en;q=0.9","67c7672373207a4fb29efe7f","683db9eb0562dbf637994deb","688081491347ce3568dfec62","2","1","67c7672373207a4fb29efe7f","2","1","2025-07-23T06:52:44.642Z","","","","","","","","","","","","","","win-only","2","g1:SE,g2:NW","0.5","11","0","1078254.7","1437.7","6442.1","85235.5","1","4","8","6","2","-8","-8","7","15","0.05303030303030303","1755.1","3000","-1015","[""left"",""up""]","{""num_key_presses"":18,""num_perfect"":8,""num_errors"":0,""num_randdir"":10,""num_randdir_good_moves"":3,""num_whilered"":0,""num_whileblue"":0,""num_blue"":5,""num_good_moves"":11}","[290.22232142857143,292.12857142857143,0.8,290.22232142857143,292.12857142857143,118.3,290.22232142857143,292.12857142857143,222.8,290.22232142857143,292.12857142857143,346.4,290.22232142857143,292.12857142857143,451.2,290.22232142857143,292.12857142857143,552.2,263.22232142857143,256.12857142857143,667.3,259.22232142857143,248.12857142857143,779.2,295.22232142857143,258.12857142857143,900.8,196.22232142857143,163.12857142857143,1017.3,133.22232142857143,100.12857142857143,1131.1,129.22232142857143,93.12857142857143,1250.3,86.22232142857143,64.12857142857143,1366.2,49.222321428571426,50.128571428571426,1467.3,45.222321428571426,49.128571428571426,1589.9,45.222321428571426,49.128571428571426,1705.7,45.222321428571426,49.128571428571426,1817.2,45.222321428571426,49.128571428571426,1923.2,45.222321428571426,49.128571428571426,2044,45.222321428571426,49.128571428571426,2172.2,45.222321428571426,49.128571428571426,2293.3,45.222321428571426,49.128571428571426,2396.9,45.222321428571426,49.128571428571426,2517,45.222321428571426,49.128571428571426,2621.1,45.222321428571426,49.128571428571426,2731.7,45.222321428571426,49.128571428571426,2835.9,45.222321428571426,49.128571428571426,2940.4,45.222321428571426,49.128571428571426,3154.9,45.222321428571426,49.128571428571426,3257.2,45.222321428571426,49.128571428571426,3365.2,45.222321428571426,49.128571428571426,3470.4,45.222321428571426,49.128571428571426,3642.8,45.222321428571426,49.128571428571426,3745.8,45.222321428571426,49.128571428571426,3858.4,45.222321428571426,49.128571428571426,3965,45.222321428571426,49.128571428571426,4152.7,45.222321428571426,49.128571428571426,4257.1,45.222321428571426,49.128571428571426,4358.8,45.222321428571426,49.128571428571426,4462.1,45.222321428571426,49.128571428571426,4590.3,45.222321428571426,49.128571428571426,4694.6,45.222321428571426,49.128571428571426,4833,45.222321428571426,49.128571428571426,4938.3]","[1882.2,1882.2,1000,0,882.2,""smooth"",""up"",""up"",""good_move"",5478.8,3594.5,2390.2,1884.3,1204.3,""oops"",""left"",""down"",""bad_move"",8647.2,3166.9,2498,5480.3,668.9,""smooth"",""left"",""left"",""good_move"",11716.2,3067.1,2338.7,8649.1,728.5,""smooth"",""left"",""left"",""good_move"",15160.7,3443.3,2287.1,11717.5,1156.1,""smooth"",""left"",""left"",""good_move"",18608.1,3446.3,2304,15161.8,1142.3,""oops"",""up"",""down"",""bad_move"",25025.9,6416.7,2510,21841.6,674.4,""oops"",""up"",""right"",""bad_move"",28624.4,3597.3,3056.3,25027.1,541,""oops"",""up"",""right"",""bad_move"",32046.6,3421,2948.3,28625.7,472.6,""oops"",""up"",""down"",""bad_move"",35696,3647.9,3188.8,32048.1,459.1,""smooth"",""up"",""up"",""good_move"",38963.5,3266.1,1949.2,35697.4,1316.9,""smooth"",""up"",""up"",""good_move"",45872.1,6905.8,2726.8,42622.6,522.8,""smooth"",""up"",""up"",""good_move"",49316,3441.9,2884.3,45874.1,557.6,""oops"",""up"",""right"",""bad_move"",52237.3,2919.6,2374.5,49317.7,545.1,""oops"",""up"",""left"",""good_move"",59633.8,7394.8,2828.1,56261.4,544.4,""oops"",""up"",""left"",""good_move"",62560.1,2925.6,2159.9,59634.7,765.6,""smooth"",""up"",""up"",""good_move"",73304.4,10742.6,3328.5,69424.6,551.3,""oops"",""up"",""up"",""good_move"",76364.8,3058.5,2334.8,73306.3,723.7,""oops"",""left"",""right"",""bad_move""]","",""
"3119","","<div style=""width:500px;"">
  <p>What determined the result of this run?</p>
  </div>","32","html-slider-response","60","1163058","0.0-5.0-1.10","150","1","2025-07-23 06:33:21","1f75c3e559b7213887762d5229550c2b","41.145.196.124","Mozilla/5.0 (Windows NT 10.0; Win64; x64) AppleWebKit/537.36 (KHTML, like Gecko) Chrome/138.0.0.0 Safari/537.36","WebKit","Chrome","138.0.0.0","Windows","10.0","https://app.prolific.com/","en-US,en;q=0.9","67c7672373207a4fb29efe7f","683db9eb0562dbf637994deb","688081491347ce3568dfec62","2","1","67c7672373207a4fb29efe7f","2","1","2025-07-23T06:52:47.767Z","","","","","","","","","","","AttribQ","","50","","","","","","","","","","","","","","","","","","","","","","","","","","","","",""
"3257","","<div style=""width:500px;"">
  <p>How much control did you have over the ball?</p>
  </div>","2","html-slider-response","61","1166319","0.0-5.0-2.10","150","1","2025-07-23 06:33:21","1f75c3e559b7213887762d5229550c2b","41.145.196.124","Mozilla/5.0 (Windows NT 10.0; Win64; x64) AppleWebKit/537.36 (KHTML, like Gecko) Chrome/138.0.0.0 Safari/537.36","WebKit","Chrome","138.0.0.0","Windows","10.0","https://app.prolific.com/","en-US,en;q=0.9","67c7672373207a4fb29efe7f","683db9eb0562dbf637994deb","688081491347ce3568dfec62","2","1","67c7672373207a4fb29efe7f","2","1","2025-07-23T06:52:51.028Z","","","","","","","","","","","ControlQ","","50","","","","","","","","","","","","","","","","","","","","","","","","","","","","",""
"4642","","<div style=""width:500px;"">
  <p>How would you describe your current emotional state?</p>
  </div>","70","html-slider-response","62","1170966","0.0-5.0-3.10","150","1","2025-07-23 06:33:21","1f75c3e559b7213887762d5229550c2b","41.145.196.124","Mozilla/5.0 (Windows NT 10.0; Win64; x64) AppleWebKit/537.36 (KHTML, like Gecko) Chrome/138.0.0.0 Safari/537.36","WebKit","Chrome","138.0.0.0","Windows","10.0","https://app.prolific.com/","en-US,en;q=0.9","67c7672373207a4fb29efe7f","683db9eb0562dbf637994deb","688081491347ce3568dfec62","2","1","67c7672373207a4fb29efe7f","2","1","2025-07-23T06:52:55.675Z","","","","","","","","","","","StressQ","","50","","","","","","","","","","","","","","","","","","","","","","","","","","","","",""
"4189","","<div style=""width:500px;"">
  <p>What best describes how you currently feel?</p>
  </div>","23","html-slider-response","63","1175161","0.0-5.0-4.10","150","1","2025-07-23 06:33:21","1f75c3e559b7213887762d5229550c2b","41.145.196.124","Mozilla/5.0 (Windows NT 10.0; Win64; x64) AppleWebKit/537.36 (KHTML, like Gecko) Chrome/138.0.0.0 Safari/537.36","WebKit","Chrome","138.0.0.0","Windows","10.0","https://app.prolific.com/","en-US,en;q=0.9","67c7672373207a4fb29efe7f","683db9eb0562dbf637994deb","688081491347ce3568dfec62","2","1","67c7672373207a4fb29efe7f","2","1","2025-07-23T06:52:59.869Z","","","","","","","","","","","MotivationQ","","50","","","","","","","","","","","","","","","","","","","","","","","","","","","","",""
"","","","","ctl-task-cpt","64","1242070","0.0-5.0-0.11","150","1","2025-07-23 06:33:21","1f75c3e559b7213887762d5229550c2b","41.145.196.124","Mozilla/5.0 (Windows NT 10.0; Win64; x64) AppleWebKit/537.36 (KHTML, like Gecko) Chrome/138.0.0.0 Safari/537.36","WebKit","Chrome","138.0.0.0","Windows","10.0","https://app.prolific.com/","en-US,en;q=0.9","67c7672373207a4fb29efe7f","683db9eb0562dbf637994deb","688081491347ce3568dfec62","2","1","67c7672373207a4fb29efe7f","2","1","2025-07-23T06:54:06.778Z","","","","","","","","","","","","","","win-only","1","g1:NE,g2:SW","0.6","12","0","1181736.9","4355.7","9359.6","63832.5","1","4","4","6","1","1","1","8","7","0.06060606060606061","1896","3000","2590","[""up"",""right""]","{""num_key_presses"":6,""num_perfect"":5,""num_errors"":0,""num_randdir"":1,""num_randdir_good_moves"":0,""num_whilered"":0,""num_whileblue"":0,""num_blue"":5,""num_good_moves"":5}","[297.22232142857143,293.12857142857143,1.6,297.22232142857143,293.12857142857143,118.5,297.22232142857143,293.12857142857143,234.3,297.22232142857143,293.12857142857143,348.5,297.22232142857143,293.12857142857143,471.4,297.22232142857143,293.12857142857143,574.4,297.22232142857143,293.12857142857143,679.5,297.22232142857143,293.12857142857143,784.7,294.22232142857143,300.12857142857143,911.1,238.22232142857143,359.12857142857143,1033.1,387.22232142857143,220.12857142857143,1158.2,513.2223214285714,41.128571428571426,1270.1,513.2223214285714,41.128571428571426,1374.4,513.2223214285714,41.128571428571426,1474.9,513.2223214285714,41.128571428571426,1576.9,513.2223214285714,41.128571428571426,1697.8,513.2223214285714,41.128571428571426,1798.5,513.2223214285714,41.128571428571426,1920.1,513.2223214285714,41.128571428571426,2044.1,513.2223214285714,41.128571428571426,2154.6,513.2223214285714,41.128571428571426,2279.2,513.2223214285714,41.128571428571426,2382.3,513.2223214285714,41.128571428571426,2485.3,513.2223214285714,41.128571428571426,2601.8,513.2223214285714,41.128571428571426,2712.6,513.2223214285714,41.128571428571426,2815.7,513.2223214285714,41.128571428571426,2917.8,513.2223214285714,41.128571428571426,3031.2,513.2223214285714,41.128571428571426,3134.7,513.2223214285714,41.128571428571426,3237,513.2223214285714,41.128571428571426,3337.3,513.2223214285714,41.128571428571426,3439.7,513.2223214285714,41.128571428571426,3553.3,513.2223214285714,41.128571428571426,3666,513.2223214285714,41.128571428571426,3773,513.2223214285714,41.128571428571426,3877.1,513.2223214285714,41.128571428571426,3995.4,513.2223214285714,41.128571428571426,4112.2,513.2223214285714,41.128571428571426,4222,513.2223214285714,41.128571428571426,4338.3,513.2223214285714,41.128571428571426,4464.6,513.2223214285714,41.128571428571426,4566.8,513.2223214285714,41.128571428571426,4668,513.2223214285714,41.128571428571426,4785.9,513.2223214285714,41.128571428571426,4894.4]","[4497.9,4497.9,1852.9,2013.6,631.4,""smooth"",""up"",""up"",""good_move"",19153.7,14654.5,3288.1,15209.3,656.3,""smooth"",""up"",""up"",""good_move"",31314.3,12159.9,3387.8,27301.8,624.7,""smooth"",""right"",""right"",""good_move"",38088.5,6773.1,2914.4,34462.5,711.6,""oops"",""right"",""left"",""bad_move"",49564.6,11474.9,2429.4,38089.7,9045.5,""smooth"",""right"",""right"",""good_move"",52840.6,3275.3,2095.4,49565.3,1179.9,""smooth"",""right"",""right"",""good_move""]","",""
"4224","","<div style=""width:500px;"">
  <p>What determined the result of this run?</p>
  </div>","22","html-slider-response","65","1246300","0.0-5.0-1.11","150","1","2025-07-23 06:33:21","1f75c3e559b7213887762d5229550c2b","41.145.196.124","Mozilla/5.0 (Windows NT 10.0; Win64; x64) AppleWebKit/537.36 (KHTML, like Gecko) Chrome/138.0.0.0 Safari/537.36","WebKit","Chrome","138.0.0.0","Windows","10.0","https://app.prolific.com/","en-US,en;q=0.9","67c7672373207a4fb29efe7f","683db9eb0562dbf637994deb","688081491347ce3568dfec62","2","1","67c7672373207a4fb29efe7f","2","1","2025-07-23T06:54:11.008Z","","","","","","","","","","","AttribQ","","50","","","","","","","","","","","","","","","","","","","","","","","","","","","","",""
"4364","","<div style=""width:500px;"">
  <p>How much control did you have over the ball?</p>
  </div>","27","html-slider-response","66","1250671","0.0-5.0-2.11","150","1","2025-07-23 06:33:21","1f75c3e559b7213887762d5229550c2b","41.145.196.124","Mozilla/5.0 (Windows NT 10.0; Win64; x64) AppleWebKit/537.36 (KHTML, like Gecko) Chrome/138.0.0.0 Safari/537.36","WebKit","Chrome","138.0.0.0","Windows","10.0","https://app.prolific.com/","en-US,en;q=0.9","67c7672373207a4fb29efe7f","683db9eb0562dbf637994deb","688081491347ce3568dfec62","2","1","67c7672373207a4fb29efe7f","2","1","2025-07-23T06:54:15.379Z","","","","","","","","","","","ControlQ","","50","","","","","","","","","","","","","","","","","","","","","","","","","","","","",""
"3823","","<div style=""width:500px;"">
  <p>How would you describe your current emotional state?</p>
  </div>","36","html-slider-response","67","1254501","0.0-5.0-3.11","150","1","2025-07-23 06:33:21","1f75c3e559b7213887762d5229550c2b","41.145.196.124","Mozilla/5.0 (Windows NT 10.0; Win64; x64) AppleWebKit/537.36 (KHTML, like Gecko) Chrome/138.0.0.0 Safari/537.36","WebKit","Chrome","138.0.0.0","Windows","10.0","https://app.prolific.com/","en-US,en;q=0.9","67c7672373207a4fb29efe7f","683db9eb0562dbf637994deb","688081491347ce3568dfec62","2","1","67c7672373207a4fb29efe7f","2","1","2025-07-23T06:54:19.209Z","","","","","","","","","","","StressQ","","50","","","","","","","","","","","","","","","","","","","","","","","","","","","","",""
"2637","","<div style=""width:500px;"">
  <p>What best describes how you currently feel?</p>
  </div>","79","html-slider-response","68","1257144","0.0-5.0-4.11","150","1","2025-07-23 06:33:21","1f75c3e559b7213887762d5229550c2b","41.145.196.124","Mozilla/5.0 (Windows NT 10.0; Win64; x64) AppleWebKit/537.36 (KHTML, like Gecko) Chrome/138.0.0.0 Safari/537.36","WebKit","Chrome","138.0.0.0","Windows","10.0","https://app.prolific.com/","en-US,en;q=0.9","67c7672373207a4fb29efe7f","683db9eb0562dbf637994deb","688081491347ce3568dfec62","2","1","67c7672373207a4fb29efe7f","2","1","2025-07-23T06:54:21.853Z","","","","","","","","","","","MotivationQ","","50","","","","","","","","","","","","","","","","","","","","","","","","","","","","",""
"","","","","ctl-task-cpt","69","1368690","0.0-5.0-0.12","150","1","2025-07-23 06:33:21","1f75c3e559b7213887762d5229550c2b","41.145.196.124","Mozilla/5.0 (Windows NT 10.0; Win64; x64) AppleWebKit/537.36 (KHTML, like Gecko) Chrome/138.0.0.0 Safari/537.36","WebKit","Chrome","138.0.0.0","Windows","10.0","https://app.prolific.com/","en-US,en;q=0.9","67c7672373207a4fb29efe7f","683db9eb0562dbf637994deb","688081491347ce3568dfec62","2","1","67c7672373207a4fb29efe7f","2","1","2025-07-23T06:56:13.398Z","","","","","","","","","","","","","","win-only","0","g1:NW,g2:SE","0.7","13","0","1263723.1","2395.9","7445.1","108411.2","1","4","4","6","1","1","1","9","8","0.06818181818181818","2515.1","3000","2570","[""left"",""up""]","{""num_key_presses"":9,""num_perfect"":6,""num_errors"":0,""num_randdir"":3,""num_randdir_good_moves"":0,""num_whilered"":0,""num_whileblue"":0,""num_blue"":2,""num_good_moves"":6}","[296.22232142857143,293.12857142857143,1.3,296.22232142857143,293.12857142857143,155.9,296.22232142857143,293.12857142857143,309.1,296.22232142857143,293.12857142857143,460.3,296.22232142857143,293.12857142857143,611.5,296.22232142857143,293.12857142857143,753.5,296.22232142857143,293.12857142857143,894.8,351.22232142857143,339.12857142857143,1060.1,491.22232142857143,500.12857142857143,1234.5,484.22232142857143,496.12857142857143,1397.6,174.22232142857143,229.12857142857143,1584.3,122.22232142857143,157.12857142857143,1765.2,88.22232142857143,108.12857142857143,1917.9,88.22232142857143,108.12857142857143,2071.4,72.22232142857143,76.12857142857143,2247.3,72.22232142857143,76.12857142857143,2395.2,72.22232142857143,76.12857142857143,2562.2,72.22232142857143,76.12857142857143,2719.9,72.22232142857143,76.12857142857143,2872.6,72.22232142857143,76.12857142857143,3023.8,72.22232142857143,76.12857142857143,3177.3,179.22232142857143,155.12857142857143,3361,180.22232142857143,156.12857142857143,3514.1,180.22232142857143,156.12857142857143,3672.9,180.22232142857143,156.12857142857143,3825.5,180.22232142857143,156.12857142857143,3977.2,180.22232142857143,156.12857142857143,4125.2,180.22232142857143,156.12857142857143,4278.9,180.22232142857143,156.12857142857143,4429,180.22232142857143,156.12857142857143,4585.6,180.22232142857143,156.12857142857143,4741.4,180.22232142857143,156.12857142857143,4896]","[5784.5,5784.6,2634.5,2046.5,1103.6,""smooth"",""up"",""up"",""good_move"",18957,13171.6,2850.3,5785.5,10321.3,""smooth"",""up"",""up"",""good_move"",32467.5,13509.8,2475.9,18957.8,11033.8,""oops"",""left"",""right"",""bad_move"",35764.6,3296.5,1341.6,32468.1,1954.9,""smooth"",""left"",""left"",""good_move"",49472.1,13706.6,2299.2,35765.5,11407.4,""smooth"",""left"",""left"",""good_move"",70916.6,21443.1,2442.4,67542,932.3,""oops"",""left"",""right"",""bad_move"",74523.4,3605.2,2792.8,70918.2,812.4,""oops"",""left"",""right"",""bad_move"",77072.4,2547.4,1812.8,74525,734.6,""smooth"",""left"",""left"",""good_move"",97924.3,20851.1,1796.9,77073.3,19054.1,""smooth"",""left"",""left"",""good_move""]","",""
"6445","","<div style=""width:500px;"">
  <p>What determined the result of this run?</p>
  </div>","81","html-slider-response","70","1375145","0.0-5.0-1.12","150","1","2025-07-23 06:33:21","1f75c3e559b7213887762d5229550c2b","41.145.196.124","Mozilla/5.0 (Windows NT 10.0; Win64; x64) AppleWebKit/537.36 (KHTML, like Gecko) Chrome/138.0.0.0 Safari/537.36","WebKit","Chrome","138.0.0.0","Windows","10.0","https://app.prolific.com/","en-US,en;q=0.9","67c7672373207a4fb29efe7f","683db9eb0562dbf637994deb","688081491347ce3568dfec62","2","1","67c7672373207a4fb29efe7f","2","1","2025-07-23T06:56:19.854Z","","","","","","","","","","","AttribQ","","50","","","","","","","","","","","","","","","","","","","","","","","","","","","","",""
"4240","","<div style=""width:500px;"">
  <p>How much control did you have over the ball?</p>
  </div>","46","html-slider-response","71","1379398","0.0-5.0-2.12","150","1","2025-07-23 06:33:21","1f75c3e559b7213887762d5229550c2b","41.145.196.124","Mozilla/5.0 (Windows NT 10.0; Win64; x64) AppleWebKit/537.36 (KHTML, like Gecko) Chrome/138.0.0.0 Safari/537.36","WebKit","Chrome","138.0.0.0","Windows","10.0","https://app.prolific.com/","en-US,en;q=0.9","67c7672373207a4fb29efe7f","683db9eb0562dbf637994deb","688081491347ce3568dfec62","2","1","67c7672373207a4fb29efe7f","2","1","2025-07-23T06:56:24.106Z","","","","","","","","","","","ControlQ","","50","","","","","","","","","","","","","","","","","","","","","","","","","","","","",""
"3121","","<div style=""width:500px;"">
  <p>How would you describe your current emotional state?</p>
  </div>","22","html-slider-response","72","1382530","0.0-5.0-3.12","150","1","2025-07-23 06:33:21","1f75c3e559b7213887762d5229550c2b","41.145.196.124","Mozilla/5.0 (Windows NT 10.0; Win64; x64) AppleWebKit/537.36 (KHTML, like Gecko) Chrome/138.0.0.0 Safari/537.36","WebKit","Chrome","138.0.0.0","Windows","10.0","https://app.prolific.com/","en-US,en;q=0.9","67c7672373207a4fb29efe7f","683db9eb0562dbf637994deb","688081491347ce3568dfec62","2","1","67c7672373207a4fb29efe7f","2","1","2025-07-23T06:56:27.238Z","","","","","","","","","","","StressQ","","50","","","","","","","","","","","","","","","","","","","","","","","","","","","","",""
"4359","","<div style=""width:500px;"">
  <p>What best describes how you currently feel?</p>
  </div>","64","html-slider-response","73","1386901","0.0-5.0-4.12","150","1","2025-07-23 06:33:21","1f75c3e559b7213887762d5229550c2b","41.145.196.124","Mozilla/5.0 (Windows NT 10.0; Win64; x64) AppleWebKit/537.36 (KHTML, like Gecko) Chrome/138.0.0.0 Safari/537.36","WebKit","Chrome","138.0.0.0","Windows","10.0","https://app.prolific.com/","en-US,en;q=0.9","67c7672373207a4fb29efe7f","683db9eb0562dbf637994deb","688081491347ce3568dfec62","2","1","67c7672373207a4fb29efe7f","2","1","2025-07-23T06:56:31.609Z","","","","","","","","","","","MotivationQ","","50","","","","","","","","","","","","","","","","","","","","","","","","","","","","",""
"","","","","ctl-task-cpt","74","1527824","0.0-5.0-0.13","150","1","2025-07-23 06:33:21","1f75c3e559b7213887762d5229550c2b","41.145.196.124","Mozilla/5.0 (Windows NT 10.0; Win64; x64) AppleWebKit/537.36 (KHTML, like Gecko) Chrome/138.0.0.0 Safari/537.36","WebKit","Chrome","138.0.0.0","Windows","10.0","https://app.prolific.com/","en-US,en;q=0.9","67c7672373207a4fb29efe7f","683db9eb0562dbf637994deb","688081491347ce3568dfec62","2","1","67c7672373207a4fb29efe7f","2","1","2025-07-23T06:58:52.533Z","","","","","","","","","","","","","","win-only","2","g1:SE,g2:NW","0.8","14","0","1393482.8","1981.3","7071.4","137766.7","1","4","8","6","2","8","8","17","9","0.12878787878787878","1673.2","3000","2750","[""left"",""up""]","{""num_key_presses"":6,""num_perfect"":6,""num_errors"":0,""num_randdir"":0,""num_randdir_good_moves"":0,""num_whilered"":0,""num_whileblue"":0,""num_blue"":1,""num_good_moves"":6}","[293.22232142857143,293.12857142857143,0.7,293.22232142857143,293.12857142857143,169.4,293.22232142857143,293.12857142857143,311.1,293.22232142857143,293.12857142857143,450.6,293.22232142857143,293.12857142857143,592.1,293.22232142857143,293.12857142857143,727.6,166.22232142857143,119.12857142857143,887.7,103.22232142857143,62.128571428571426,1027.6,103.22232142857143,62.128571428571426,1172.2,64.22232142857143,49.128571428571426,1334.2,59.222321428571426,49.128571428571426,1477.4,59.222321428571426,49.128571428571426,1618.6,59.222321428571426,49.128571428571426,1765.9,59.222321428571426,49.128571428571426,1908.3,59.222321428571426,49.128571428571426,2042.1,59.222321428571426,49.128571428571426,2182.3,59.222321428571426,49.128571428571426,2315.1,59.222321428571426,49.128571428571426,2447.2,63.222321428571426,51.128571428571426,2592.8,65.22232142857143,51.128571428571426,2732.4,65.22232142857143,51.128571428571426,2868.8,65.22232142857143,51.128571428571426,3005.5,65.22232142857143,51.128571428571426,3145.6,65.22232142857143,51.128571428571426,3287.2,65.22232142857143,51.128571428571426,3427.8,65.22232142857143,51.128571428571426,3564.4,65.22232142857143,51.128571428571426,3699.7,65.22232142857143,51.128571428571426,3837.1,65.22232142857143,51.128571428571426,3972.9,65.22232142857143,51.128571428571426,4109.5,65.22232142857143,51.128571428571426,4249,65.22232142857143,51.128571428571426,4397.6,65.22232142857143,51.128571428571426,4535.8,65.22232142857143,51.128571428571426,4677.8,65.22232142857143,51.128571428571426,4816.1,65.22232142857143,51.128571428571426,4953]","[2338.3,2338.3,1000,0,1338.3,""smooth"",""left"",""left"",""good_move"",25854.3,23515.1,2222.9,2339.2,21292.2,""smooth"",""up"",""up"",""good_move"",50061.1,24205.9,2447,25855.2,21758.9,""smooth"",""up"",""up"",""good_move"",79008.9,28947.2,3056.4,74462.7,1489.8,""smooth"",""up"",""up"",""good_move"",103657.4,24647.8,2028.8,79009.6,22619,""smooth"",""left"",""left"",""good_move"",128134.6,24476.4,1454.9,103658.2,23021.5,""smooth"",""left"",""left"",""good_move""]","",""
"4533","","<div style=""width:500px;"">
  <p>What determined the result of this run?</p>
  </div>","74","html-slider-response","75","1532368","0.0-5.0-1.13","150","1","2025-07-23 06:33:21","1f75c3e559b7213887762d5229550c2b","41.145.196.124","Mozilla/5.0 (Windows NT 10.0; Win64; x64) AppleWebKit/537.36 (KHTML, like Gecko) Chrome/138.0.0.0 Safari/537.36","WebKit","Chrome","138.0.0.0","Windows","10.0","https://app.prolific.com/","en-US,en;q=0.9","67c7672373207a4fb29efe7f","683db9eb0562dbf637994deb","688081491347ce3568dfec62","2","1","67c7672373207a4fb29efe7f","2","1","2025-07-23T06:58:57.076Z","","","","","","","","","","","AttribQ","","50","","","","","","","","","","","","","","","","","","","","","","","","","","","","",""
"2448","","<div style=""width:500px;"">
  <p>How much control did you have over the ball?</p>
  </div>","34","html-slider-response","76","1534828","0.0-5.0-2.13","150","1","2025-07-23 06:33:21","1f75c3e559b7213887762d5229550c2b","41.145.196.124","Mozilla/5.0 (Windows NT 10.0; Win64; x64) AppleWebKit/537.36 (KHTML, like Gecko) Chrome/138.0.0.0 Safari/537.36","WebKit","Chrome","138.0.0.0","Windows","10.0","https://app.prolific.com/","en-US,en;q=0.9","67c7672373207a4fb29efe7f","683db9eb0562dbf637994deb","688081491347ce3568dfec62","2","1","67c7672373207a4fb29efe7f","2","1","2025-07-23T06:58:59.536Z","","","","","","","","","","","ControlQ","","50","","","","","","","","","","","","","","","","","","","","","","","","","","","","",""
"2359","","<div style=""width:500px;"">
  <p>How would you describe your current emotional state?</p>
