"rt","response_timestamp","stimulus","response","trial_type","trial_index","time_elapsed","internal_node_id","run_id","condition","recorded_at","source_code_version","ip","user_agent","device","browser","browser_version","platform","platform_version","referer","accept_language","PROLIFIC_PID","STUDY_ID","SESSION_ID","WEEK","BATCH","prolific_id","week","batch","realtime","success","responses","item_order","radio_event_ids","radio_event_times","key_event_times","mouse_event_times","straightlining","zigzagging","honeypot","eventType","view_history","slider_start","which_type","canvas_config","goals_layout","control_level","trial_number","tutorial_trial_number","trial_start_time","phase1_start_time","phase2_start_time","phase3_start_time","goal_1_value","goal_1_distance","goal_2_value","goal_2_distance","goal_selected","outcome","outcome_total","participant_final_score","participant_initial_score","participant_final_score_prop","goal_choice_rt","allocated_time","allocated_time_remaining","goal_direction","counts","mouse_movements","key_presses","question_order","question_id"
"1773","1752654664636","<p style='font-size:40px;line-height:1.25'><strong>Welcome to the experiment!</strong></p><p style='font-size:1.1em;line-height:1.25'>Thank you for participanting in our experiment again! You will be asked to play the Dysfunctional Ball Game again. We will briefly recap the rules before we start.</p><p style='font-size:1.1em;line-height:1.25'>Press <strong>Next</strong> to continue.</p>","0","custom-html-button-response","0","1778","0.0-0.0","68","1","2025-07-16 08:31:01","1f75c3e559b7213887762d5229550c2b","2.84.221.131","Mozilla/5.0 (Windows NT 10.0; Win64; x64) AppleWebKit/537.36 (KHTML, like Gecko) Chrome/138.0.0.0 Safari/537.36","WebKit","Chrome","138.0.0.0","Windows","10.0","https://app.prolific.com/","en-GB,en;q=0.9,bg-BG;q=0.8,bg;q=0.7,en-US;q=0.6","615d8873c11a1982c8838b54","68764874ac79eee8c1d4cb03","687762f94221ce2e205f30e2","2","0","615d8873c11a1982c8838b54","2","0","2025-07-16T08:31:04.638Z","","","","","","","","","","","","","","","","","","","","","","","","","","","","","","","","","","","","","","","","","",""
"57446","","","","fullscreen","1","60242","0.0-1.0","68","1","2025-07-16 08:31:01","1f75c3e559b7213887762d5229550c2b","2.84.221.131","Mozilla/5.0 (Windows NT 10.0; Win64; x64) AppleWebKit/537.36 (KHTML, like Gecko) Chrome/138.0.0.0 Safari/537.36","WebKit","Chrome","138.0.0.0","Windows","10.0","https://app.prolific.com/","en-GB,en;q=0.9,bg-BG;q=0.8,bg;q=0.7,en-US;q=0.6","615d8873c11a1982c8838b54","68764874ac79eee8c1d4cb03","687762f94221ce2e205f30e2","2","0","615d8873c11a1982c8838b54","2","0","","true","","","","","","","","","","","","","","","","","","","","","","","","","","","","","","","","","","","","","","","","",""
"1491","1752654724595","<p style='font-size:1.1em;line-height:1.25'>In the following, we will ask you a few questions relating to your feelings in the last 24 hours.<br></p><p style='font-size:1.1em;line-height:1.25'>Press the <strong>Next</strong> button to continue.</p>","0","custom-html-button-response","2","61737","0.0-2.0-0.0","68","1","2025-07-16 08:31:01","1f75c3e559b7213887762d5229550c2b","2.84.221.131","Mozilla/5.0 (Windows NT 10.0; Win64; x64) AppleWebKit/537.36 (KHTML, like Gecko) Chrome/138.0.0.0 Safari/537.36","WebKit","Chrome","138.0.0.0","Windows","10.0","https://app.prolific.com/","en-GB,en;q=0.9,bg-BG;q=0.8,bg;q=0.7,en-US;q=0.6","615d8873c11a1982c8838b54","68764874ac79eee8c1d4cb03","687762f94221ce2e205f30e2","2","0","615d8873c11a1982c8838b54","2","0","2025-07-16T08:32:04.597Z","","","","","","","","","","","","","","","","","","","","","","","","","","","","","","","","","","","","","","","","","",""
"158041.20000004768","","","","survey-template","3","219790","0.0-2.0-1.0","68","1","2025-07-16 08:31:01","1f75c3e559b7213887762d5229550c2b","2.84.221.131","Mozilla/5.0 (Windows NT 10.0; Win64; x64) AppleWebKit/537.36 (KHTML, like Gecko) Chrome/138.0.0.0 Safari/537.36","WebKit","Chrome","138.0.0.0","Windows","10.0","https://app.prolific.com/","en-GB,en;q=0.9,bg-BG;q=0.8,bg;q=0.7,en-US;q=0.6","615d8873c11a1982c8838b54","68764874ac79eee8c1d4cb03","687762f94221ce2e205f30e2","2","0","615d8873c11a1982c8838b54","2","0","2025-07-16T08:34:42.649Z","","{""Q01"":""0"",""Q02"":""0"",""Q03"":""0"",""Q04"":""1"",""Q05"":""1"",""Q06"":""0"",""Q07"":""1"",""Q08"":""1"",""Q09"":""0"",""Q10"":""1"",""Q11"":""2"",""Q12"":""0"",""Q13"":""5"",""Q14"":""0"",""Q15"":""1"",""Q16"":""1"",""Q17"":""2"",""Q18"":""0"",""Q19"":""2"",""Q20"":""1"",""Q21"":""1"",""Q22"":""1""}","[0,1,2,3,4,5,6,7,8,9,10,11,12,13,14,15,16,17,18,19,20,21]","[""Q01"",""Q02"",""Q03"",""Q04"",""Q04"",""Q05"",""Q06"",""Q07"",""Q07"",""Q08"",""Q09"",""Q10"",""Q11"",""Q12"",""Q13"",""Q14"",""Q14"",""Q15"",""Q16"",""Q15"",""Q16"",""Q16"",""Q17"",""Q18"",""Q19"",""Q20"",""Q21"",""Q22""]","[78907.30000007153,80009.60000002384,81852.20000004768,83312.80000007153,84714.20000004768,87730.89999997616,97726.30000007153,99062,100676.30000007153,102121.20000004768,104931.70000004768,106965.70000004768,108809.89999997616,111628.39999997616,113495.89999997616,117867.89999997616,120660.60000002384,122572.60000002384,124727.20000004768,129230.39999997616,132831.70000004768,133308.60000002384,138449,140274.20000004768,142893.10000002384,149138.30000007153,153457.70000004768,157015.70000004768]","[]","[0.10000002384185791,78907.30000007153,80009.60000002384,81852.20000004768,83312.80000007153,84714.20000004768,87730.89999997616,97726.30000007153,99062,100676.30000007153,102121.20000004768,104931.70000004768,106965.70000004768,108809.89999997616,111628.39999997616,113495.89999997616,117867.89999997616,120660.60000002384,122572.60000002384,124727.20000004768,129230.39999997616,132831.70000004768,133308.60000002384,138449,140274.20000004768,142893.10000002384,149138.30000007153,153457.70000004768,155934.70000004768,156561.70000004768,157015.70000004768,158034.30000007153]","0.45454545454545453","0.5238095238095238","0","drsp","","","","","","","","","","","","","","","","","","","","","","","","","","","","","","",""
"15204.699999928474","","","","survey-template","4","234999","0.0-2.0-2.0","68","1","2025-07-16 08:31:01","1f75c3e559b7213887762d5229550c2b","2.84.221.131","Mozilla/5.0 (Windows NT 10.0; Win64; x64) AppleWebKit/537.36 (KHTML, like Gecko) Chrome/138.0.0.0 Safari/537.36","WebKit","Chrome","138.0.0.0","Windows","10.0","https://app.prolific.com/","en-GB,en;q=0.9,bg-BG;q=0.8,bg;q=0.7,en-US;q=0.6","615d8873c11a1982c8838b54","68764874ac79eee8c1d4cb03","687762f94221ce2e205f30e2","2","0","615d8873c11a1982c8838b54","2","0","2025-07-16T08:34:57.858Z","","{""Q01"":""1"",""Q02"":""4"",""Q03"":""2""}","[0,1,2]","[""Q01"",""Q02"",""Q03""]","[3363.7999999523163,9178.299999952316,12992.5]","[]","[3363.7999999523163,9178.299999952316,12992.5,15203.5]","0.6666666666666666","0.5","0","stress","","","","","","","","","","","","","","","","","","","","","","","","","","","","","","",""
"10524","","","","instructions","5","245526","0.0-3.0-0.0","68","1","2025-07-16 08:31:01","1f75c3e559b7213887762d5229550c2b","2.84.221.131","Mozilla/5.0 (Windows NT 10.0; Win64; x64) AppleWebKit/537.36 (KHTML, like Gecko) Chrome/138.0.0.0 Safari/537.36","WebKit","Chrome","138.0.0.0","Windows","10.0","https://app.prolific.com/","en-GB,en;q=0.9,bg-BG;q=0.8,bg;q=0.7,en-US;q=0.6","615d8873c11a1982c8838b54","68764874ac79eee8c1d4cb03","687762f94221ce2e205f30e2","2","0","615d8873c11a1982c8838b54","2","0","","","","","","","","","","","","","[{""page_index"":0,""viewing_time"":10523}]","","","","","","","","","","","","","","","","","","","","","","","","","","","","","",""
"4800","","<p>Before you start with this game please answer the following three questions yourself. </p>
  <p>Through this game, we measure several aspects of your cognitive performance, such as reaction times, multi-tasking capabilities </p>
  <p>and the ability to assess the situation you are in.</p>
  <p></p>
  <p><b>How good do you usually are in such tasks?</b></p>","81","html-slider-response","6","250329","0.0-4.0-0.0","68","1","2025-07-16 08:31:01","1f75c3e559b7213887762d5229550c2b","2.84.221.131","Mozilla/5.0 (Windows NT 10.0; Win64; x64) AppleWebKit/537.36 (KHTML, like Gecko) Chrome/138.0.0.0 Safari/537.36","WebKit","Chrome","138.0.0.0","Windows","10.0","https://app.prolific.com/","en-GB,en;q=0.9,bg-BG;q=0.8,bg;q=0.7,en-US;q=0.6","615d8873c11a1982c8838b54","68764874ac79eee8c1d4cb03","687762f94221ce2e205f30e2","2","0","615d8873c11a1982c8838b54","2","0","2025-07-16T08:35:13.188Z","","","","","","","","","","","PreSkillQ","","50","","","","","","","","","","","","","","","","","","","","","","","","","","","","",""
"3942","","<div style=""width:500px;"">
  <p>How well do you think you will perform in this task compared to other participants?</p>
  </div>","78","html-slider-response","7","254275","0.0-4.0-1.0","68","1","2025-07-16 08:31:01","1f75c3e559b7213887762d5229550c2b","2.84.221.131","Mozilla/5.0 (Windows NT 10.0; Win64; x64) AppleWebKit/537.36 (KHTML, like Gecko) Chrome/138.0.0.0 Safari/537.36","WebKit","Chrome","138.0.0.0","Windows","10.0","https://app.prolific.com/","en-GB,en;q=0.9,bg-BG;q=0.8,bg;q=0.7,en-US;q=0.6","615d8873c11a1982c8838b54","68764874ac79eee8c1d4cb03","687762f94221ce2e205f30e2","2","0","615d8873c11a1982c8838b54","2","0","2025-07-16T08:35:17.134Z","","","","","","","","","","","PrePerfQ","","50","","","","","","","","","","","","","","","","","","","","","","","","","","","","",""
"5160","","<div style=""width:500px;"">
  <p>What best describes how you currently feel?</p>
  </div>","77","html-slider-response","8","259438","0.0-4.0-2.0","68","1","2025-07-16 08:31:01","1f75c3e559b7213887762d5229550c2b","2.84.221.131","Mozilla/5.0 (Windows NT 10.0; Win64; x64) AppleWebKit/537.36 (KHTML, like Gecko) Chrome/138.0.0.0 Safari/537.36","WebKit","Chrome","138.0.0.0","Windows","10.0","https://app.prolific.com/","en-GB,en;q=0.9,bg-BG;q=0.8,bg;q=0.7,en-US;q=0.6","615d8873c11a1982c8838b54","68764874ac79eee8c1d4cb03","687762f94221ce2e205f30e2","2","0","615d8873c11a1982c8838b54","2","0","2025-07-16T08:35:22.297Z","","","","","","","","","","","PreMotivationQ","","50","","","","","","","","","","","","","","","","","","","","","","","","","","","","",""
"","","","","ctl-task-cpt","9","292159","0.0-5.0-0.0","68","1","2025-07-16 08:31:01","1f75c3e559b7213887762d5229550c2b","2.84.221.131","Mozilla/5.0 (Windows NT 10.0; Win64; x64) AppleWebKit/537.36 (KHTML, like Gecko) Chrome/138.0.0.0 Safari/537.36","WebKit","Chrome","138.0.0.0","Windows","10.0","https://app.prolific.com/","en-GB,en;q=0.9,bg-BG;q=0.8,bg;q=0.7,en-US;q=0.6","615d8873c11a1982c8838b54","68764874ac79eee8c1d4cb03","687762f94221ce2e205f30e2","2","0","615d8873c11a1982c8838b54","2","0","2025-07-16T08:35:55.018Z","","","","","","","","","","","","","","win-only","0","g1:NW,g2:SE","1","1","0","261457.3","4449.2","9451.5","29714.4","1","4","8","6","2","8","8","8","0","0.06060606060606061","969.5","3000","1140","[""down"",""right""]","{""num_key_presses"":6,""num_perfect"":6,""num_errors"":0,""num_randdir"":0,""num_randdir_good_moves"":0,""num_whilered"":0,""num_whileblue"":0,""num_blue"":1,""num_good_moves"":6}","[420.57142857142856,414.47767857142856,0.5,420.57142857142856,414.47767857142856,101.8,420.57142857142856,414.47767857142856,202.3,420.57142857142856,414.47767857142856,302.6,419.57142857142856,414.47767857142856,406.3,402.57142857142856,398.47767857142856,506.8,570.5714285714286,702.4776785714286,606.9,672.5714285714286,755.4776785714286,712.6,720.5714285714286,743.4776785714286,815,756.5714285714286,761.4776785714286,917.1,760.5714285714286,764.4776785714286,1018.2,760.5714285714286,764.4776785714286,1122.1,760.5714285714286,764.4776785714286,1226.4,760.5714285714286,764.4776785714286,1328.4,760.5714285714286,764.4776785714286,1433.4,760.5714285714286,764.4776785714286,1536.7,760.5714285714286,764.4776785714286,1637.7,760.5714285714286,764.4776785714286,1743.1,760.5714285714286,764.4776785714286,1846.7,760.5714285714286,764.4776785714286,1952.5,760.5714285714286,764.4776785714286,2057.2,760.5714285714286,764.4776785714286,2162.1,760.5714285714286,764.4776785714286,2263.8,760.5714285714286,764.4776785714286,2366.4,760.5714285714286,764.4776785714286,2467.7,760.5714285714286,764.4776785714286,2567.7,760.5714285714286,764.4776785714286,2671.8,760.5714285714286,764.4776785714286,2772.1,760.5714285714286,764.4776785714286,2876.3,760.5714285714286,764.4776785714286,2977.5,760.5714285714286,764.4776785714286,3078.9,760.5714285714286,764.4776785714286,3181.3,760.5714285714286,764.4776785714286,3282,760.5714285714286,764.4776785714286,3382.4,760.5714285714286,764.4776785714286,3486.4,760.5714285714286,764.4776785714286,3587.5,760.5714285714286,764.4776785714286,3691.9,760.5714285714286,764.4776785714286,3792.2,760.5714285714286,764.4776785714286,3896.3,760.5714285714286,764.4776785714286,3997.8,760.5714285714286,764.4776785714286,4102.2,760.5714285714286,764.4776785714286,4206.6,760.5714285714286,764.4776785714286,4307.2,760.5714285714286,764.4776785714286,4412,760.5714285714286,764.4776785714286,4512.8,760.5714285714286,764.4776785714286,4617.8,760.5714285714286,764.4776785714286,4721.7,760.5714285714286,764.4776785714286,4826.6,760.5714285714286,764.4776785714286,4931.6]","[1385.2,1385.1,1000,0.1,385.1,""smooth"",""down"",""down"",""good_move"",4419.6,3034,2684.8,1385.7,349.1,""smooth"",""down"",""down"",""good_move"",7863.8,3443.8,3073.5,4420.1,370.2,""smooth"",""down"",""down"",""good_move"",10680.7,2816.1,2485,7864.6,331.1,""smooth"",""right"",""right"",""good_move"",13296.7,2615.3,2253.3,10681.4,362,""smooth"",""right"",""right"",""good_move"",20169.1,6872,2879.5,16990.5,299.2,""smooth"",""right"",""right"",""good_move""]","",""
"4600","","<div style=""width:500px;"">
  <p>What determined the result of this run?</p>
  </div>","100","html-slider-response","10","296760","0.0-5.0-1.0","68","1","2025-07-16 08:31:01","1f75c3e559b7213887762d5229550c2b","2.84.221.131","Mozilla/5.0 (Windows NT 10.0; Win64; x64) AppleWebKit/537.36 (KHTML, like Gecko) Chrome/138.0.0.0 Safari/537.36","WebKit","Chrome","138.0.0.0","Windows","10.0","https://app.prolific.com/","en-GB,en;q=0.9,bg-BG;q=0.8,bg;q=0.7,en-US;q=0.6","615d8873c11a1982c8838b54","68764874ac79eee8c1d4cb03","687762f94221ce2e205f30e2","2","0","615d8873c11a1982c8838b54","2","0","2025-07-16T08:35:59.620Z","","","","","","","","","","","AttribQ","","50","","","","","","","","","","","","","","","","","","","","","","","","","","","","",""
"4121","","<div style=""width:500px;"">
  <p>How much control did you have over the ball?</p>
  </div>","100","html-slider-response","11","300884","0.0-5.0-2.0","68","1","2025-07-16 08:31:01","1f75c3e559b7213887762d5229550c2b","2.84.221.131","Mozilla/5.0 (Windows NT 10.0; Win64; x64) AppleWebKit/537.36 (KHTML, like Gecko) Chrome/138.0.0.0 Safari/537.36","WebKit","Chrome","138.0.0.0","Windows","10.0","https://app.prolific.com/","en-GB,en;q=0.9,bg-BG;q=0.8,bg;q=0.7,en-US;q=0.6","615d8873c11a1982c8838b54","68764874ac79eee8c1d4cb03","687762f94221ce2e205f30e2","2","0","615d8873c11a1982c8838b54","2","0","2025-07-16T08:36:03.743Z","","","","","","","","","","","ControlQ","","50","","","","","","","","","","","","","","","","","","","","","","","","","","","","",""
"5207","","<div style=""width:500px;"">
  <p>How would you describe your current emotional state?</p>
  </div>","18","html-slider-response","12","306094","0.0-5.0-3.0","68","1","2025-07-16 08:31:01","1f75c3e559b7213887762d5229550c2b","2.84.221.131","Mozilla/5.0 (Windows NT 10.0; Win64; x64) AppleWebKit/537.36 (KHTML, like Gecko) Chrome/138.0.0.0 Safari/537.36","WebKit","Chrome","138.0.0.0","Windows","10.0","https://app.prolific.com/","en-GB,en;q=0.9,bg-BG;q=0.8,bg;q=0.7,en-US;q=0.6","615d8873c11a1982c8838b54","68764874ac79eee8c1d4cb03","687762f94221ce2e205f30e2","2","0","615d8873c11a1982c8838b54","2","0","2025-07-16T08:36:08.954Z","","","","","","","","","","","StressQ","","50","","","","","","","","","","","","","","","","","","","","","","","","","","","","",""
"3974","","<div style=""width:500px;"">
  <p>What best describes how you currently feel?</p>
  </div>","84","html-slider-response","13","310071","0.0-5.0-4.0","68","1","2025-07-16 08:31:01","1f75c3e559b7213887762d5229550c2b","2.84.221.131","Mozilla/5.0 (Windows NT 10.0; Win64; x64) AppleWebKit/537.36 (KHTML, like Gecko) Chrome/138.0.0.0 Safari/537.36","WebKit","Chrome","138.0.0.0","Windows","10.0","https://app.prolific.com/","en-GB,en;q=0.9,bg-BG;q=0.8,bg;q=0.7,en-US;q=0.6","615d8873c11a1982c8838b54","68764874ac79eee8c1d4cb03","687762f94221ce2e205f30e2","2","0","615d8873c11a1982c8838b54","2","0","2025-07-16T08:36:12.930Z","","","","","","","","","","","MotivationQ","","50","","","","","","","","","","","","","","","","","","","","","","","","","","","","",""
"","","","","ctl-task-cpt","14","342494","0.0-5.0-0.1","68","1","2025-07-16 08:31:01","1f75c3e559b7213887762d5229550c2b","2.84.221.131","Mozilla/5.0 (Windows NT 10.0; Win64; x64) AppleWebKit/537.36 (KHTML, like Gecko) Chrome/138.0.0.0 Safari/537.36","WebKit","Chrome","138.0.0.0","Windows","10.0","https://app.prolific.com/","en-GB,en;q=0.9,bg-BG;q=0.8,bg;q=0.7,en-US;q=0.6","615d8873c11a1982c8838b54","68764874ac79eee8c1d4cb03","687762f94221ce2e205f30e2","2","0","615d8873c11a1982c8838b54","2","0","2025-07-16T08:36:45.353Z","","","","","","","","","","","","","","win-only","1","g1:NE,g2:SW","0.9","2","0","312088","1413.4","6417.5","29405.3","1","4","4","6","2","4","4","12","8","0.09090909090909091","874.6","3000","1010","[""down"",""left""]","{""num_key_presses"":6,""num_perfect"":6,""num_errors"":0,""num_randdir"":0,""num_randdir_good_moves"":0,""num_whilered"":0,""num_whileblue"":0,""num_blue"":2,""num_good_moves"":6}","[413.57142857142856,411.47767857142856,0.2,413.57142857142856,411.47767857142856,102,413.57142857142856,411.47767857142856,204.7,413.57142857142856,411.47767857142856,314.8,367.57142857142856,446.47767857142856,419.1,224.57142857142856,600.4776785714286,520.2,178.57142857142856,652.4776785714286,623.3,120.57142857142857,708.4776785714286,727.4,49.57142857142857,768.4776785714286,828.1,49.57142857142857,768.4776785714286,933.1,49.57142857142857,768.4776785714286,1037.9,63.57142857142857,766.4776785714286,1142.1,256.57142857142856,776.4776785714286,1243.6,619.5714285714286,777.4776785714286,1343.6,765.5714285714286,768.4776785714286,1450.2,791.5714285714286,746.4776785714286,1553.8,792.5714285714286,741.4776785714286,1654.2,792.5714285714286,741.4776785714286,1754.2,792.5714285714286,741.4776785714286,1857.1,792.5714285714286,741.4776785714286,1957.9,792.5714285714286,741.4776785714286,2058.2,792.5714285714286,741.4776785714286,2163.2,792.5714285714286,741.4776785714286,2268.7,792.5714285714286,741.4776785714286,2371.2,792.5714285714286,741.4776785714286,2472.3,792.5714285714286,741.4776785714286,2573.7,792.5714285714286,741.4776785714286,2677.6,792.5714285714286,741.4776785714286,2778.6,792.5714285714286,741.4776785714286,2883.7,792.5714285714286,741.4776785714286,2988.4,792.5714285714286,741.4776785714286,3088.6,792.5714285714286,741.4776785714286,3192.2,792.5714285714286,741.4776785714286,3293.7,792.5714285714286,741.4776785714286,3397.3,792.5714285714286,741.4776785714286,3498.1,792.5714285714286,741.4776785714286,3602.4,792.5714285714286,741.4776785714286,3702.6,792.5714285714286,741.4776785714286,3802.8,792.5714285714286,741.4776785714286,3903.5,792.5714285714286,741.4776785714286,4005.1,792.5714285714286,741.4776785714286,4107.4,792.5714285714286,741.4776785714286,4212.5,792.5714285714286,741.4776785714286,4312.5,792.5714285714286,741.4776785714286,4412.8,792.5714285714286,741.4776785714286,4513.2,792.5714285714286,741.4776785714286,4618.7,792.5714285714286,741.4776785714286,4722.8,792.5714285714286,741.4776785714286,4823.4,792.5714285714286,741.4776785714286,4926.9]","[5209.8,5209.8,2892,2007.8,310,""smooth"",""down"",""down"",""good_move"",7385.1,2174.7,1790.9,5210.4,383.8,""smooth"",""down"",""down"",""good_move"",13258.8,5873.2,2254.7,10642.9,361.3,""smooth"",""down"",""down"",""good_move"",16854.5,3595.3,3173,13259.2,422.4,""smooth"",""left"",""left"",""good_move"",20254.9,3399.5,3075.2,16855.4,324.3,""smooth"",""left"",""left"",""good_move"",22899.7,2644.4,2298.1,20255.3,346.3,""smooth"",""left"",""left"",""good_move""]","",""
"3344","","<div style=""width:500px;"">
  <p>What determined the result of this run?</p>
  </div>","100","html-slider-response","15","345839","0.0-5.0-1.1","68","1","2025-07-16 08:31:01","1f75c3e559b7213887762d5229550c2b","2.84.221.131","Mozilla/5.0 (Windows NT 10.0; Win64; x64) AppleWebKit/537.36 (KHTML, like Gecko) Chrome/138.0.0.0 Safari/537.36","WebKit","Chrome","138.0.0.0","Windows","10.0","https://app.prolific.com/","en-GB,en;q=0.9,bg-BG;q=0.8,bg;q=0.7,en-US;q=0.6","615d8873c11a1982c8838b54","68764874ac79eee8c1d4cb03","687762f94221ce2e205f30e2","2","0","615d8873c11a1982c8838b54","2","0","2025-07-16T08:36:48.698Z","","","","","","","","","","","AttribQ","","50","","","","","","","","","","","","","","","","","","","","","","","","","","","","",""
"2566","","<div style=""width:500px;"">
  <p>How much control did you have over the ball?</p>
  </div>","100","html-slider-response","16","348408","0.0-5.0-2.1","68","1","2025-07-16 08:31:01","1f75c3e559b7213887762d5229550c2b","2.84.221.131","Mozilla/5.0 (Windows NT 10.0; Win64; x64) AppleWebKit/537.36 (KHTML, like Gecko) Chrome/138.0.0.0 Safari/537.36","WebKit","Chrome","138.0.0.0","Windows","10.0","https://app.prolific.com/","en-GB,en;q=0.9,bg-BG;q=0.8,bg;q=0.7,en-US;q=0.6","615d8873c11a1982c8838b54","68764874ac79eee8c1d4cb03","687762f94221ce2e205f30e2","2","0","615d8873c11a1982c8838b54","2","0","2025-07-16T08:36:51.267Z","","","","","","","","","","","ControlQ","","50","","","","","","","","","","","","","","","","","","","","","","","","","","","","",""
"2791","","<div style=""width:500px;"">
  <p>How would you describe your current emotional state?</p>
  </div>","18","html-slider-response","17","351201","0.0-5.0-3.1","68","1","2025-07-16 08:31:01","1f75c3e559b7213887762d5229550c2b","2.84.221.131","Mozilla/5.0 (Windows NT 10.0; Win64; x64) AppleWebKit/537.36 (KHTML, like Gecko) Chrome/138.0.0.0 Safari/537.36","WebKit","Chrome","138.0.0.0","Windows","10.0","https://app.prolific.com/","en-GB,en;q=0.9,bg-BG;q=0.8,bg;q=0.7,en-US;q=0.6","615d8873c11a1982c8838b54","68764874ac79eee8c1d4cb03","687762f94221ce2e205f30e2","2","0","615d8873c11a1982c8838b54","2","0","2025-07-16T08:36:54.060Z","","","","","","","","","","","StressQ","","50","","","","","","","","","","","","","","","","","","","","","","","","","","","","",""
"3115","","<div style=""width:500px;"">
  <p>What best describes how you currently feel?</p>
  </div>","82","html-slider-response","18","354318","0.0-5.0-4.1","68","1","2025-07-16 08:31:01","1f75c3e559b7213887762d5229550c2b","2.84.221.131","Mozilla/5.0 (Windows NT 10.0; Win64; x64) AppleWebKit/537.36 (KHTML, like Gecko) Chrome/138.0.0.0 Safari/537.36","WebKit","Chrome","138.0.0.0","Windows","10.0","https://app.prolific.com/","en-GB,en;q=0.9,bg-BG;q=0.8,bg;q=0.7,en-US;q=0.6","615d8873c11a1982c8838b54","68764874ac79eee8c1d4cb03","687762f94221ce2e205f30e2","2","0","615d8873c11a1982c8838b54","2","0","2025-07-16T08:36:57.177Z","","","","","","","","","","","MotivationQ","","50","","","","","","","","","","","","","","","","","","","","","","","","","","","","",""
"","","","","ctl-task-cpt","19","397843","0.0-5.0-0.2","68","1","2025-07-16 08:31:01","1f75c3e559b7213887762d5229550c2b","2.84.221.131","Mozilla/5.0 (Windows NT 10.0; Win64; x64) AppleWebKit/537.36 (KHTML, like Gecko) Chrome/138.0.0.0 Safari/537.36","WebKit","Chrome","138.0.0.0","Windows","10.0","https://app.prolific.com/","en-GB,en;q=0.9,bg-BG;q=0.8,bg;q=0.7,en-US;q=0.6","615d8873c11a1982c8838b54","68764874ac79eee8c1d4cb03","687762f94221ce2e205f30e2","2","0","615d8873c11a1982c8838b54","2","0","2025-07-16T08:37:40.703Z","","","","","","","","","","","","","","win-only","0","g1:NW,g2:SE","0.8","3","0","356336.7","1100.2","6101.3","40505.7","1","4","4","6","2","-4","-4","8","12","0.06060606060606061","786.9","3000","-3000","[""down"",""right""]","{""num_key_presses"":9,""num_perfect"":7,""num_errors"":0,""num_randdir"":2,""num_randdir_good_moves"":0,""num_whilered"":0,""num_whileblue"":0,""num_blue"":2,""num_good_moves"":7}","[413.57142857142856,419.47767857142856,0.4,413.57142857142856,419.47767857142856,104.8,413.57142857142856,419.47767857142856,205.3,413.57142857142856,419.47767857142856,305.5,489.57142857142856,583.4776785714286,406.1,827.5714285714286,808.4776785714286,510.4,826.5714285714286,807.4776785714286,610.4,758.5714285714286,761.4776785714286,712.1,755.5714285714286,758.4776785714286,812.2,755.5714285714286,758.4776785714286,915.7,755.5714285714286,758.4776785714286,1017.9,755.5714285714286,758.4776785714286,1121.5,755.5714285714286,758.4776785714286,1221.9,755.5714285714286,758.4776785714286,1327.4,755.5714285714286,758.4776785714286,1432.7,755.5714285714286,758.4776785714286,1533.2,755.5714285714286,758.4776785714286,1636.3,755.5714285714286,758.4776785714286,1736.8,755.5714285714286,758.4776785714286,1841.2,755.5714285714286,758.4776785714286,1941.9,755.5714285714286,758.4776785714286,2046.6,755.5714285714286,758.4776785714286,2151.1,755.5714285714286,758.4776785714286,2256.2,755.5714285714286,758.4776785714286,2361.5,755.5714285714286,758.4776785714286,2468.6,755.5714285714286,758.4776785714286,2571.4,755.5714285714286,758.4776785714286,2676,755.5714285714286,758.4776785714286,2776.2,755.5714285714286,758.4776785714286,2881.1,755.5714285714286,758.4776785714286,2985.6,755.5714285714286,758.4776785714286,3091.7,755.5714285714286,758.4776785714286,3195.4,755.5714285714286,758.4776785714286,3296.1,755.5714285714286,758.4776785714286,3400.9,755.5714285714286,758.4776785714286,3505.6,755.5714285714286,758.4776785714286,3606,755.5714285714286,758.4776785714286,3706.1,755.5714285714286,758.4776785714286,3806.7,755.5714285714286,758.4776785714286,3910.4,755.5714285714286,758.4776785714286,4015.7,755.5714285714286,758.4776785714286,4121.8,755.5714285714286,758.4776785714286,4225.4,755.5714285714286,758.4776785714286,4330.6,755.5714285714286,758.4776785714286,4431,755.5714285714286,758.4776785714286,4531.6,755.5714285714286,758.4776785714286,4633.2,755.5714285714286,758.4776785714286,4739.7,755.5714285714286,758.4776785714286,4841.6,755.5714285714286,758.4776785714286,4946.1]","[1371.3,1371.3,1000,0,371.4,""smooth"",""down"",""down"",""good_move"",8179.7,6807.8,2768.1,5100.6,311,""smooth"",""down"",""down"",""good_move"",11225.9,3045.9,2672.1,8180,373.8,""oops"",""down"",""left"",""bad_move"",13806.3,2579.5,2232.1,11226.8,347.4,""oops"",""down"",""left"",""bad_move"",16255.4,2448.7,2131.7,13806.7,317,""smooth"",""down"",""down"",""good_move"",19240.3,2984.3,2605.5,16256,378.9,""smooth"",""right"",""right"",""good_move"",25797.9,6556.9,2620.5,22879.7,297.7,""smooth"",""right"",""right"",""good_move"",29022.3,3224,2901,25798.3,323,""smooth"",""right"",""right"",""good_move"",31539.3,2515.9,2194,29023.5,321.8,""smooth"",""right"",""right"",""good_move""]","",""
"5224","","<div style=""width:500px;"">
  <p>What determined the result of this run?</p>
  </div>","0","html-slider-response","20","403069","0.0-5.0-1.2","68","1","2025-07-16 08:31:01","1f75c3e559b7213887762d5229550c2b","2.84.221.131","Mozilla/5.0 (Windows NT 10.0; Win64; x64) AppleWebKit/537.36 (KHTML, like Gecko) Chrome/138.0.0.0 Safari/537.36","WebKit","Chrome","138.0.0.0","Windows","10.0","https://app.prolific.com/","en-GB,en;q=0.9,bg-BG;q=0.8,bg;q=0.7,en-US;q=0.6","615d8873c11a1982c8838b54","68764874ac79eee8c1d4cb03","687762f94221ce2e205f30e2","2","0","615d8873c11a1982c8838b54","2","0","2025-07-16T08:37:45.928Z","","","","","","","","","","","AttribQ","","50","","","","","","","","","","","","","","","","","","","","","","","","","","","","",""
"4693","","<div style=""width:500px;"">
  <p>How much control did you have over the ball?</p>
  </div>","24","html-slider-response","21","407765","0.0-5.0-2.2","68","1","2025-07-16 08:31:01","1f75c3e559b7213887762d5229550c2b","2.84.221.131","Mozilla/5.0 (Windows NT 10.0; Win64; x64) AppleWebKit/537.36 (KHTML, like Gecko) Chrome/138.0.0.0 Safari/537.36","WebKit","Chrome","138.0.0.0","Windows","10.0","https://app.prolific.com/","en-GB,en;q=0.9,bg-BG;q=0.8,bg;q=0.7,en-US;q=0.6","615d8873c11a1982c8838b54","68764874ac79eee8c1d4cb03","687762f94221ce2e205f30e2","2","0","615d8873c11a1982c8838b54","2","0","2025-07-16T08:37:50.624Z","","","","","","","","","","","ControlQ","","50","","","","","","","","","","","","","","","","","","","","","","","","","","","","",""
"2512","","<div style=""width:500px;"">
  <p>How would you describe your current emotional state?</p>
  </div>","18","html-slider-response","22","410280","0.0-5.0-3.2","68","1","2025-07-16 08:31:01","1f75c3e559b7213887762d5229550c2b","2.84.221.131","Mozilla/5.0 (Windows NT 10.0; Win64; x64) AppleWebKit/537.36 (KHTML, like Gecko) Chrome/138.0.0.0 Safari/537.36","WebKit","Chrome","138.0.0.0","Windows","10.0","https://app.prolific.com/","en-GB,en;q=0.9,bg-BG;q=0.8,bg;q=0.7,en-US;q=0.6","615d8873c11a1982c8838b54","68764874ac79eee8c1d4cb03","687762f94221ce2e205f30e2","2","0","615d8873c11a1982c8838b54","2","0","2025-07-16T08:37:53.139Z","","","","","","","","","","","StressQ","","50","","","","","","","","","","","","","","","","","","","","","","","","","","","","",""
"3167","","<div style=""width:500px;"">
  <p>What best describes how you currently feel?</p>
  </div>","78","html-slider-response","23","413449","0.0-5.0-4.2","68","1","2025-07-16 08:31:01","1f75c3e559b7213887762d5229550c2b","2.84.221.131","Mozilla/5.0 (Windows NT 10.0; Win64; x64) AppleWebKit/537.36 (KHTML, like Gecko) Chrome/138.0.0.0 Safari/537.36","WebKit","Chrome","138.0.0.0","Windows","10.0","https://app.prolific.com/","en-GB,en;q=0.9,bg-BG;q=0.8,bg;q=0.7,en-US;q=0.6","615d8873c11a1982c8838b54","68764874ac79eee8c1d4cb03","687762f94221ce2e205f30e2","2","0","615d8873c11a1982c8838b54","2","0","2025-07-16T08:37:56.308Z","","","","","","","","","","","MotivationQ","","50","","","","","","","","","","","","","","","","","","","","","","","","","","","","",""
"","","","","ctl-task-cpt","24","459028","0.0-5.0-0.3","68","1","2025-07-16 08:31:01","1f75c3e559b7213887762d5229550c2b","2.84.221.131","Mozilla/5.0 (Windows NT 10.0; Win64; x64) AppleWebKit/537.36 (KHTML, like Gecko) Chrome/138.0.0.0 Safari/537.36","WebKit","Chrome","138.0.0.0","Windows","10.0","https://app.prolific.com/","en-GB,en;q=0.9,bg-BG;q=0.8,bg;q=0.7,en-US;q=0.6","615d8873c11a1982c8838b54","68764874ac79eee8c1d4cb03","687762f94221ce2e205f30e2","2","0","615d8873c11a1982c8838b54","2","0","2025-07-16T08:38:41.887Z","","","","","","","","","","","","","","win-only","2","g1:SE,g2:NW","0.7","4","0","415469","822.4","5825.4","42560.3","1","4","8","6","2","8","8","16","8","0.12121212121212122","818.7","3000","70","[""left"",""up""]","{""num_key_presses"":10,""num_perfect"":7,""num_errors"":0,""num_randdir"":3,""num_randdir_good_moves"":1,""num_whilered"":0,""num_whileblue"":0,""num_blue"":3,""num_good_moves"":8}","[413.57142857142856,415.47767857142856,0.3,413.57142857142856,415.47767857142856,101.4,577.5714285714286,636.4776785714286,203.8,704.5714285714286,787.4776785714286,303.9,608.5714285714286,709.4776785714286,408.8,157.57142857142856,254.47767857142856,513.5,101.57142857142857,146.47767857142856,618.9,89.57142857142857,88.47767857142857,719.2,78.57142857142857,57.47767857142857,830.1,78.57142857142857,57.47767857142857,933,78.57142857142857,57.47767857142857,1035.9,78.57142857142857,57.47767857142857,1138,78.57142857142857,57.47767857142857,1238.9,78.57142857142857,57.47767857142857,1351.4,78.57142857142857,57.47767857142857,1455,78.57142857142857,57.47767857142857,1558.2,78.57142857142857,57.47767857142857,1658.8,78.57142857142857,57.47767857142857,1761,78.57142857142857,57.47767857142857,1867.7,78.57142857142857,57.47767857142857,1974.1,78.57142857142857,57.47767857142857,2075.9,78.57142857142857,57.47767857142857,2177.2,78.57142857142857,57.47767857142857,2283.4,78.57142857142857,57.47767857142857,2383.4,78.57142857142857,57.47767857142857,2492.6,78.57142857142857,57.47767857142857,2593,78.57142857142857,57.47767857142857,2695.2,78.57142857142857,57.47767857142857,2799.6,78.57142857142857,57.47767857142857,2900.4,78.57142857142857,57.47767857142857,3008.6,78.57142857142857,57.47767857142857,3112.1,78.57142857142857,57.47767857142857,3213.5,78.57142857142857,57.47767857142857,3320.6,78.57142857142857,57.47767857142857,3421.1,78.57142857142857,57.47767857142857,3528.1,78.57142857142857,57.47767857142857,3629.8,78.57142857142857,57.47767857142857,3734.3,78.57142857142857,57.47767857142857,3838,78.57142857142857,57.47767857142857,3938.8,78.57142857142857,57.47767857142857,4043.4,78.57142857142857,57.47767857142857,4149.4,78.57142857142857,57.47767857142857,4250,78.57142857142857,57.47767857142857,4352,78.57142857142857,57.47767857142857,4454.4,78.57142857142857,57.47767857142857,4557.9,78.57142857142857,57.47767857142857,4658.5,78.57142857142857,57.47767857142857,4759.6,78.57142857142857,57.47767857142857,4866.6,78.57142857142857,57.47767857142857,4968.7]","[1359.1,1359,1000,0.1,359,""smooth"",""up"",""up"",""good_move"",4714,3354.2,2985.7,1359.8,368.5,""smooth"",""up"",""up"",""good_move"",7791.9,3077.4,2799.1,4714.5,278.3,""smooth"",""up"",""up"",""good_move"",17097.5,9305.1,2155.4,14597.8,344.3,""oops"",""left"",""right"",""bad_move"",20004.8,2906.8,2541.5,17098,365.3,""smooth"",""left"",""left"",""good_move"",25581.8,5575.7,1847,23399.9,334.9,""oops"",""left"",""right"",""bad_move"",27798.9,2216.6,1818.1,25582.3,398.5,""smooth"",""left"",""left"",""good_move"",30447.9,2648.7,2300.7,27799.3,347.9,""smooth"",""left"",""left"",""good_move"",33537.3,3089,2731.5,30448.3,357.5,""oops"",""left"",""left"",""good_move"",36634.8,3096.9,2763.9,33537.9,333,""smooth"",""left"",""left"",""good_move""]","",""
"9361","","<div style=""width:500px;"">
  <p>What determined the result of this run?</p>
  </div>","71","html-slider-response","25","468390","0.0-5.0-1.3","68","1","2025-07-16 08:31:01","1f75c3e559b7213887762d5229550c2b","2.84.221.131","Mozilla/5.0 (Windows NT 10.0; Win64; x64) AppleWebKit/537.36 (KHTML, like Gecko) Chrome/138.0.0.0 Safari/537.36","WebKit","Chrome","138.0.0.0","Windows","10.0","https://app.prolific.com/","en-GB,en;q=0.9,bg-BG;q=0.8,bg;q=0.7,en-US;q=0.6","615d8873c11a1982c8838b54","68764874ac79eee8c1d4cb03","687762f94221ce2e205f30e2","2","0","615d8873c11a1982c8838b54","2","0","2025-07-16T08:38:51.249Z","","","","","","","","","","","AttribQ","","50","","","","","","","","","","","","","","","","","","","","","","","","","","","","",""
"3951","","<div style=""width:500px;"">
  <p>How much control did you have over the ball?</p>
  </div>","48","html-slider-response","26","472344","0.0-5.0-2.3","68","1","2025-07-16 08:31:01","1f75c3e559b7213887762d5229550c2b","2.84.221.131","Mozilla/5.0 (Windows NT 10.0; Win64; x64) AppleWebKit/537.36 (KHTML, like Gecko) Chrome/138.0.0.0 Safari/537.36","WebKit","Chrome","138.0.0.0","Windows","10.0","https://app.prolific.com/","en-GB,en;q=0.9,bg-BG;q=0.8,bg;q=0.7,en-US;q=0.6","615d8873c11a1982c8838b54","68764874ac79eee8c1d4cb03","687762f94221ce2e205f30e2","2","0","615d8873c11a1982c8838b54","2","0","2025-07-16T08:38:55.203Z","","","","","","","","","","","ControlQ","","50","","","","","","","","","","","","","","","","","","","","","","","","","","","","",""
"2481","","<div style=""width:500px;"">
  <p>How would you describe your current emotional state?</p>
  </div>","17","html-slider-response","27","474828","0.0-5.0-3.3","68","1","2025-07-16 08:31:01","1f75c3e559b7213887762d5229550c2b","2.84.221.131","Mozilla/5.0 (Windows NT 10.0; Win64; x64) AppleWebKit/537.36 (KHTML, like Gecko) Chrome/138.0.0.0 Safari/537.36","WebKit","Chrome","138.0.0.0","Windows","10.0","https://app.prolific.com/","en-GB,en;q=0.9,bg-BG;q=0.8,bg;q=0.7,en-US;q=0.6","615d8873c11a1982c8838b54","68764874ac79eee8c1d4cb03","687762f94221ce2e205f30e2","2","0","615d8873c11a1982c8838b54","2","0","2025-07-16T08:38:57.687Z","","","","","","","","","","","StressQ","","50","","","","","","","","","","","","","","","","","","","","","","","","","","","","",""
"2620","","<div style=""width:500px;"">
  <p>What best describes how you currently feel?</p>
  </div>","79","html-slider-response","28","477451","0.0-5.0-4.3","68","1","2025-07-16 08:31:01","1f75c3e559b7213887762d5229550c2b","2.84.221.131","Mozilla/5.0 (Windows NT 10.0; Win64; x64) AppleWebKit/537.36 (KHTML, like Gecko) Chrome/138.0.0.0 Safari/537.36","WebKit","Chrome","138.0.0.0","Windows","10.0","https://app.prolific.com/","en-GB,en;q=0.9,bg-BG;q=0.8,bg;q=0.7,en-US;q=0.6","615d8873c11a1982c8838b54","68764874ac79eee8c1d4cb03","687762f94221ce2e205f30e2","2","0","615d8873c11a1982c8838b54","2","0","2025-07-16T08:39:00.310Z","","","","","","","","","","","MotivationQ","","50","","","","","","","","","","","","","","","","","","","","","","","","","","","","",""
"","","","","ctl-task-cpt","29","531477","0.0-5.0-0.4","68","1","2025-07-16 08:31:01","1f75c3e559b7213887762d5229550c2b","2.84.221.131","Mozilla/5.0 (Windows NT 10.0; Win64; x64) AppleWebKit/537.36 (KHTML, like Gecko) Chrome/138.0.0.0 Safari/537.36","WebKit","Chrome","138.0.0.0","Windows","10.0","https://app.prolific.com/","en-GB,en;q=0.9,bg-BG;q=0.8,bg;q=0.7,en-US;q=0.6","615d8873c11a1982c8838b54","68764874ac79eee8c1d4cb03","687762f94221ce2e205f30e2","2","0","615d8873c11a1982c8838b54","2","0","2025-07-16T08:39:54.336Z","","","","","","","","","","","","","","win-only","3","g1:SW,g2:NE","0.6","5","0","479470.5","823.4","5826.7","51004.3","1","4","8","6","2","8","8","24","16","0.18181818181818182","753.9","3000","225","[""up"",""right""]","{""num_key_presses"":10,""num_perfect"":6,""num_errors"":0,""num_randdir"":4,""num_randdir_good_moves"":2,""num_whilered"":0,""num_whileblue"":0,""num_blue"":5,""num_good_moves"":8}","[414.57142857142856,426.47767857142856,0.3,414.57142857142856,425.47767857142856,102.6,414.57142857142856,426.47767857142856,206.9,418.57142857142856,451.47767857142856,307.5,456.57142857142856,462.47767857142856,410.4,680.5714285714286,177.47767857142856,512.2,705.5714285714286,136.47767857142856,612.7,725.5714285714286,111.47767857142857,717.2,725.5714285714286,110.47767857142857,820.4,725.5714285714286,110.47767857142857,929.6,725.5714285714286,110.47767857142857,1029.6,725.5714285714286,110.47767857142857,1132.4,725.5714285714286,110.47767857142857,1232.4,725.5714285714286,110.47767857142857,1332.7,725.5714285714286,110.47767857142857,1433.6,725.5714285714286,110.47767857142857,1537.2,725.5714285714286,110.47767857142857,1637.8,725.5714285714286,110.47767857142857,1737.8,725.5714285714286,110.47767857142857,1844,725.5714285714286,110.47767857142857,1948.2,725.5714285714286,110.47767857142857,2052.5,725.5714285714286,110.47767857142857,2152.9,725.5714285714286,110.47767857142857,2257.8,725.5714285714286,110.47767857142857,2367.3,725.5714285714286,110.47767857142857,2468.7,725.5714285714286,110.47767857142857,2572.8,725.5714285714286,110.47767857142857,2672.9,725.5714285714286,110.47767857142857,2777.9,725.5714285714286,110.47767857142857,2883,725.5714285714286,110.47767857142857,2983.1,725.5714285714286,110.47767857142857,3087.8,725.5714285714286,110.47767857142857,3187.9,725.5714285714286,110.47767857142857,3288.5,725.5714285714286,110.47767857142857,3392.1,725.5714285714286,110.47767857142857,3492.9,725.5714285714286,110.47767857142857,3596.9,725.5714285714286,110.47767857142857,3697.7,725.5714285714286,110.47767857142857,3797.8,725.5714285714286,110.47767857142857,3898.3,725.5714285714286,110.47767857142857,4001.9,725.5714285714286,110.47767857142857,4108.4,725.5714285714286,110.47767857142857,4212.1,725.5714285714286,110.47767857142857,4313.9,725.5714285714286,110.47767857142857,4414.2,725.5714285714286,110.47767857142857,4517.7,725.5714285714286,110.47767857142857,4622.1,725.5714285714286,110.47767857142857,4723.4,725.5714285714286,110.47767857142857,4823.7,725.5714285714286,110.47767857142857,4927.2]","[4764.9,4764.9,2444.5,2003.5,316.9,""smooth"",""up"",""up"",""good_move"",7563.4,2798,2505.4,4765.4,292.6,""oops"",""up"",""up"",""good_move"",13807.4,6243.5,2050.2,11456.8,300.5,""smooth"",""up"",""up"",""good_move"",21105.6,7297.9,2868.1,17903.9,333.7,""oops"",""right"",""left"",""bad_move"",27873.3,6767.3,2876,24712.9,284.4,""smooth"",""right"",""right"",""good_move"",30233,2359.1,2041.4,27874,317.6,""smooth"",""right"",""right"",""good_move"",33461.4,3228.1,2897.5,30233.3,330.6,""oops"",""right"",""down"",""bad_move"",36614.3,3152.2,2832.4,33462.3,319.7,""smooth"",""right"",""right"",""good_move"",39757.2,3142.5,2833.9,36614.7,308.6,""smooth"",""right"",""right"",""good_move"",45062.2,5304.6,2169.6,42570.4,322.2,""oops"",""up"",""up"",""good_move""]","",""
"4421","","<div style=""width:500px;"">
  <p>What determined the result of this run?</p>
  </div>","71","html-slider-response","30","535900","0.0-5.0-1.4","68","1","2025-07-16 08:31:01","1f75c3e559b7213887762d5229550c2b","2.84.221.131","Mozilla/5.0 (Windows NT 10.0; Win64; x64) AppleWebKit/537.36 (KHTML, like Gecko) Chrome/138.0.0.0 Safari/537.36","WebKit","Chrome","138.0.0.0","Windows","10.0","https://app.prolific.com/","en-GB,en;q=0.9,bg-BG;q=0.8,bg;q=0.7,en-US;q=0.6","615d8873c11a1982c8838b54","68764874ac79eee8c1d4cb03","687762f94221ce2e205f30e2","2","0","615d8873c11a1982c8838b54","2","0","2025-07-16T08:39:58.759Z","","","","","","","","","","","AttribQ","","50","","","","","","","","","","","","","","","","","","","","","","","","","","","","",""
"3345","","<div style=""width:500px;"">
  <p>How much control did you have over the ball?</p>
  </div>","70","html-slider-response","31","539248","0.0-5.0-2.4","68","1","2025-07-16 08:31:01","1f75c3e559b7213887762d5229550c2b","2.84.221.131","Mozilla/5.0 (Windows NT 10.0; Win64; x64) AppleWebKit/537.36 (KHTML, like Gecko) Chrome/138.0.0.0 Safari/537.36","WebKit","Chrome","138.0.0.0","Windows","10.0","https://app.prolific.com/","en-GB,en;q=0.9,bg-BG;q=0.8,bg;q=0.7,en-US;q=0.6","615d8873c11a1982c8838b54","68764874ac79eee8c1d4cb03","687762f94221ce2e205f30e2","2","0","615d8873c11a1982c8838b54","2","0","2025-07-16T08:40:02.107Z","","","","","","","","","","","ControlQ","","50","","","","","","","","","","","","","","","","","","","","","","","","","","","","",""
"2355","","<div style=""width:500px;"">
  <p>How would you describe your current emotional state?</p>
  </div>","23","html-slider-response","32","541605","0.0-5.0-3.4","68","1","2025-07-16 08:31:01","1f75c3e559b7213887762d5229550c2b","2.84.221.131","Mozilla/5.0 (Windows NT 10.0; Win64; x64) AppleWebKit/537.36 (KHTML, like Gecko) Chrome/138.0.0.0 Safari/537.36","WebKit","Chrome","138.0.0.0","Windows","10.0","https://app.prolific.com/","en-GB,en;q=0.9,bg-BG;q=0.8,bg;q=0.7,en-US;q=0.6","615d8873c11a1982c8838b54","68764874ac79eee8c1d4cb03","687762f94221ce2e205f30e2","2","0","615d8873c11a1982c8838b54","2","0","2025-07-16T08:40:04.465Z","","","","","","","","","","","StressQ","","50","","","","","","","","","","","","","","","","","","","","","","","","","","","","",""
"1938","","<div style=""width:500px;"">
  <p>What best describes how you currently feel?</p>
  </div>","76","html-slider-response","33","543546","0.0-5.0-4.4","68","1","2025-07-16 08:31:01","1f75c3e559b7213887762d5229550c2b","2.84.221.131","Mozilla/5.0 (Windows NT 10.0; Win64; x64) AppleWebKit/537.36 (KHTML, like Gecko) Chrome/138.0.0.0 Safari/537.36","WebKit","Chrome","138.0.0.0","Windows","10.0","https://app.prolific.com/","en-GB,en;q=0.9,bg-BG;q=0.8,bg;q=0.7,en-US;q=0.6","615d8873c11a1982c8838b54","68764874ac79eee8c1d4cb03","687762f94221ce2e205f30e2","2","0","615d8873c11a1982c8838b54","2","0","2025-07-16T08:40:06.405Z","","","","","","","","","","","MotivationQ","","50","","","","","","","","","","","","","","","","","","","","","","","","","","","","",""
"","","","","ctl-task-cpt","34","593429","0.0-5.0-0.5","68","1","2025-07-16 08:31:01","1f75c3e559b7213887762d5229550c2b","2.84.221.131","Mozilla/5.0 (Windows NT 10.0; Win64; x64) AppleWebKit/537.36 (KHTML, like Gecko) Chrome/138.0.0.0 Safari/537.36","WebKit","Chrome","138.0.0.0","Windows","10.0","https://app.prolific.com/","en-GB,en;q=0.9,bg-BG;q=0.8,bg;q=0.7,en-US;q=0.6","615d8873c11a1982c8838b54","68764874ac79eee8c1d4cb03","687762f94221ce2e205f30e2","2","0","615d8873c11a1982c8838b54","2","0","2025-07-16T08:40:56.288Z","","","","","","","","","","","","","","win-only","3","g1:SW,g2:NE","0.5","6","0","545564.7","1084","6086.1","46864","1","4","4","6","2","4","4","28","24","0.21212121212121213","760","3000","650","[""up"",""right""]","{""num_key_presses"":8,""num_perfect"":4,""num_errors"":0,""num_randdir"":4,""num_randdir_good_moves"":3,""num_whilered"":0,""num_whileblue"":0,""num_blue"":6,""num_good_moves"":7}","[413.57142857142856,416.47767857142856,0.3,413.57142857142856,416.47767857142856,101.4,413.57142857142856,416.47767857142856,206,435.57142857142856,406.47767857142856,306.6,606.5714285714286,232.47767857142856,408,700.5714285714286,92.47767857142857,508.8,734.5714285714286,66.47767857142857,612.4,754.5714285714286,60.47767857142857,712.4,755.5714285714286,61.47767857142857,820.4,755.5714285714286,61.47767857142857,922.7,755.5714285714286,61.47767857142857,1028.3,755.5714285714286,61.47767857142857,1138.1,755.5714285714286,61.47767857142857,1244.7,755.5714285714286,61.47767857142857,1345.7,755.5714285714286,61.47767857142857,1448.5,755.5714285714286,61.47767857142857,1551.3,755.5714285714286,61.47767857142857,1653,755.5714285714286,61.47767857142857,1761.8,755.5714285714286,61.47767857142857,1861.8,755.5714285714286,61.47767857142857,1961.8,755.5714285714286,61.47767857142857,2067.1,755.5714285714286,61.47767857142857,2167.3,755.5714285714286,61.47767857142857,2271.3,755.5714285714286,61.47767857142857,2371.8,755.5714285714286,61.47767857142857,2478.2,755.5714285714286,61.47767857142857,2578.5,755.5714285714286,61.47767857142857,2688.8,755.5714285714286,61.47767857142857,2797.2,755.5714285714286,61.47767857142857,2901.2,755.5714285714286,61.47767857142857,3002,755.5714285714286,61.47767857142857,3106.6,755.5714285714286,61.47767857142857,3211.1,755.5714285714286,61.47767857142857,3311.9,755.5714285714286,61.47767857142857,3413.7,755.5714285714286,61.47767857142857,3516.5,755.5714285714286,61.47767857142857,3617.6,755.5714285714286,61.47767857142857,3721.3,755.5714285714286,61.47767857142857,3821.6,755.5714285714286,61.47767857142857,3927.6,755.5714285714286,61.47767857142857,4031.2,755.5714285714286,61.47767857142857,4132.6,755.5714285714286,61.47767857142857,4247.8,755.5714285714286,61.47767857142857,4351.4,755.5714285714286,61.47767857142857,4452.1,755.5714285714286,61.47767857142857,4552.2,755.5714285714286,61.47767857142857,4659.9,755.5714285714286,61.47767857142857,4761.4,755.5714285714286,61.47767857142857,4863.1,755.5714285714286,61.47767857142857,4967]","[1393,1393,1000,0,393,""oops"",""up"",""left"",""bad_move"",13852.8,12459,2933.1,10564.1,355.6,""smooth"",""up"",""up"",""good_move"",15993.3,2140,1699.1,13853.3,440.9,""oops"",""up"",""right"",""good_move"",18411.4,2417.4,2070.4,15994.1,347,""smooth"",""up"",""up"",""good_move"",28156.2,9744.5,2447.7,25350.2,358.4,""oops"",""up"",""right"",""good_move"",30587.1,2430.2,2061,28156.9,369.2,""smooth"",""up"",""up"",""good_move"",37461.1,6873.4,3187.8,33914.9,358.5,""oops"",""right"",""right"",""good_move"",40679.1,3217.5,2862.6,37461.6,354.9,""smooth"",""right"",""right"",""good_move""]","",""
"3573","","<div style=""width:500px;"">
  <p>What determined the result of this run?</p>
  </div>","86","html-slider-response","35","597004","0.0-5.0-1.5","68","1","2025-07-16 08:31:01","1f75c3e559b7213887762d5229550c2b","2.84.221.131","Mozilla/5.0 (Windows NT 10.0; Win64; x64) AppleWebKit/537.36 (KHTML, like Gecko) Chrome/138.0.0.0 Safari/537.36","WebKit","Chrome","138.0.0.0","Windows","10.0","https://app.prolific.com/","en-GB,en;q=0.9,bg-BG;q=0.8,bg;q=0.7,en-US;q=0.6","615d8873c11a1982c8838b54","68764874ac79eee8c1d4cb03","687762f94221ce2e205f30e2","2","0","615d8873c11a1982c8838b54","2","0","2025-07-16T08:40:59.863Z","","","","","","","","","","","AttribQ","","50","","","","","","","","","","","","","","","","","","","","","","","","","","","","",""
"2636","","<div style=""width:500px;"">
  <p>How much control did you have over the ball?</p>
  </div>","85","html-slider-response","36","599643","0.0-5.0-2.5","68","1","2025-07-16 08:31:01","1f75c3e559b7213887762d5229550c2b","2.84.221.131","Mozilla/5.0 (Windows NT 10.0; Win64; x64) AppleWebKit/537.36 (KHTML, like Gecko) Chrome/138.0.0.0 Safari/537.36","WebKit","Chrome","138.0.0.0","Windows","10.0","https://app.prolific.com/","en-GB,en;q=0.9,bg-BG;q=0.8,bg;q=0.7,en-US;q=0.6","615d8873c11a1982c8838b54","68764874ac79eee8c1d4cb03","687762f94221ce2e205f30e2","2","0","615d8873c11a1982c8838b54","2","0","2025-07-16T08:41:02.502Z","","","","","","","","","","","ControlQ","","50","","","","","","","","","","","","","","","","","","","","","","","","","","","","",""
"2351","","<div style=""width:500px;"">
  <p>How would you describe your current emotional state?</p>
  </div>","21","html-slider-response","37","601996","0.0-5.0-3.5","68","1","2025-07-16 08:31:01","1f75c3e559b7213887762d5229550c2b","2.84.221.131","Mozilla/5.0 (Windows NT 10.0; Win64; x64) AppleWebKit/537.36 (KHTML, like Gecko) Chrome/138.0.0.0 Safari/537.36","WebKit","Chrome","138.0.0.0","Windows","10.0","https://app.prolific.com/","en-GB,en;q=0.9,bg-BG;q=0.8,bg;q=0.7,en-US;q=0.6","615d8873c11a1982c8838b54","68764874ac79eee8c1d4cb03","687762f94221ce2e205f30e2","2","0","615d8873c11a1982c8838b54","2","0","2025-07-16T08:41:04.855Z","","","","","","","","","","","StressQ","","50","","","","","","","","","","","","","","","","","","","","","","","","","","","","",""
"2166","","<div style=""width:500px;"">
  <p>What best describes how you currently feel?</p>
  </div>","76","html-slider-response","38","604165","0.0-5.0-4.5","68","1","2025-07-16 08:31:01","1f75c3e559b7213887762d5229550c2b","2.84.221.131","Mozilla/5.0 (Windows NT 10.0; Win64; x64) AppleWebKit/537.36 (KHTML, like Gecko) Chrome/138.0.0.0 Safari/537.36","WebKit","Chrome","138.0.0.0","Windows","10.0","https://app.prolific.com/","en-GB,en;q=0.9,bg-BG;q=0.8,bg;q=0.7,en-US;q=0.6","615d8873c11a1982c8838b54","68764874ac79eee8c1d4cb03","687762f94221ce2e205f30e2","2","0","615d8873c11a1982c8838b54","2","0","2025-07-16T08:41:07.024Z","","","","","","","","","","","MotivationQ","","50","","","","","","","","","","","","","","","","","","","","","","","","","","","","",""
"","","","","ctl-task-cpt","39","648240","0.0-5.0-0.6","68","1","2025-07-16 08:31:01","1f75c3e559b7213887762d5229550c2b","2.84.221.131","Mozilla/5.0 (Windows NT 10.0; Win64; x64) AppleWebKit/537.36 (KHTML, like Gecko) Chrome/138.0.0.0 Safari/537.36","WebKit","Chrome","138.0.0.0","Windows","10.0","https://app.prolific.com/","en-GB,en;q=0.9,bg-BG;q=0.8,bg;q=0.7,en-US;q=0.6","615d8873c11a1982c8838b54","68764874ac79eee8c1d4cb03","687762f94221ce2e205f30e2","2","0","615d8873c11a1982c8838b54","2","0","2025-07-16T08:41:51.100Z","","","","","","","","","","","","","","win-only","0","g1:NW,g2:SE","0.4","7","0","606185","1333.4","6337.9","41065.7","1","4","4","6","2","-4","-5","23","28","0.17424242424242425","975.3","3000","-2450","[""down"",""right""]","{""num_key_presses"":11,""num_perfect"":4,""num_errors"":1,""num_randdir"":6,""num_randdir_good_moves"":3,""num_whilered"":0,""num_whileblue"":1,""num_blue"":1,""num_good_moves"":7}","[414.57142857142856,415.47767857142856,0.3,414.57142857142856,415.47767857142856,109.7,414.57142857142856,415.47767857142856,213.4,386.57142857142856,420.47767857142856,328.7,198.57142857142856,384.47767857142856,428.9,755.5714285714286,564.4776785714286,532,871.5714285714286,663.4776785714286,632.7,879.5714285714286,717.4776785714286,733.6,838.5714285714286,740.4776785714286,837.3,794.5714285714286,758.4776785714286,942.1,792.5714285714286,761.4776785714286,1048.5,791.5714285714286,761.4776785714286,1151,791.5714285714286,761.4776785714286,1252.8,791.5714285714286,761.4776785714286,1353.3,791.5714285714286,761.4776785714286,1459.7,791.5714285714286,761.4776785714286,1560,791.5714285714286,761.4776785714286,1662.2,791.5714285714286,761.4776785714286,1762.5,791.5714285714286,761.4776785714286,1864.2,791.5714285714286,761.4776785714286,1967.6,791.5714285714286,761.4776785714286,2076.6,791.5714285714286,761.4776785714286,2176.8,791.5714285714286,761.4776785714286,2276.9,791.5714285714286,761.4776785714286,2377,791.5714285714286,761.4776785714286,2477.5,791.5714285714286,761.4776785714286,2577.7,791.5714285714286,761.4776785714286,2677.9,791.5714285714286,761.4776785714286,2779,791.5714285714286,761.4776785714286,2882.9,791.5714285714286,761.4776785714286,2983.5,791.5714285714286,761.4776785714286,3087.3,791.5714285714286,761.4776785714286,3193,791.5714285714286,761.4776785714286,3297.5,791.5714285714286,761.4776785714286,3397.5,791.5714285714286,761.4776785714286,3505.2,791.5714285714286,761.4776785714286,3606.5,791.5714285714286,761.4776785714286,3710.4,791.5714285714286,761.4776785714286,3813,791.5714285714286,761.4776785714286,3918.1,791.5714285714286,761.4776785714286,4027.8,791.5714285714286,761.4776785714286,4132.6,791.5714285714286,761.4776785714286,4232.7,791.5714285714286,761.4776785714286,4337.2,791.5714285714286,761.4776785714286,4437.4,791.5714285714286,761.4776785714286,4538.5,791.5714285714286,761.4776785714286,4642.5,791.5714285714286,761.4776785714286,4742.9,791.5714285714286,761.4776785714286,4847.5,791.5714285714286,761.4776785714286,4960.4]","[1355.3,1355.3,1000,0,355.3,""oops"",""down"",""down"",""good_move"",4573,3217.1,2870.7,1355.9,346.4,""smooth"",""down"",""down"",""good_move"",7771,3197.4,2830.9,4573.6,366.5,""smooth"",""down"",""down"",""good_move"",10604.3,2833,2474.4,7771.3,358.6,""smooth"",""right"",""right"",""good_move"",13630.3,3025.4,2710.9,10604.9,314.5,""oops"",""right"",""up"",""bad_move"",16393.2,2762.3,2398.8,13630.9,363.5,""smooth"",""right"",""right"",""good_move"",20126,3732.4,3328,16393.7,404.3,""oops"",""right"",""up"",""bad_move"",23426.6,3300,2949.5,20126.6,350.5,""oops"",""down"",""up"",""bad_move"",25972.2,2545.5,2204.6,23426.8,340.9,""oops"",""down"",""down"",""good_move"",28965.9,2992.8,2713.2,25973.1,279.6,""while_blue"",""down"",""up"",""bad_move"",32141.4,3174.9,2669.8,28966.5,505.1,""oops"",""down"",""down"",""good_move""]","",""
"7181","","<div style=""width:500px;"">
  <p>What determined the result of this run?</p>
  </div>","0","html-slider-response","40","655423","0.0-5.0-1.6","68","1","2025-07-16 08:31:01","1f75c3e559b7213887762d5229550c2b","2.84.221.131","Mozilla/5.0 (Windows NT 10.0; Win64; x64) AppleWebKit/537.36 (KHTML, like Gecko) Chrome/138.0.0.0 Safari/537.36","WebKit","Chrome","138.0.0.0","Windows","10.0","https://app.prolific.com/","en-GB,en;q=0.9,bg-BG;q=0.8,bg;q=0.7,en-US;q=0.6","615d8873c11a1982c8838b54","68764874ac79eee8c1d4cb03","687762f94221ce2e205f30e2","2","0","615d8873c11a1982c8838b54","2","0","2025-07-16T08:41:58.283Z","","","","","","","","","","","AttribQ","","50","","","","","","","","","","","","","","","","","","","","","","","","","","","","",""
"2520","","<div style=""width:500px;"">
  <p>How much control did you have over the ball?</p>
  </div>","0","html-slider-response","41","657947","0.0-5.0-2.6","68","1","2025-07-16 08:31:01","1f75c3e559b7213887762d5229550c2b","2.84.221.131","Mozilla/5.0 (Windows NT 10.0; Win64; x64) AppleWebKit/537.36 (KHTML, like Gecko) Chrome/138.0.0.0 Safari/537.36","WebKit","Chrome","138.0.0.0","Windows","10.0","https://app.prolific.com/","en-GB,en;q=0.9,bg-BG;q=0.8,bg;q=0.7,en-US;q=0.6","615d8873c11a1982c8838b54","68764874ac79eee8c1d4cb03","687762f94221ce2e205f30e2","2","0","615d8873c11a1982c8838b54","2","0","2025-07-16T08:42:00.806Z","","","","","","","","","","","ControlQ","","50","","","","","","","","","","","","","","","","","","","","","","","","","","","","",""
"2613","","<div style=""width:500px;"">
  <p>How would you describe your current emotional state?</p>
  </div>","19","html-slider-response","42","660562","0.0-5.0-3.6","68","1","2025-07-16 08:31:01","1f75c3e559b7213887762d5229550c2b","2.84.221.131","Mozilla/5.0 (Windows NT 10.0; Win64; x64) AppleWebKit/537.36 (KHTML, like Gecko) Chrome/138.0.0.0 Safari/537.36","WebKit","Chrome","138.0.0.0","Windows","10.0","https://app.prolific.com/","en-GB,en;q=0.9,bg-BG;q=0.8,bg;q=0.7,en-US;q=0.6","615d8873c11a1982c8838b54","68764874ac79eee8c1d4cb03","687762f94221ce2e205f30e2","2","0","615d8873c11a1982c8838b54","2","0","2025-07-16T08:42:03.421Z","","","","","","","","","","","StressQ","","50","","","","","","","","","","","","","","","","","","","","","","","","","","","","",""
"2723","","<div style=""width:500px;"">
  <p>What best describes how you currently feel?</p>
  </div>","80","html-slider-response","43","663287","0.0-5.0-4.6","68","1","2025-07-16 08:31:01","1f75c3e559b7213887762d5229550c2b","2.84.221.131","Mozilla/5.0 (Windows NT 10.0; Win64; x64) AppleWebKit/537.36 (KHTML, like Gecko) Chrome/138.0.0.0 Safari/537.36","WebKit","Chrome","138.0.0.0","Windows","10.0","https://app.prolific.com/","en-GB,en;q=0.9,bg-BG;q=0.8,bg;q=0.7,en-US;q=0.6","615d8873c11a1982c8838b54","68764874ac79eee8c1d4cb03","687762f94221ce2e205f30e2","2","0","615d8873c11a1982c8838b54","2","0","2025-07-16T08:42:06.146Z","","","","","","","","","","","MotivationQ","","50","","","","","","","","","","","","","","","","","","","","","","","","","","","","",""
"","","","","ctl-task-cpt","44","713929","0.0-5.0-0.7","68","1","2025-07-16 08:31:01","1f75c3e559b7213887762d5229550c2b","2.84.221.131","Mozilla/5.0 (Windows NT 10.0; Win64; x64) AppleWebKit/537.36 (KHTML, like Gecko) Chrome/138.0.0.0 Safari/537.36","WebKit","Chrome","138.0.0.0","Windows","10.0","https://app.prolific.com/","en-GB,en;q=0.9,bg-BG;q=0.8,bg;q=0.7,en-US;q=0.6","615d8873c11a1982c8838b54","68764874ac79eee8c1d4cb03","687762f94221ce2e205f30e2","2","0","615d8873c11a1982c8838b54","2","0","2025-07-16T08:42:56.789Z","","","","","","","","","","","","","","win-only","0","g1:NW,g2:SE","0.3","8","0","665307.4","1006.5","6011.8","47611.8","1","4","8","6","2","8","8","31","23","0.23484848484848486","729.8","3000","320","[""down"",""right""]","{""num_key_presses"":10,""num_perfect"":3,""num_errors"":0,""num_randdir"":7,""num_randdir_good_moves"":5,""num_whilered"":0,""num_whileblue"":0,""num_blue"":4,""num_good_moves"":8}","[413.57142857142856,414.47767857142856,0.3,413.57142857142856,414.47767857142856,104.8,413.57142857142856,415.47767857142856,205.8,419.57142857142856,422.47767857142856,310.1,662.5714285714286,620.4776785714286,422.3,756.5714285714286,697.4776785714286,534.4,768.5714285714286,715.4776785714286,635.6,770.5714285714286,719.4776785714286,739.4,770.5714285714286,720.4776785714286,853.4,770.5714285714286,720.4776785714286,954.6,770.5714285714286,720.4776785714286,1061.4,770.5714285714286,720.4776785714286,1165.9,770.5714285714286,720.4776785714286,1268.1,770.5714285714286,720.4776785714286,1369.7,824.5714285714286,718.4776785714286,1470.9,1340.5714285714287,651.4776785714286,1575.2,1375.5714285714287,598.4776785714286,1679.8,1375.5714285714287,598.4776785714286,1780.1,1375.5714285714287,598.4776785714286,1880.6,1375.5714285714287,598.4776785714286,1984.9,1375.5714285714287,598.4776785714286,2085.6,1375.5714285714287,598.4776785714286,2190.9,1375.5714285714287,598.4776785714286,2292.3,1375.5714285714287,598.4776785714286,2395.9,1375.5714285714287,598.4776785714286,2499.5,1375.5714285714287,598.4776785714286,2599.6,1375.5714285714287,598.4776785714286,2699.8,1375.5714285714287,598.4776785714286,2800.9,1375.5714285714287,598.4776785714286,2909.9,1375.5714285714287,598.4776785714286,3012.1,1375.5714285714287,598.4776785714286,3114.9,1375.5714285714287,598.4776785714286,3219.2,1375.5714285714287,598.4776785714286,3319.7,1375.5714285714287,598.4776785714286,3419.8,1375.5714285714287,598.4776785714286,3521.2,1375.5714285714287,598.4776785714286,3627.6,1375.5714285714287,598.4776785714286,3728.9,1375.5714285714287,598.4776785714286,3830.1,1375.5714285714287,598.4776785714286,3934,1375.5714285714287,598.4776785714286,4034.6,1375.5714285714287,598.4776785714286,4135.5,1375.5714285714287,598.4776785714286,4236,1375.5714285714287,598.4776785714286,4346.2,1375.5714285714287,598.4776785714286,4446.4,1375.5714285714287,598.4776785714286,4549.6,1375.5714285714287,598.4776785714286,4649.7,1375.5714285714287,598.4776785714286,4750.2,1375.5714285714287,598.4776785714286,4854.3,1375.5714285714287,598.4776785714286,4954.3]","[1314.3,1314.3,1000,0,314.3,""oops"",""down"",""right"",""good_move"",4340.3,3025.4,2686.1,1314.9,339.3,""smooth"",""down"",""down"",""good_move"",8026.2,3685.3,3334.7,4340.9,350.6,""oops"",""down"",""left"",""bad_move"",10701,2674.1,2329.5,8026.9,344.6,""oops"",""down"",""right"",""good_move"",17678.4,6976.4,2774.4,14526.3,377.7,""smooth"",""down"",""down"",""good_move"",20561.4,2882.7,2555.4,17678.8,327.3,""oops"",""down"",""right"",""good_move"",23127.8,2565.6,2216.8,20562.2,348.8,""oops"",""down"",""up"",""bad_move"",29127.3,5998.9,2362.8,26444.6,319.9,""smooth"",""down"",""down"",""good_move"",35584.9,6457,2802.8,32389.4,392.7,""oops"",""down"",""right"",""good_move"",41493.7,5908.1,1926.6,39184.1,383,""oops"",""down"",""down"",""good_move""]","",""
"5089","","<div style=""width:500px;"">
  <p>What determined the result of this run?</p>
  </div>","50","html-slider-response","45","719020","0.0-5.0-1.7","68","1","2025-07-16 08:31:01","1f75c3e559b7213887762d5229550c2b","2.84.221.131","Mozilla/5.0 (Windows NT 10.0; Win64; x64) AppleWebKit/537.36 (KHTML, like Gecko) Chrome/138.0.0.0 Safari/537.36","WebKit","Chrome","138.0.0.0","Windows","10.0","https://app.prolific.com/","en-GB,en;q=0.9,bg-BG;q=0.8,bg;q=0.7,en-US;q=0.6","615d8873c11a1982c8838b54","68764874ac79eee8c1d4cb03","687762f94221ce2e205f30e2","2","0","615d8873c11a1982c8838b54","2","0","2025-07-16T08:43:01.879Z","","","","","","","","","","","AttribQ","","50","","","","","","","","","","","","","","","","","","","","","","","","","","","","",""
"2004","","<div style=""width:500px;"">
  <p>How much control did you have over the ball?</p>
  </div>","50","html-slider-response","46","721026","0.0-5.0-2.7","68","1","2025-07-16 08:31:01","1f75c3e559b7213887762d5229550c2b","2.84.221.131","Mozilla/5.0 (Windows NT 10.0; Win64; x64) AppleWebKit/537.36 (KHTML, like Gecko) Chrome/138.0.0.0 Safari/537.36","WebKit","Chrome","138.0.0.0","Windows","10.0","https://app.prolific.com/","en-GB,en;q=0.9,bg-BG;q=0.8,bg;q=0.7,en-US;q=0.6","615d8873c11a1982c8838b54","68764874ac79eee8c1d4cb03","687762f94221ce2e205f30e2","2","0","615d8873c11a1982c8838b54","2","0","2025-07-16T08:43:03.886Z","","","","","","","","","","","ControlQ","","50","","","","","","","","","","","","","","","","","","","","","","","","","","","","",""
"2277","","<div style=""width:500px;"">
  <p>How would you describe your current emotional state?</p>
  </div>","21","html-slider-response","47","723307","0.0-5.0-3.7","68","1","2025-07-16 08:31:01","1f75c3e559b7213887762d5229550c2b","2.84.221.131","Mozilla/5.0 (Windows NT 10.0; Win64; x64) AppleWebKit/537.36 (KHTML, like Gecko) Chrome/138.0.0.0 Safari/537.36","WebKit","Chrome","138.0.0.0","Windows","10.0","https://app.prolific.com/","en-GB,en;q=0.9,bg-BG;q=0.8,bg;q=0.7,en-US;q=0.6","615d8873c11a1982c8838b54","68764874ac79eee8c1d4cb03","687762f94221ce2e205f30e2","2","0","615d8873c11a1982c8838b54","2","0","2025-07-16T08:43:06.166Z","","","","","","","","","","","StressQ","","50","","","","","","","","","","","","","","","","","","","","","","","","","","","","",""
"6646","","<div style=""width:500px;"">
  <p>What best describes how you currently feel?</p>
  </div>","73","html-slider-response","48","729955","0.0-5.0-4.7","68","1","2025-07-16 08:31:01","1f75c3e559b7213887762d5229550c2b","2.84.221.131","Mozilla/5.0 (Windows NT 10.0; Win64; x64) AppleWebKit/537.36 (KHTML, like Gecko) Chrome/138.0.0.0 Safari/537.36","WebKit","Chrome","138.0.0.0","Windows","10.0","https://app.prolific.com/","en-GB,en;q=0.9,bg-BG;q=0.8,bg;q=0.7,en-US;q=0.6","615d8873c11a1982c8838b54","68764874ac79eee8c1d4cb03","687762f94221ce2e205f30e2","2","0","615d8873c11a1982c8838b54","2","0","2025-07-16T08:43:12.814Z","","","","","","","","","","","MotivationQ","","50","","","","","","","","","","","","","","","","","","","","","","","","","","","","",""
"","","","","ctl-task-cpt","49","774100","0.0-5.0-0.8","68","1","2025-07-16 08:31:01","1f75c3e559b7213887762d5229550c2b","2.84.221.131","Mozilla/5.0 (Windows NT 10.0; Win64; x64) AppleWebKit/537.36 (KHTML, like Gecko) Chrome/138.0.0.0 Safari/537.36","WebKit","Chrome","138.0.0.0","Windows","10.0","https://app.prolific.com/","en-GB,en;q=0.9,bg-BG;q=0.8,bg;q=0.7,en-US;q=0.6","615d8873c11a1982c8838b54","68764874ac79eee8c1d4cb03","687762f94221ce2e205f30e2","2","0","615d8873c11a1982c8838b54","2","0","2025-07-16T08:43:56.959Z","","","","","","","","","","","","","","win-only","2","g1:SE,g2:NW","0.2","9","0","731974","1092","6093.9","41121.7","1","4","8","6","2","-8","-9","22","31","0.16666666666666666","925.7","3000","-2350","[""left"",""up""]","{""num_key_presses"":12,""num_perfect"":3,""num_errors"":1,""num_randdir"":8,""num_randdir_good_moves"":3,""num_whilered"":0,""num_whileblue"":0,""num_blue"":0,""num_good_moves"":6}","[416.57142857142856,413.47767857142856,0.5,416.57142857142856,413.47767857142856,104.1,422.57142857142856,428.47767857142856,204.1,464.57142857142856,494.47767857142856,317.3,326.57142857142856,370.47767857142856,427.4,57.57142857142857,117.47767857142857,529.6,32.57142857142857,60.47767857142857,632.1,36.57142857142857,55.47767857142857,733.7,57.57142857142857,60.47767857142857,839.1,65.57142857142857,70.47767857142857,943.3,65.57142857142857,70.47767857142857,1048.8,65.57142857142857,70.47767857142857,1153.4,65.57142857142857,70.47767857142857,1253.5,65.57142857142857,70.47767857142857,1364.5,65.57142857142857,70.47767857142857,1466.6,65.57142857142857,70.47767857142857,1569.2,65.57142857142857,70.47767857142857,1670.4,65.57142857142857,70.47767857142857,1774,65.57142857142857,70.47767857142857,1875.5,65.57142857142857,70.47767857142857,1981.7,65.57142857142857,70.47767857142857,2088,65.57142857142857,70.47767857142857,2198.1,65.57142857142857,70.47767857142857,2299.3,65.57142857142857,70.47767857142857,2401.4,65.57142857142857,70.47767857142857,2503.6,65.57142857142857,70.47767857142857,2610.2,65.57142857142857,70.47767857142857,2712.3,65.57142857142857,70.47767857142857,2813.5,65.57142857142857,70.47767857142857,2916.4,65.57142857142857,70.47767857142857,3020.1,65.57142857142857,70.47767857142857,3124.2,65.57142857142857,70.47767857142857,3229.3,65.57142857142857,70.47767857142857,3330.4,65.57142857142857,70.47767857142857,3431.7,65.57142857142857,70.47767857142857,3534.7,65.57142857142857,70.47767857142857,3634.8,65.57142857142857,70.47767857142857,3739.2,65.57142857142857,70.47767857142857,3839.6,65.57142857142857,70.47767857142857,3947.8,65.57142857142857,70.47767857142857,4052.6,65.57142857142857,70.47767857142857,4162.1,65.57142857142857,70.47767857142857,4266.9,65.57142857142857,70.47767857142857,4369.7,65.57142857142857,70.47767857142857,4469.7,65.57142857142857,70.47767857142857,4574.7,65.57142857142857,70.47767857142857,4682.9,65.57142857142857,70.47767857142857,4785,65.57142857142857,70.47767857142857,4891]","[1371.3,1371.3,1000,0,371.3,""oops"",""up"",""right"",""bad_move"",4329,2957,2590.5,1372,366.6,""oops"",""up"",""down"",""bad_move"",7160.3,2830.6,2431.8,4329.7,398.9,""oops"",""up"",""left"",""good_move"",10028.9,2867.8,2522.8,7161.1,345,""oops"",""up"",""left"",""good_move"",13113.9,3084.5,2735.7,10029.4,348.8,""smooth"",""up"",""up"",""good_move"",16696.1,3581.5,3264.8,13114.6,316.7,""oops"",""up"",""up"",""good_move"",19108,2411.4,2052.6,16696.6,358.8,""oops"",""up"",""right"",""bad_move"",21416.4,2307.6,1878,19108.8,429.6,""smooth"",""up"",""up"",""good_move"",24160,2743,2410,21417,333,""oops"",""up"",""right"",""bad_move"",27217.4,3056.8,2702.2,24160.6,354.6,""oops"",""up"",""down"",""bad_move"",28363,1145.1,2921.7,27218,-1776.7,""error"",""-"",""-"",""no_move"",31529.3,3165.8,1810.5,29367.6,351.2,""smooth"",""left"",""left"",""good_move""]","",""
"3211","","<div style=""width:500px;"">
  <p>What determined the result of this run?</p>
  </div>","0","html-slider-response","50","777313","0.0-5.0-1.8","68","1","2025-07-16 08:31:01","1f75c3e559b7213887762d5229550c2b","2.84.221.131","Mozilla/5.0 (Windows NT 10.0; Win64; x64) AppleWebKit/537.36 (KHTML, like Gecko) Chrome/138.0.0.0 Safari/537.36","WebKit","Chrome","138.0.0.0","Windows","10.0","https://app.prolific.com/","en-GB,en;q=0.9,bg-BG;q=0.8,bg;q=0.7,en-US;q=0.6","615d8873c11a1982c8838b54","68764874ac79eee8c1d4cb03","687762f94221ce2e205f30e2","2","0","615d8873c11a1982c8838b54","2","0","2025-07-16T08:44:00.172Z","","","","","","","","","","","AttribQ","","50","","","","","","","","","","","","","","","","","","","","","","","","","","","","",""
"2173","","<div style=""width:500px;"">
  <p>How much control did you have over the ball?</p>
  </div>","0","html-slider-response","51","779489","0.0-5.0-2.8","68","1","2025-07-16 08:31:01","1f75c3e559b7213887762d5229550c2b","2.84.221.131","Mozilla/5.0 (Windows NT 10.0; Win64; x64) AppleWebKit/537.36 (KHTML, like Gecko) Chrome/138.0.0.0 Safari/537.36","WebKit","Chrome","138.0.0.0","Windows","10.0","https://app.prolific.com/","en-GB,en;q=0.9,bg-BG;q=0.8,bg;q=0.7,en-US;q=0.6","615d8873c11a1982c8838b54","68764874ac79eee8c1d4cb03","687762f94221ce2e205f30e2","2","0","615d8873c11a1982c8838b54","2","0","2025-07-16T08:44:02.349Z","","","","","","","","","","","ControlQ","","50","","","","","","","","","","","","","","","","","","","","","","","","","","","","",""
"2692","","<div style=""width:500px;"">
  <p>How would you describe your current emotional state?</p>
  </div>","32","html-slider-response","52","782184","0.0-5.0-3.8","68","1","2025-07-16 08:31:01","1f75c3e559b7213887762d5229550c2b","2.84.221.131","Mozilla/5.0 (Windows NT 10.0; Win64; x64) AppleWebKit/537.36 (KHTML, like Gecko) Chrome/138.0.0.0 Safari/537.36","WebKit","Chrome","138.0.0.0","Windows","10.0","https://app.prolific.com/","en-GB,en;q=0.9,bg-BG;q=0.8,bg;q=0.7,en-US;q=0.6","615d8873c11a1982c8838b54","68764874ac79eee8c1d4cb03","687762f94221ce2e205f30e2","2","0","615d8873c11a1982c8838b54","2","0","2025-07-16T08:44:05.044Z","","","","","","","","","","","StressQ","","50","","","","","","","","","","","","","","","","","","","","","","","","","","","","",""
"3202","","<div style=""width:500px;"">
  <p>What best describes how you currently feel?</p>
  </div>","58","html-slider-response","53","785390","0.0-5.0-4.8","68","1","2025-07-16 08:31:01","1f75c3e559b7213887762d5229550c2b","2.84.221.131","Mozilla/5.0 (Windows NT 10.0; Win64; x64) AppleWebKit/537.36 (KHTML, like Gecko) Chrome/138.0.0.0 Safari/537.36","WebKit","Chrome","138.0.0.0","Windows","10.0","https://app.prolific.com/","en-GB,en;q=0.9,bg-BG;q=0.8,bg;q=0.7,en-US;q=0.6","615d8873c11a1982c8838b54","68764874ac79eee8c1d4cb03","687762f94221ce2e205f30e2","2","0","615d8873c11a1982c8838b54","2","0","2025-07-16T08:44:08.249Z","","","","","","","","","","","MotivationQ","","50","","","","","","","","","","","","","","","","","","","","","","","","","","","","",""
"","","","","ctl-task-cpt","54","839660","0.0-5.0-0.9","68","1","2025-07-16 08:31:01","1f75c3e559b7213887762d5229550c2b","2.84.221.131","Mozilla/5.0 (Windows NT 10.0; Win64; x64) AppleWebKit/537.36 (KHTML, like Gecko) Chrome/138.0.0.0 Safari/537.36","WebKit","Chrome","138.0.0.0","Windows","10.0","https://app.prolific.com/","en-GB,en;q=0.9,bg-BG;q=0.8,bg;q=0.7,en-US;q=0.6","615d8873c11a1982c8838b54","68764874ac79eee8c1d4cb03","687762f94221ce2e205f30e2","2","0","615d8873c11a1982c8838b54","2","0","2025-07-16T08:45:02.519Z","","","","","","","","","","","","","","win-only","3","g1:SW,g2:NE","0.4","10","0","787409.5","789.9","5794","51245.8","1","4","4","6","2","-4","-4","18","22","0.13636363636363635","763.8","3000","-2465","[""up"",""right""]","{""num_key_presses"":11,""num_perfect"":4,""num_errors"":0,""num_randdir"":7,""num_randdir_good_moves"":2,""num_whilered"":0,""num_whileblue"":0,""num_blue"":4,""num_good_moves"":6}","[420.57142857142856,414.47767857142856,0.4,420.57142857142856,414.47767857142856,101.8,429.57142857142856,445.47767857142856,207.1,452.57142857142856,448.47767857142856,311.1,529.5714285714286,351.47767857142856,413.4,734.5714285714286,138.47767857142856,519.1,746.5714285714286,100.47767857142857,621.8,747.5714285714286,90.47767857142857,722.7,747.5714285714286,89.47767857142857,842.5,747.5714285714286,89.47767857142857,950.4,747.5714285714286,89.47767857142857,1052.7,747.5714285714286,89.47767857142857,1167,747.5714285714286,89.47767857142857,1271.8,747.5714285714286,89.47767857142857,1372.5,747.5714285714286,89.47767857142857,1476.5,747.5714285714286,89.47767857142857,1578.9,747.5714285714286,89.47767857142857,1682,747.5714285714286,89.47767857142857,1786.1,747.5714285714286,89.47767857142857,1887.4,747.5714285714286,89.47767857142857,1999.7,747.5714285714286,89.47767857142857,2100.4,747.5714285714286,89.47767857142857,2200.8,747.5714285714286,89.47767857142857,2300.7,747.5714285714286,89.47767857142857,2401,747.5714285714286,89.47767857142857,2501.7,747.5714285714286,89.47767857142857,2608.7,747.5714285714286,89.47767857142857,2715.5,747.5714285714286,89.47767857142857,2820.5,747.5714285714286,89.47767857142857,2921.9,747.5714285714286,89.47767857142857,3032.7,747.5714285714286,89.47767857142857,3136,747.5714285714286,89.47767857142857,3236.9,747.5714285714286,89.47767857142857,3341.9,747.5714285714286,89.47767857142857,3442.8,747.5714285714286,89.47767857142857,3547.1,747.5714285714286,89.47767857142857,3650.8,747.5714285714286,89.47767857142857,3758.6,747.5714285714286,89.47767857142857,3865.2,747.5714285714286,89.47767857142857,3965.3,747.5714285714286,89.47767857142857,4073.6,747.5714285714286,89.47767857142857,4184.5,747.5714285714286,89.47767857142857,4289.2,747.5714285714286,89.47767857142857,4405.1,747.5714285714286,89.47767857142857,4506.6,747.5714285714286,89.47767857142857,4609.1,747.5714285714286,89.47767857142857,4710.9,747.5714285714286,89.47767857142857,4816.6,747.5714285714286,89.47767857142857,4923.4]","[1330.6,1330.6,1000,0,330.6,""smooth"",""up"",""up"",""good_move"",4099.5,2768.6,2457.2,1330.9,311.4,""smooth"",""up"",""up"",""good_move"",6693.8,2594.1,2284,4099.8,310,""oops"",""up"",""left"",""bad_move"",9616.3,2921.8,2521.2,6694.5,400.7,""smooth"",""up"",""up"",""good_move"",11576.5,1959.8,1560.8,9616.7,399,""smooth"",""right"",""right"",""good_move"",17475.4,5898.3,2607.4,14507.4,360.6,""oops"",""right"",""left"",""bad_move"",20590.8,3114.9,2726.8,17476,388.1,""oops"",""right"",""left"",""bad_move"",23863.5,3272.2,2959.6,20591.3,312.6,""oops"",""right"",""up"",""good_move"",27059.8,3195.8,2843.9,23864,351.9,""oops"",""right"",""right"",""good_move"",33327.5,6267.2,2140.6,30820,366.9,""oops"",""right"",""left"",""bad_move"",42617.2,9289.2,1983.8,40277.2,356.2,""oops"",""right"",""down"",""bad_move""]","",""
"3204","","<div style=""width:500px;"">
  <p>What determined the result of this run?</p>
  </div>","0","html-slider-response","55","842865","0.0-5.0-1.9","68","1","2025-07-16 08:31:01","1f75c3e559b7213887762d5229550c2b","2.84.221.131","Mozilla/5.0 (Windows NT 10.0; Win64; x64) AppleWebKit/537.36 (KHTML, like Gecko) Chrome/138.0.0.0 Safari/537.36","WebKit","Chrome","138.0.0.0","Windows","10.0","https://app.prolific.com/","en-GB,en;q=0.9,bg-BG;q=0.8,bg;q=0.7,en-US;q=0.6","615d8873c11a1982c8838b54","68764874ac79eee8c1d4cb03","687762f94221ce2e205f30e2","2","0","615d8873c11a1982c8838b54","2","0","2025-07-16T08:45:05.724Z","","","","","","","","","","","AttribQ","","50","","","","","","","","","","","","","","","","","","","","","","","","","","","","",""
"2162","","<div style=""width:500px;"">
  <p>How much control did you have over the ball?</p>
  </div>","0","html-slider-response","56","845029","0.0-5.0-2.9","68","1","2025-07-16 08:31:01","1f75c3e559b7213887762d5229550c2b","2.84.221.131","Mozilla/5.0 (Windows NT 10.0; Win64; x64) AppleWebKit/537.36 (KHTML, like Gecko) Chrome/138.0.0.0 Safari/537.36","WebKit","Chrome","138.0.0.0","Windows","10.0","https://app.prolific.com/","en-GB,en;q=0.9,bg-BG;q=0.8,bg;q=0.7,en-US;q=0.6","615d8873c11a1982c8838b54","68764874ac79eee8c1d4cb03","687762f94221ce2e205f30e2","2","0","615d8873c11a1982c8838b54","2","0","2025-07-16T08:45:07.888Z","","","","","","","","","","","ControlQ","","50","","","","","","","","","","","","","","","","","","","","","","","","","","","","",""
"4437","","<div style=""width:500px;"">
  <p>How would you describe your current emotional state?</p>
  </div>","26","html-slider-response","57","849469","0.0-5.0-3.9","68","1","2025-07-16 08:31:01","1f75c3e559b7213887762d5229550c2b","2.84.221.131","Mozilla/5.0 (Windows NT 10.0; Win64; x64) AppleWebKit/537.36 (KHTML, like Gecko) Chrome/138.0.0.0 Safari/537.36","WebKit","Chrome","138.0.0.0","Windows","10.0","https://app.prolific.com/","en-GB,en;q=0.9,bg-BG;q=0.8,bg;q=0.7,en-US;q=0.6","615d8873c11a1982c8838b54","68764874ac79eee8c1d4cb03","687762f94221ce2e205f30e2","2","0","615d8873c11a1982c8838b54","2","0","2025-07-16T08:45:12.328Z","","","","","","","","","","","StressQ","","50","","","","","","","","","","","","","","","","","","","","","","","","","","","","",""
"2400","","<div style=""width:500px;"">
  <p>What best describes how you currently feel?</p>
  </div>","66","html-slider-response","58","851871","0.0-5.0-4.9","68","1","2025-07-16 08:31:01","1f75c3e559b7213887762d5229550c2b","2.84.221.131","Mozilla/5.0 (Windows NT 10.0; Win64; x64) AppleWebKit/537.36 (KHTML, like Gecko) Chrome/138.0.0.0 Safari/537.36","WebKit","Chrome","138.0.0.0","Windows","10.0","https://app.prolific.com/","en-GB,en;q=0.9,bg-BG;q=0.8,bg;q=0.7,en-US;q=0.6","615d8873c11a1982c8838b54","68764874ac79eee8c1d4cb03","687762f94221ce2e205f30e2","2","0","615d8873c11a1982c8838b54","2","0","2025-07-16T08:45:14.731Z","","","","","","","","","","","MotivationQ","","50","","","","","","","","","","","","","","","","","","","","","","","","","","","","",""
"","","","","ctl-task-cpt","59","907435","0.0-5.0-0.10","68","1","2025-07-16 08:31:01","1f75c3e559b7213887762d5229550c2b","2.84.221.131","Mozilla/5.0 (Windows NT 10.0; Win64; x64) AppleWebKit/537.36 (KHTML, like Gecko) Chrome/138.0.0.0 Safari/537.36","WebKit","Chrome","138.0.0.0","Windows","10.0","https://app.prolific.com/","en-GB,en;q=0.9,bg-BG;q=0.8,bg;q=0.7,en-US;q=0.6","615d8873c11a1982c8838b54","68764874ac79eee8c1d4cb03","687762f94221ce2e205f30e2","2","0","615d8873c11a1982c8838b54","2","0","2025-07-16T08:46:10.294Z","","","","","","","","","","","","","","win-only","1","g1:NE,g2:SW","0.5","11","0","853891.8","921.6","5925.9","52531.8","1","4","4","6","2","-4","-4","14","18","0.10606060606060606","918.9","3000","-2390","[""down"",""left""]","{""num_key_presses"":11,""num_perfect"":5,""num_errors"":0,""num_randdir"":6,""num_randdir_good_moves"":1,""num_whilered"":0,""num_whileblue"":0,""num_blue"":4,""num_good_moves"":6}","[416.57142857142856,419.47767857142856,0.3,416.57142857142856,419.47767857142856,104.6,416.57142857142856,420.47767857142856,209.6,441.57142857142856,447.47767857142856,310.9,529.5714285714286,402.47767857142856,415.2,359.57142857142856,503.47767857142856,520.1,144.57142857142856,736.4776785714286,636.8,87.57142857142857,792.4776785714286,738.8,79.57142857142857,796.4776785714286,839.7,78.57142857142857,795.4776785714286,953,78.57142857142857,795.4776785714286,1054.7,78.57142857142857,795.4776785714286,1155.2,78.57142857142857,795.4776785714286,1255.9,78.57142857142857,795.4776785714286,1369.4,78.57142857142857,795.4776785714286,1472.1,78.57142857142857,795.4776785714286,1574.5,78.57142857142857,795.4776785714286,1674.8,78.57142857142857,795.4776785714286,1779,78.57142857142857,795.4776785714286,1895.7,78.57142857142857,795.4776785714286,1999.9,78.57142857142857,795.4776785714286,2104.6,78.57142857142857,795.4776785714286,2204.6,78.57142857142857,795.4776785714286,2305,78.57142857142857,795.4776785714286,2406.5,78.57142857142857,795.4776785714286,2509,78.57142857142857,795.4776785714286,2610,78.57142857142857,795.4776785714286,2710.7,78.57142857142857,795.4776785714286,2814.5,78.57142857142857,795.4776785714286,2914.6,78.57142857142857,795.4776785714286,3015.8,78.57142857142857,795.4776785714286,3120.8,78.57142857142857,795.4776785714286,3235.9,78.57142857142857,795.4776785714286,3336.6,78.57142857142857,795.4776785714286,3438,78.57142857142857,795.4776785714286,3545.2,78.57142857142857,795.4776785714286,3653.2,78.57142857142857,795.4776785714286,3753.9,78.57142857142857,795.4776785714286,3859.7,78.57142857142857,795.4776785714286,3970.9,78.57142857142857,795.4776785714286,4074.1,78.57142857142857,795.4776785714286,4175.7,78.57142857142857,795.4776785714286,4291.1,78.57142857142857,795.4776785714286,4391.3,78.57142857142857,795.4776785714286,4504.8,78.57142857142857,795.4776785714286,4610.4,78.57142857142857,795.4776785714286,4716.6,78.57142857142857,795.4776785714286,4820.7,78.57142857142857,795.4776785714286,4936.2]","[1318.3,1318.3,1000,0,318.3,""smooth"",""down"",""down"",""good_move"",3846.7,2527.7,2179,1319,348.7,""smooth"",""down"",""down"",""good_move"",6012.8,2165.7,1799.7,3847.1,366,""oops"",""down"",""up"",""bad_move"",9466.4,3453.1,3106.5,6013.4,346.6,""smooth"",""down"",""down"",""good_move"",12113.1,2646.2,2280.5,9466.9,365.7,""smooth"",""down"",""down"",""good_move"",14932.5,2819,2480.2,12113.5,338.8,""oops"",""left"",""right"",""bad_move"",17597.4,2664.3,2295,14933.1,369.3,""oops"",""left"",""right"",""bad_move"",23728.6,6130.6,2469.5,20821.3,437.8,""oops"",""left"",""left"",""good_move"",26843.2,3114,2709.8,23729.2,404.2,""smooth"",""left"",""left"",""good_move"",33419.6,6575.8,2758.6,30270.5,390.5,""oops"",""left"",""right"",""bad_move"",39635.8,6215.8,2471.4,36768.1,396.3,""oops"",""left"",""right"",""bad_move""]","",""
"4388","","<div style=""width:500px;"">
  <p>What determined the result of this run?</p>
  </div>","0","html-slider-response","60","911825","0.0-5.0-1.10","68","1","2025-07-16 08:31:01","1f75c3e559b7213887762d5229550c2b","2.84.221.131","Mozilla/5.0 (Windows NT 10.0; Win64; x64) AppleWebKit/537.36 (KHTML, like Gecko) Chrome/138.0.0.0 Safari/537.36","WebKit","Chrome","138.0.0.0","Windows","10.0","https://app.prolific.com/","en-GB,en;q=0.9,bg-BG;q=0.8,bg;q=0.7,en-US;q=0.6","615d8873c11a1982c8838b54","68764874ac79eee8c1d4cb03","687762f94221ce2e205f30e2","2","0","615d8873c11a1982c8838b54","2","0","2025-07-16T08:46:14.684Z","","","","","","","","","","","AttribQ","","50","","","","","","","","","","","","","","","","","","","","","","","","","","","","",""
"2817","","<div style=""width:500px;"">
  <p>How much control did you have over the ball?</p>
  </div>","0","html-slider-response","61","914644","0.0-5.0-2.10","68","1","2025-07-16 08:31:01","1f75c3e559b7213887762d5229550c2b","2.84.221.131","Mozilla/5.0 (Windows NT 10.0; Win64; x64) AppleWebKit/537.36 (KHTML, like Gecko) Chrome/138.0.0.0 Safari/537.36","WebKit","Chrome","138.0.0.0","Windows","10.0","https://app.prolific.com/","en-GB,en;q=0.9,bg-BG;q=0.8,bg;q=0.7,en-US;q=0.6","615d8873c11a1982c8838b54","68764874ac79eee8c1d4cb03","687762f94221ce2e205f30e2","2","0","615d8873c11a1982c8838b54","2","0","2025-07-16T08:46:17.503Z","","","","","","","","","","","ControlQ","","50","","","","","","","","","","","","","","","","","","","","","","","","","","","","",""
"3561","","<div style=""width:500px;"">
  <p>How would you describe your current emotional state?</p>
  </div>","29","html-slider-response","62","918208","0.0-5.0-3.10","68","1","2025-07-16 08:31:01","1f75c3e559b7213887762d5229550c2b","2.84.221.131","Mozilla/5.0 (Windows NT 10.0; Win64; x64) AppleWebKit/537.36 (KHTML, like Gecko) Chrome/138.0.0.0 Safari/537.36","WebKit","Chrome","138.0.0.0","Windows","10.0","https://app.prolific.com/","en-GB,en;q=0.9,bg-BG;q=0.8,bg;q=0.7,en-US;q=0.6","615d8873c11a1982c8838b54","68764874ac79eee8c1d4cb03","687762f94221ce2e205f30e2","2","0","615d8873c11a1982c8838b54","2","0","2025-07-16T08:46:21.067Z","","","","","","","","","","","StressQ","","50","","","","","","","","","","","","","","","","","","","","","","","","","","","","",""
"2052","","<div style=""width:500px;"">
  <p>What best describes how you currently feel?</p>
  </div>","64","html-slider-response","63","920262","0.0-5.0-4.10","68","1","2025-07-16 08:31:01","1f75c3e559b7213887762d5229550c2b","2.84.221.131","Mozilla/5.0 (Windows NT 10.0; Win64; x64) AppleWebKit/537.36 (KHTML, like Gecko) Chrome/138.0.0.0 Safari/537.36","WebKit","Chrome","138.0.0.0","Windows","10.0","https://app.prolific.com/","en-GB,en;q=0.9,bg-BG;q=0.8,bg;q=0.7,en-US;q=0.6","615d8873c11a1982c8838b54","68764874ac79eee8c1d4cb03","687762f94221ce2e205f30e2","2","0","615d8873c11a1982c8838b54","2","0","2025-07-16T08:46:23.121Z","","","","","","","","","","","MotivationQ","","50","","","","","","","","","","","","","","","","","","","","","","","","","","","","",""
"","","","","ctl-task-cpt","64","962095","0.0-5.0-0.11","68","1","2025-07-16 08:31:01","1f75c3e559b7213887762d5229550c2b","2.84.221.131","Mozilla/5.0 (Windows NT 10.0; Win64; x64) AppleWebKit/537.36 (KHTML, like Gecko) Chrome/138.0.0.0 Safari/537.36","WebKit","Chrome","138.0.0.0","Windows","10.0","https://app.prolific.com/","en-GB,en;q=0.9,bg-BG;q=0.8,bg;q=0.7,en-US;q=0.6","615d8873c11a1982c8838b54","68764874ac79eee8c1d4cb03","687762f94221ce2e205f30e2","2","0","615d8873c11a1982c8838b54","2","0","2025-07-16T08:47:04.954Z","","","","","","","","","","","","","","win-only","1","g1:NE,g2:SW","0.6","12","0","922283","1568.5","6572","38792.8","1","4","8","6","2","8","8","22","14","0.16666666666666666","926.1","3000","2235","[""down"",""left""]","{""num_key_presses"":8,""num_perfect"":5,""num_errors"":0,""num_randdir"":3,""num_randdir_good_moves"":2,""num_whilered"":0,""num_whileblue"":0,""num_blue"":2,""num_good_moves"":7}","[421.57142857142856,416.47767857142856,0.4,421.57142857142856,416.47767857142856,105.5,418.57142857142856,422.47767857142856,208.7,430.57142857142856,386.47767857142856,311.2,347.57142857142856,417.47767857142856,416.3,222.57142857142856,577.4776785714286,517.1,187.57142857142856,665.4776785714286,618.7,145.57142857142856,728.4776785714286,724.4,105.57142857142857,757.4776785714286,836.5,101.57142857142857,761.4776785714286,940,101.57142857142857,761.4776785714286,1042.4,101.57142857142857,761.4776785714286,1143.9,101.57142857142857,761.4776785714286,1244.8,101.57142857142857,761.4776785714286,1346.4,101.57142857142857,761.4776785714286,1449.6,101.57142857142857,761.4776785714286,1553.7,101.57142857142857,761.4776785714286,1655.7,101.57142857142857,761.4776785714286,1768.3,101.57142857142857,761.4776785714286,1875.8,101.57142857142857,761.4776785714286,1982.3,101.57142857142857,761.4776785714286,2088.9,101.57142857142857,761.4776785714286,2194.7,101.57142857142857,761.4776785714286,2296.4,101.57142857142857,761.4776785714286,2398.1,101.57142857142857,761.4776785714286,2512.9,101.57142857142857,761.4776785714286,2613,101.57142857142857,761.4776785714286,2713.6,101.57142857142857,761.4776785714286,2817.2,101.57142857142857,761.4776785714286,2922.6,101.57142857142857,761.4776785714286,3030.8,101.57142857142857,761.4776785714286,3138.2,101.57142857142857,761.4776785714286,3253.9,101.57142857142857,761.4776785714286,3369.6,101.57142857142857,761.4776785714286,3475.6,101.57142857142857,761.4776785714286,3580.3,101.57142857142857,761.4776785714286,3684.2,101.57142857142857,761.4776785714286,3787.8,101.57142857142857,761.4776785714286,3898.7,101.57142857142857,761.4776785714286,4009.4,101.57142857142857,761.4776785714286,4123.4,101.57142857142857,761.4776785714286,4224.3,101.57142857142857,761.4776785714286,4326.3,101.57142857142857,761.4776785714286,4434.3,101.57142857142857,761.4776785714286,4538.2,101.57142857142857,761.4776785714286,4640.7,101.57142857142857,761.4776785714286,4749.6,101.57142857142857,761.4776785714286,4852.9,101.57142857142857,761.4776785714286,4958.6]","[1388.1,1388.1,1000,0,388.1,""oops"",""down"",""up"",""bad_move"",7670.1,6281.2,2280,4942.5,447.6,""smooth"",""down"",""down"",""good_move"",10368.8,2698.1,2220.6,7670.7,477.5,""smooth"",""down"",""down"",""good_move"",13763.9,3394.6,2995.2,10369.3,399.4,""smooth"",""down"",""down"",""good_move"",19310,5545.6,1850.4,17098.2,361.4,""smooth"",""down"",""down"",""good_move"",22756.2,3445.6,3007.5,19310.6,438.1,""smooth"",""left"",""left"",""good_move"",27180.9,4424,2508.2,22756.9,1915.8,""oops"",""left"",""left"",""good_move"",31755.8,4574.3,2304,27181.5,2270.3,""oops"",""left"",""left"",""good_move""]","",""
"3839","","<div style=""width:500px;"">
  <p>What determined the result of this run?</p>
  </div>","66","html-slider-response","65","965938","0.0-5.0-1.11","68","1","2025-07-16 08:31:01","1f75c3e559b7213887762d5229550c2b","2.84.221.131","Mozilla/5.0 (Windows NT 10.0; Win64; x64) AppleWebKit/537.36 (KHTML, like Gecko) Chrome/138.0.0.0 Safari/537.36","WebKit","Chrome","138.0.0.0","Windows","10.0","https://app.prolific.com/","en-GB,en;q=0.9,bg-BG;q=0.8,bg;q=0.7,en-US;q=0.6","615d8873c11a1982c8838b54","68764874ac79eee8c1d4cb03","687762f94221ce2e205f30e2","2","0","615d8873c11a1982c8838b54","2","0","2025-07-16T08:47:08.797Z","","","","","","","","","","","AttribQ","","50","","","","","","","","","","","","","","","","","","","","","","","","","","","","",""
"2764","","<div style=""width:500px;"">
  <p>How much control did you have over the ball?</p>
  </div>","77","html-slider-response","66","968710","0.0-5.0-2.11","68","1","2025-07-16 08:31:01","1f75c3e559b7213887762d5229550c2b","2.84.221.131","Mozilla/5.0 (Windows NT 10.0; Win64; x64) AppleWebKit/537.36 (KHTML, like Gecko) Chrome/138.0.0.0 Safari/537.36","WebKit","Chrome","138.0.0.0","Windows","10.0","https://app.prolific.com/","en-GB,en;q=0.9,bg-BG;q=0.8,bg;q=0.7,en-US;q=0.6","615d8873c11a1982c8838b54","68764874ac79eee8c1d4cb03","687762f94221ce2e205f30e2","2","0","615d8873c11a1982c8838b54","2","0","2025-07-16T08:47:11.569Z","","","","","","","","","","","ControlQ","","50","","","","","","","","","","","","","","","","","","","","","","","","","","","","",""
"2122","","<div style=""width:500px;"">
  <p>How would you describe your current emotional state?</p>
  </div>","28","html-slider-response","67","970838","0.0-5.0-3.11","68","1","2025-07-16 08:31:01","1f75c3e559b7213887762d5229550c2b","2.84.221.131","Mozilla/5.0 (Windows NT 10.0; Win64; x64) AppleWebKit/537.36 (KHTML, like Gecko) Chrome/138.0.0.0 Safari/537.36","WebKit","Chrome","138.0.0.0","Windows","10.0","https://app.prolific.com/","en-GB,en;q=0.9,bg-BG;q=0.8,bg;q=0.7,en-US;q=0.6","615d8873c11a1982c8838b54","68764874ac79eee8c1d4cb03","687762f94221ce2e205f30e2","2","0","615d8873c11a1982c8838b54","2","0","2025-07-16T08:47:13.697Z","","","","","","","","","","","StressQ","","50","","","","","","","","","","","","","","","","","","","","","","","","","","","","",""
"2156","","<div style=""width:500px;"">
  <p>What best describes how you currently feel?</p>
  </div>","72","html-slider-response","68","973000","0.0-5.0-4.11","68","1","2025-07-16 08:31:01","1f75c3e559b7213887762d5229550c2b","2.84.221.131","Mozilla/5.0 (Windows NT 10.0; Win64; x64) AppleWebKit/537.36 (KHTML, like Gecko) Chrome/138.0.0.0 Safari/537.36","WebKit","Chrome","138.0.0.0","Windows","10.0","https://app.prolific.com/","en-GB,en;q=0.9,bg-BG;q=0.8,bg;q=0.7,en-US;q=0.6","615d8873c11a1982c8838b54","68764874ac79eee8c1d4cb03","687762f94221ce2e205f30e2","2","0","615d8873c11a1982c8838b54","2","0","2025-07-16T08:47:15.859Z","","","","","","","","","","","MotivationQ","","50","","","","","","","","","","","","","","","","","","","","","","","","","","","","",""
"","","","","ctl-task-cpt","69","1040050","0.0-5.0-0.12","68","1","2025-07-16 08:31:01","1f75c3e559b7213887762d5229550c2b","2.84.221.131","Mozilla/5.0 (Windows NT 10.0; Win64; x64) AppleWebKit/537.36 (KHTML, like Gecko) Chrome/138.0.0.0 Safari/537.36","WebKit","Chrome","138.0.0.0","Windows","10.0","https://app.prolific.com/","en-GB,en;q=0.9,bg-BG;q=0.8,bg;q=0.7,en-US;q=0.6","615d8873c11a1982c8838b54","68764874ac79eee8c1d4cb03","687762f94221ce2e205f30e2","2","0","615d8873c11a1982c8838b54","2","0","2025-07-16T08:48:22.909Z","","","","","","","","","","","","","","win-only","3","g1:SW,g2:NE","0.7","13","0","975022.7","2835.4","7878.6","63982.1","1","4","8","6","2","8","7","29","22","0.2196969696969697","953.6","3000","2550","[""up"",""right""]","{""num_key_presses"":11,""num_perfect"":7,""num_errors"":1,""num_randdir"":3,""num_randdir_good_moves"":1,""num_whilered"":0,""num_whileblue"":0,""num_blue"":0,""num_good_moves"":8}","[414.57142857142856,415.47767857142856,0.4,414.57142857142856,415.47767857142856,139.4,414.57142857142856,415.47767857142856,267.1,420.57142857142856,416.47767857142856,407.2,460.57142857142856,399.47767857142856,507.5,678.5714285714286,208.47767857142856,648.8,747.5714285714286,138.47767857142856,763.1,780.5714285714286,90.47767857142857,870.2,784.5714285714286,79.47767857142857,974.8,784.5714285714286,79.47767857142857,1113.9,784.5714285714286,79.47767857142857,1251.3,784.5714285714286,79.47767857142857,1398.8,784.5714285714286,79.47767857142857,1518.4,784.5714285714286,79.47767857142857,1651.7,784.5714285714286,79.47767857142857,1753.8,784.5714285714286,79.47767857142857,1860.6,784.5714285714286,79.47767857142857,1968.1,784.5714285714286,79.47767857142857,2077.7,784.5714285714286,79.47767857142857,2180.6,784.5714285714286,79.47767857142857,2322.8,784.5714285714286,79.47767857142857,2459.5,784.5714285714286,79.47767857142857,2583,784.5714285714286,79.47767857142857,2718.4,784.5714285714286,79.47767857142857,2856.8,784.5714285714286,79.47767857142857,2981.3,784.5714285714286,79.47767857142857,3123.9,784.5714285714286,79.47767857142857,3252.1,784.5714285714286,79.47767857142857,3390.7,784.5714285714286,79.47767857142857,3496.3,784.5714285714286,79.47767857142857,3645,784.5714285714286,79.47767857142857,3772.9,784.5714285714286,79.47767857142857,3876.9,784.5714285714286,79.47767857142857,4003.9,784.5714285714286,79.47767857142857,4130.2,784.5714285714286,79.47767857142857,4254.6,784.5714285714286,79.47767857142857,4387.5,784.5714285714286,79.47767857142857,4521.2,784.5714285714286,79.47767857142857,4645.9,784.5714285714286,79.47767857142857,4793.4,784.5714285714286,79.47767857142857,4900.1]","[1477.6,1477.6,1000,0,477.6,""smooth"",""up"",""up"",""good_move"",10497.2,9019,2531.2,1478.2,6487.8,""oops"",""up"",""left"",""bad_move"",19867.6,9370.1,2581.6,10497.5,6788.5,""smooth"",""up"",""up"",""good_move"",29486.3,9618.1,3009.6,19868.2,6608.5,""oops"",""up"",""up"",""good_move"",39340.5,9853.7,3363.3,29486.8,6490.4,""smooth"",""right"",""right"",""good_move"",39489.7,148.6,2241,39341.1,-2092.4,""error"",""-"",""-"",""no_move"",43067.4,3577.3,1831,40509.6,726.8,""smooth"",""right"",""right"",""good_move"",45806.1,2738.2,2141.9,43067.9,596.4,""oops"",""right"",""down"",""bad_move"",49173.1,3366.1,2766,45807,600.1,""smooth"",""right"",""right"",""good_move"",52252.5,3078.9,2343.6,49173.6,735.3,""smooth"",""right"",""right"",""good_move"",55163.9,2910.4,2470.9,52253.5,439.5,""smooth"",""up"",""up"",""good_move""]","",""
"3646","","<div style=""width:500px;"">
  <p>What determined the result of this run?</p>
  </div>","24","html-slider-response","70","1043701","0.0-5.0-1.12","68","1","2025-07-16 08:31:01","1f75c3e559b7213887762d5229550c2b","2.84.221.131","Mozilla/5.0 (Windows NT 10.0; Win64; x64) AppleWebKit/537.36 (KHTML, like Gecko) Chrome/138.0.0.0 Safari/537.36","WebKit","Chrome","138.0.0.0","Windows","10.0","https://app.prolific.com/","en-GB,en;q=0.9,bg-BG;q=0.8,bg;q=0.7,en-US;q=0.6","615d8873c11a1982c8838b54","68764874ac79eee8c1d4cb03","687762f94221ce2e205f30e2","2","0","615d8873c11a1982c8838b54","2","0","2025-07-16T08:48:26.560Z","","","","","","","","","","","AttribQ","","50","","","","","","","","","","","","","","","","","","","","","","","","","","","","",""
"4726","","<div style=""width:500px;"">
  <p>How much control did you have over the ball?</p>
  </div>","52","html-slider-response","71","1048434","0.0-5.0-2.12","68","1","2025-07-16 08:31:01","1f75c3e559b7213887762d5229550c2b","2.84.221.131","Mozilla/5.0 (Windows NT 10.0; Win64; x64) AppleWebKit/537.36 (KHTML, like Gecko) Chrome/138.0.0.0 Safari/537.36","WebKit","Chrome","138.0.0.0","Windows","10.0","https://app.prolific.com/","en-GB,en;q=0.9,bg-BG;q=0.8,bg;q=0.7,en-US;q=0.6","615d8873c11a1982c8838b54","68764874ac79eee8c1d4cb03","687762f94221ce2e205f30e2","2","0","615d8873c11a1982c8838b54","2","0","2025-07-16T08:48:31.293Z","","","","","","","","","","","ControlQ","","50","","","","","","","","","","","","","","","","","","","","","","","","","","","","",""
"3040","","<div style=""width:500px;"">
  <p>How would you describe your current emotional state?</p>
  </div>","30","html-slider-response","72","1051481","0.0-5.0-3.12","68","1","2025-07-16 08:31:01","1f75c3e559b7213887762d5229550c2b","2.84.221.131","Mozilla/5.0 (Windows NT 10.0; Win64; x64) AppleWebKit/537.36 (KHTML, like Gecko) Chrome/138.0.0.0 Safari/537.36","WebKit","Chrome","138.0.0.0","Windows","10.0","https://app.prolific.com/","en-GB,en;q=0.9,bg-BG;q=0.8,bg;q=0.7,en-US;q=0.6","615d8873c11a1982c8838b54","68764874ac79eee8c1d4cb03","687762f94221ce2e205f30e2","2","0","615d8873c11a1982c8838b54","2","0","2025-07-16T08:48:34.340Z","","","","","","","","","","","StressQ","","50","","","","","","","","","","","","","","","","","","","","","","","","","","","","",""
"2130","","<div style=""width:500px;"">
  <p>What best describes how you currently feel?</p>
  </div>","71","html-slider-response","73","1053620","0.0-5.0-4.12","68","1","2025-07-16 08:31:01","1f75c3e559b7213887762d5229550c2b","2.84.221.131","Mozilla/5.0 (Windows NT 10.0; Win64; x64) AppleWebKit/537.36 (KHTML, like Gecko) Chrome/138.0.0.0 Safari/537.36","WebKit","Chrome","138.0.0.0","Windows","10.0","https://app.prolific.com/","en-GB,en;q=0.9,bg-BG;q=0.8,bg;q=0.7,en-US;q=0.6","615d8873c11a1982c8838b54","68764874ac79eee8c1d4cb03","687762f94221ce2e205f30e2","2","0","615d8873c11a1982c8838b54","2","0","2025-07-16T08:48:36.479Z","","","","","","","","","","","MotivationQ","","50","","","","","","","","","","","","","","","","","","","","","","","","","","","","",""
