"rt","response_timestamp","stimulus","response","trial_type","trial_index","time_elapsed","internal_node_id","run_id","condition","recorded_at","source_code_version","ip","user_agent","device","browser","browser_version","platform","platform_version","referer","accept_language","PROLIFIC_PID","STUDY_ID","SESSION_ID","WEEK","prolific_id","week","realtime","success","responses","item_order","radio_event_ids","radio_event_times","key_event_times","mouse_event_times","straightlining","zigzagging","honeypot","eventType","view_history","slider_start","which_type","canvas_config","goals_layout","control_level","trial_number","tutorial_trial_number","trial_start_time","phase1_start_time","phase2_start_time","phase3_start_time","goal_1_value","goal_1_distance","goal_2_value","goal_2_distance","goal_selected","outcome","outcome_total","participant_final_score","participant_initial_score","participant_final_score_prop","goal_choice_rt","allocated_time","allocated_time_remaining","goal_direction","counts","mouse_movements","key_presses","question_order","question_id"
"1212","1752053282727","<p style='font-size:40px;line-height:1.25'><strong>Welcome to the experiment!</strong></p><p style='font-size:1.1em;line-height:1.25'>Thank you for participanting in our experiment again! You will be asked to play the Dysfunctional Ball Game again. We will briefly recap the rules before we start.</p><p style='font-size:1.1em;line-height:1.25'>Press <strong>Next</strong> to continue.</p>","0","custom-html-button-response","0","1215","0.0-0.0","23","1","2025-07-09 09:28:01","01610cd0009c79a99da7d0a3353eb402","212.159.106.248","Mozilla/5.0 (Windows NT 10.0; Win64; x64) AppleWebKit/537.36 (KHTML, like Gecko) Chrome/137.0.0.0 Safari/537.36","WebKit","Chrome","137.0.0.0","Windows","10.0","https://app.prolific.com/","en-US,en;q=0.9","5d8e154af2858200171fdb95","683db7602f5db6a34d12d064","686e361bf46cda1e90dee8bb","1","5d8e154af2858200171fdb95","1","2025-07-09T09:28:02.729Z","","","","","","","","","","","","","","","","","","","","","","","","","","","","","","","","","","","","","","","","","",""
"1170","","","","fullscreen","1","3403","0.0-1.0","23","1","2025-07-09 09:28:01","01610cd0009c79a99da7d0a3353eb402","212.159.106.248","Mozilla/5.0 (Windows NT 10.0; Win64; x64) AppleWebKit/537.36 (KHTML, like Gecko) Chrome/137.0.0.0 Safari/537.36","WebKit","Chrome","137.0.0.0","Windows","10.0","https://app.prolific.com/","en-US,en;q=0.9","5d8e154af2858200171fdb95","683db7602f5db6a34d12d064","686e361bf46cda1e90dee8bb","1","5d8e154af2858200171fdb95","1","","true","","","","","","","","","","","","","","","","","","","","","","","","","","","","","","","","","","","","","","","","",""
"1384","1752053286300","<p style='font-size:1.1em;line-height:1.25'>In the following, we will ask you a few questions relating to your feelings in the last 24 hours.<br></p><p style='font-size:1.1em;line-height:1.25'>Press the <strong>Next</strong> button to continue.</p>","0","custom-html-button-response","2","4788","0.0-2.0-0.0","23","1","2025-07-09 09:28:01","01610cd0009c79a99da7d0a3353eb402","212.159.106.248","Mozilla/5.0 (Windows NT 10.0; Win64; x64) AppleWebKit/537.36 (KHTML, like Gecko) Chrome/137.0.0.0 Safari/537.36","WebKit","Chrome","137.0.0.0","Windows","10.0","https://app.prolific.com/","en-US,en;q=0.9","5d8e154af2858200171fdb95","683db7602f5db6a34d12d064","686e361bf46cda1e90dee8bb","1","5d8e154af2858200171fdb95","1","2025-07-09T09:28:06.301Z","","","","","","","","","","","","","","","","","","","","","","","","","","","","","","","","","","","","","","","","","",""
"31613","","","","survey-template","3","36409","0.0-2.0-1.0","23","1","2025-07-09 09:28:01","01610cd0009c79a99da7d0a3353eb402","212.159.106.248","Mozilla/5.0 (Windows NT 10.0; Win64; x64) AppleWebKit/537.36 (KHTML, like Gecko) Chrome/137.0.0.0 Safari/537.36","WebKit","Chrome","137.0.0.0","Windows","10.0","https://app.prolific.com/","en-US,en;q=0.9","5d8e154af2858200171fdb95","683db7602f5db6a34d12d064","686e361bf46cda1e90dee8bb","1","5d8e154af2858200171fdb95","1","2025-07-09T09:28:37.922Z","","{""Q01"":""0"",""Q02"":""0"",""Q03"":""0"",""Q04"":""0"",""Q05"":""1"",""Q06"":""0"",""Q07"":""0"",""Q08"":""0"",""Q09"":""0"",""Q10"":""0"",""Q11"":""0"",""Q12"":""0"",""Q13"":""5"",""Q14"":""1"",""Q15"":""0"",""Q16"":""0"",""Q17"":""0"",""Q18"":""0"",""Q19"":""0"",""Q20"":""0"",""Q21"":""0"",""Q22"":""0""}","[0,1,2,3,4,5,6,7,8,9,10,11,12,13,14,15,16,17,18,19,20,21]","[""Q01"",""Q02"",""Q03"",""Q04"",""Q05"",""Q07"",""Q05"",""Q08"",""Q09"",""Q10"",""Q11"",""Q12"",""Q13"",""Q13"",""Q14"",""Q14"",""Q15"",""Q16"",""Q17"",""Q18"",""Q19"",""Q20"",""Q21"",""Q22"",""Q06""]","[2481.0999999940395,2699.6999999955297,2883.39999999851,3050.2999999970198,3197.89999999851,3666.2999999970198,4482.0999999940395,6019.0999999940395,6366.69999999553,8135,8721.89999999851,9939.5,10219.5,12627.39999999851,13726.79999999702,14193.5,15160.69999999553,15362.29999999702,15544.39999999851,15730.5,15911,19030.09999999404,19266,19648.79999999702,26474.29999999702]","[]","[0.29999999701976776,2481.0999999940395,2699.6999999955297,2883.39999999851,3050.2999999970198,3197.89999999851,3348.39999999851,3515.6999999955297,3666.2999999970198,4482.0999999940395,4766.69999999553,6019.0999999940395,6366.69999999553,6550.39999999851,6715.5999999940395,6880.19999999553,7048.39999999851,8135,8721.89999999851,9939.5,10219.5,12627.39999999851,13726.79999999702,14193.5,15160.69999999553,15362.29999999702,15544.39999999851,15730.5,15911,19030.09999999404,19266,19648.79999999702,23521.39999999851,26474.29999999702,31606.59999999404]","0.8636363636363636","0.19047619047619047","0","drsp","","","","","","","","","","","","","","","","","","","","","","","","","","","","","","",""
"4763.29999999702","","","","survey-template","4","41176","0.0-2.0-2.0","23","1","2025-07-09 09:28:01","01610cd0009c79a99da7d0a3353eb402","212.159.106.248","Mozilla/5.0 (Windows NT 10.0; Win64; x64) AppleWebKit/537.36 (KHTML, like Gecko) Chrome/137.0.0.0 Safari/537.36","WebKit","Chrome","137.0.0.0","Windows","10.0","https://app.prolific.com/","en-US,en;q=0.9","5d8e154af2858200171fdb95","683db7602f5db6a34d12d064","686e361bf46cda1e90dee8bb","1","5d8e154af2858200171fdb95","1","2025-07-09T09:28:42.689Z","","{""Q01"":""1"",""Q02"":""5"",""Q03"":""0""}","[0,1,2]","[""Q01"",""Q02"",""Q03""]","[2704.10000000149,2925.2999999970198,3843.5]","[]","[2704.10000000149,2925.2999999970198,3125,3843.5,4762.29999999702]","0.6666666666666666","0.5","0","stress","","","","","","","","","","","","","","","","","","","","","","","","","","","","","","",""
"26247","","","","instructions","5","67424","0.0-3.0-0.0","23","1","2025-07-09 09:28:01","01610cd0009c79a99da7d0a3353eb402","212.159.106.248","Mozilla/5.0 (Windows NT 10.0; Win64; x64) AppleWebKit/537.36 (KHTML, like Gecko) Chrome/137.0.0.0 Safari/537.36","WebKit","Chrome","137.0.0.0","Windows","10.0","https://app.prolific.com/","en-US,en;q=0.9","5d8e154af2858200171fdb95","683db7602f5db6a34d12d064","686e361bf46cda1e90dee8bb","1","5d8e154af2858200171fdb95","1","","","","","","","","","","","","","[{""page_index"":0,""viewing_time"":26247}]","","","","","","","","","","","","","","","","","","","","","","","","","","","","","",""
"4087","","<p>Before you start with this game please answer the following three questions yourself. </p>
  <p>Through this game, we measure several aspects of your cognitive performance, such as reaction times, multi-tasking capabilities </p>
  <p>and the ability to assess the situation you are in.</p>
  <p></p>
  <p><b>How good do you usually are in such tasks?</b></p>","58","html-slider-response","6","71514","0.0-4.0-0.0","23","1","2025-07-09 09:28:01","01610cd0009c79a99da7d0a3353eb402","212.159.106.248","Mozilla/5.0 (Windows NT 10.0; Win64; x64) AppleWebKit/537.36 (KHTML, like Gecko) Chrome/137.0.0.0 Safari/537.36","WebKit","Chrome","137.0.0.0","Windows","10.0","https://app.prolific.com/","en-US,en;q=0.9","5d8e154af2858200171fdb95","683db7602f5db6a34d12d064","686e361bf46cda1e90dee8bb","1","5d8e154af2858200171fdb95","1","2025-07-09T09:29:13.028Z","","","","","","","","","","","PreSkillQ","","50","","","","","","","","","","","","","","","","","","","","","","","","","","","","",""
"2799","","<div style=""width:500px;"">
  <p>How well do you think you will perform in this task compared to other participants?</p>
  </div>","48","html-slider-response","7","74315","0.0-4.0-1.0","23","1","2025-07-09 09:28:01","01610cd0009c79a99da7d0a3353eb402","212.159.106.248","Mozilla/5.0 (Windows NT 10.0; Win64; x64) AppleWebKit/537.36 (KHTML, like Gecko) Chrome/137.0.0.0 Safari/537.36","WebKit","Chrome","137.0.0.0","Windows","10.0","https://app.prolific.com/","en-US,en;q=0.9","5d8e154af2858200171fdb95","683db7602f5db6a34d12d064","686e361bf46cda1e90dee8bb","1","5d8e154af2858200171fdb95","1","2025-07-09T09:29:15.829Z","","","","","","","","","","","PrePerfQ","","50","","","","","","","","","","","","","","","","","","","","","","","","","","","","",""
"3093","","<div style=""width:500px;"">
  <p>What best describes how you currently feel?</p>
  </div>","80","html-slider-response","8","77411","0.0-4.0-2.0","23","1","2025-07-09 09:28:01","01610cd0009c79a99da7d0a3353eb402","212.159.106.248","Mozilla/5.0 (Windows NT 10.0; Win64; x64) AppleWebKit/537.36 (KHTML, like Gecko) Chrome/137.0.0.0 Safari/537.36","WebKit","Chrome","137.0.0.0","Windows","10.0","https://app.prolific.com/","en-US,en;q=0.9","5d8e154af2858200171fdb95","683db7602f5db6a34d12d064","686e361bf46cda1e90dee8bb","1","5d8e154af2858200171fdb95","1","2025-07-09T09:29:18.924Z","","","","","","","","","","","PreMotivationQ","","50","","","","","","","","","","","","","","","","","","","","","","","","","","","","",""
"","","","","ctl-task-cpt","9","101737","0.0-5.0-0.0","23","1","2025-07-09 09:28:01","01610cd0009c79a99da7d0a3353eb402","212.159.106.248","Mozilla/5.0 (Windows NT 10.0; Win64; x64) AppleWebKit/537.36 (KHTML, like Gecko) Chrome/137.0.0.0 Safari/537.36","WebKit","Chrome","137.0.0.0","Windows","10.0","https://app.prolific.com/","en-US,en;q=0.9","5d8e154af2858200171fdb95","683db7602f5db6a34d12d064","686e361bf46cda1e90dee8bb","1","5d8e154af2858200171fdb95","1","2025-07-09T09:29:43.251Z","","","","","","","","","","","","","","win-only","1","g1:NE,g2:SW","1","1","0","78680.8","1906.5","6911.8","21319.8","1","4","8","6","2","8","8","8","0","0.06060606060606061","730.6","3000","1190","[""down"",""left""]","{""num_key_presses"":6,""num_perfect"":6,""num_errors"":0,""num_randdir"":0,""num_randdir_good_moves"":0,""num_whilered"":0,""num_whileblue"":0,""num_blue"":0,""num_good_moves"":6}","[398.9683035714286,399.8745535714286,0.2,398.9683035714286,399.8745535714286,101.5,398.9683035714286,399.8745535714286,204.8,398.9683035714286,399.8745535714286,310.8,419.9683035714286,394.8745535714286,410.9,124.96830357142856,675.8745535714286,511.6,51.968303571428564,735.8745535714286,615.1,38.968303571428564,740.8745535714286,715.6,37.968303571428564,740.8745535714286,815.9,37.968303571428564,740.8745535714286,919.4,37.968303571428564,740.8745535714286,1020.3,110.96830357142856,715.8745535714286,1128.8,110.96830357142856,715.8745535714286,1229.6,110.96830357142856,715.8745535714286,1334.6,110.96830357142856,715.8745535714286,1434.6,110.96830357142856,715.8745535714286,1535.7,110.96830357142856,715.8745535714286,1635.9,110.96830357142856,715.8745535714286,1745.7,110.96830357142856,715.8745535714286,1849.4,110.96830357142856,715.8745535714286,1954.3,110.96830357142856,715.8745535714286,2054.4,110.96830357142856,715.8745535714286,2155.1,110.96830357142856,715.8745535714286,2261.8,110.96830357142856,715.8745535714286,2364.7,110.96830357142856,715.8745535714286,2470,110.96830357142856,715.8745535714286,2578.1,110.96830357142856,715.8745535714286,2678.7,110.96830357142856,715.8745535714286,2779.2,110.96830357142856,715.8745535714286,2879.2,110.96830357142856,715.8745535714286,2984.9,110.96830357142856,715.8745535714286,3095,110.96830357142856,715.8745535714286,3199.1,110.96830357142856,715.8745535714286,3300,110.96830357142856,715.8745535714286,3405.2,110.96830357142856,715.8745535714286,3511.8,110.96830357142856,715.8745535714286,3615.5,110.96830357142856,715.8745535714286,3715.9,110.96830357142856,715.8745535714286,3819.5,110.96830357142856,715.8745535714286,3920.1,110.96830357142856,715.8745535714286,4025.1,110.96830357142856,715.8745535714286,4128,110.96830357142856,715.8745535714286,4228.6,110.96830357142856,715.8745535714286,4329.1,110.96830357142856,715.8745535714286,4429.7,110.96830357142856,715.8745535714286,4535.1,110.96830357142856,715.8745535714286,4645.1,110.96830357142856,715.8745535714286,4745.5,110.96830357142856,715.8745535714286,4849.4,110.96830357142856,715.8745535714286,4954.5]","[1324.6,1324.5,1000,0.1,324.5,""smooth"",""left"",""left"",""good_move"",3843.8,2518.5,2155.1,1325.3,363.4,""smooth"",""down"",""down"",""good_move"",6645.5,2801.3,2460.9,3844.2,340.5,""smooth"",""left"",""left"",""good_move"",9729.4,3083.4,2720.2,6646,363.2,""smooth"",""down"",""down"",""good_move"",12029.3,2299.5,1929.3,9729.8,370.2,""smooth"",""left"",""left"",""good_move"",14306.1,2276.3,1971.2,12029.9,305.1,""smooth"",""down"",""down"",""good_move""]","",""
"3269","","<div style=""width:500px;"">
  <p>What determined the result of this run?</p>
  </div>","92","html-slider-response","10","105008","0.0-5.0-1.0","23","1","2025-07-09 09:28:01","01610cd0009c79a99da7d0a3353eb402","212.159.106.248","Mozilla/5.0 (Windows NT 10.0; Win64; x64) AppleWebKit/537.36 (KHTML, like Gecko) Chrome/137.0.0.0 Safari/537.36","WebKit","Chrome","137.0.0.0","Windows","10.0","https://app.prolific.com/","en-US,en;q=0.9","5d8e154af2858200171fdb95","683db7602f5db6a34d12d064","686e361bf46cda1e90dee8bb","1","5d8e154af2858200171fdb95","1","2025-07-09T09:29:46.521Z","","","","","","","","","","","AttribQ","","50","","","","","","","","","","","","","","","","","","","","","","","","","","","","",""
"3513","","<div style=""width:500px;"">
  <p>How much control did you have over the ball?</p>
  </div>","99","html-slider-response","11","108523","0.0-5.0-2.0","23","1","2025-07-09 09:28:01","01610cd0009c79a99da7d0a3353eb402","212.159.106.248","Mozilla/5.0 (Windows NT 10.0; Win64; x64) AppleWebKit/537.36 (KHTML, like Gecko) Chrome/137.0.0.0 Safari/537.36","WebKit","Chrome","137.0.0.0","Windows","10.0","https://app.prolific.com/","en-US,en;q=0.9","5d8e154af2858200171fdb95","683db7602f5db6a34d12d064","686e361bf46cda1e90dee8bb","1","5d8e154af2858200171fdb95","1","2025-07-09T09:29:50.036Z","","","","","","","","","","","ControlQ","","50","","","","","","","","","","","","","","","","","","","","","","","","","","","","",""
"2926","","<div style=""width:500px;"">
  <p>How would you describe your current emotional state?</p>
  </div>","2","html-slider-response","12","111451","0.0-5.0-3.0","23","1","2025-07-09 09:28:01","01610cd0009c79a99da7d0a3353eb402","212.159.106.248","Mozilla/5.0 (Windows NT 10.0; Win64; x64) AppleWebKit/537.36 (KHTML, like Gecko) Chrome/137.0.0.0 Safari/537.36","WebKit","Chrome","137.0.0.0","Windows","10.0","https://app.prolific.com/","en-US,en;q=0.9","5d8e154af2858200171fdb95","683db7602f5db6a34d12d064","686e361bf46cda1e90dee8bb","1","5d8e154af2858200171fdb95","1","2025-07-09T09:29:52.964Z","","","","","","","","","","","StressQ","","50","","","","","","","","","","","","","","","","","","","","","","","","","","","","",""
"2725","","<div style=""width:500px;"">
  <p>What best describes how you currently feel?</p>
  </div>","98","html-slider-response","13","114178","0.0-5.0-4.0","23","1","2025-07-09 09:28:01","01610cd0009c79a99da7d0a3353eb402","212.159.106.248","Mozilla/5.0 (Windows NT 10.0; Win64; x64) AppleWebKit/537.36 (KHTML, like Gecko) Chrome/137.0.0.0 Safari/537.36","WebKit","Chrome","137.0.0.0","Windows","10.0","https://app.prolific.com/","en-US,en;q=0.9","5d8e154af2858200171fdb95","683db7602f5db6a34d12d064","686e361bf46cda1e90dee8bb","1","5d8e154af2858200171fdb95","1","2025-07-09T09:29:55.691Z","","","","","","","","","","","MotivationQ","","50","","","","","","","","","","","","","","","","","","","","","","","","","","","","",""
"","","","","ctl-task-cpt","14","146221","0.0-5.0-0.1","23","1","2025-07-09 09:28:01","01610cd0009c79a99da7d0a3353eb402","212.159.106.248","Mozilla/5.0 (Windows NT 10.0; Win64; x64) AppleWebKit/537.36 (KHTML, like Gecko) Chrome/137.0.0.0 Safari/537.36","WebKit","Chrome","137.0.0.0","Windows","10.0","https://app.prolific.com/","en-US,en;q=0.9","5d8e154af2858200171fdb95","683db7602f5db6a34d12d064","686e361bf46cda1e90dee8bb","1","5d8e154af2858200171fdb95","1","2025-07-09T09:30:27.734Z","","","","","","","","","","","","","","win-only","0","g1:NW,g2:SE","0.9","2","0","115445.2","1915.9","6916.4","29028.4","1","4","4","6","2","4","3","11","8","0.08333333333333333","938.9","3000","775","[""down"",""right""]","{""num_key_presses"":7,""num_perfect"":6,""num_errors"":1,""num_randdir"":0,""num_randdir_good_moves"":0,""num_whilered"":0,""num_whileblue"":0,""num_blue"":1,""num_good_moves"":6}","[393.9683035714286,389.8745535714286,0.3,393.9683035714286,389.8745535714286,101.1,393.9683035714286,389.8745535714286,206.5,393.9683035714286,389.8745535714286,313,360.9683035714286,410.8745535714286,415.2,342.9683035714286,414.8745535714286,515.2,580.9683035714286,539.8745535714286,619.7,676.9683035714286,652.8745535714286,720.1,709.9683035714286,685.8745535714286,820.8,718.9683035714286,694.8745535714286,924.5,719.9683035714286,695.8745535714286,1027.1,719.9683035714286,695.8745535714286,1129.9,719.9683035714286,695.8745535714286,1230.4,719.9683035714286,695.8745535714286,1335.1,719.9683035714286,695.8745535714286,1435.5,719.9683035714286,695.8745535714286,1540.4,719.9683035714286,695.8745535714286,1640.6,719.9683035714286,695.8745535714286,1741.9,719.9683035714286,695.8745535714286,1846.3,719.9683035714286,695.8745535714286,1946.4,719.9683035714286,695.8745535714286,2050.3,719.9683035714286,695.8745535714286,2155,719.9683035714286,695.8745535714286,2261.6,719.9683035714286,695.8745535714286,2361.8,719.9683035714286,695.8745535714286,2462.2,719.9683035714286,695.8745535714286,2565.3,719.9683035714286,695.8745535714286,2665.5,719.9683035714286,695.8745535714286,2765.6,719.9683035714286,695.8745535714286,2865.6,719.9683035714286,695.8745535714286,2970.9,719.9683035714286,695.8745535714286,3075.7,719.9683035714286,695.8745535714286,3178.4,719.9683035714286,695.8745535714286,3280.4,719.9683035714286,695.8745535714286,3384.9,719.9683035714286,695.8745535714286,3485.3,719.9683035714286,695.8745535714286,3590.5,719.9683035714286,695.8745535714286,3695.6,719.9683035714286,695.8745535714286,3800.3,719.9683035714286,695.8745535714286,3904.7,719.9683035714286,695.8745535714286,4005.4,719.9683035714286,695.8745535714286,4111.6,719.9683035714286,695.8745535714286,4215.5,719.9683035714286,695.8745535714286,4316.4,719.9683035714286,695.8745535714286,4420.4,719.9683035714286,695.8745535714286,4525.4,719.9683035714286,695.8745535714286,4627.6,719.9683035714286,695.8745535714286,4730.8,719.9683035714286,695.8745535714286,4835.6,719.9683035714286,695.8745535714286,4940.9]","[362.6,362.5,1000,0.1,-637.5,""error"",""-"",""-"",""no_move"",3691.2,3328,2043,1365,283.2,""smooth"",""right"",""right"",""good_move"",6592.1,2900.3,2527.6,3691.8,372.7,""smooth"",""down"",""down"",""good_move"",13302.5,6709.7,2788.9,10195.7,317.9,""smooth"",""right"",""right"",""good_move"",16434.4,3131.7,2625.3,13302.8,506.4,""smooth"",""down"",""down"",""good_move"",19102.6,2667.8,2265.1,16434.8,402.7,""smooth"",""down"",""down"",""good_move"",22025.5,2922.1,2534.3,19103.4,387.8,""smooth"",""right"",""right"",""good_move""]","",""
"2881","","<div style=""width:500px;"">
  <p>What determined the result of this run?</p>
  </div>","100","html-slider-response","15","149104","0.0-5.0-1.1","23","1","2025-07-09 09:28:01","01610cd0009c79a99da7d0a3353eb402","212.159.106.248","Mozilla/5.0 (Windows NT 10.0; Win64; x64) AppleWebKit/537.36 (KHTML, like Gecko) Chrome/137.0.0.0 Safari/537.36","WebKit","Chrome","137.0.0.0","Windows","10.0","https://app.prolific.com/","en-US,en;q=0.9","5d8e154af2858200171fdb95","683db7602f5db6a34d12d064","686e361bf46cda1e90dee8bb","1","5d8e154af2858200171fdb95","1","2025-07-09T09:30:30.617Z","","","","","","","","","","","AttribQ","","50","","","","","","","","","","","","","","","","","","","","","","","","","","","","",""
"1732","","<div style=""width:500px;"">
  <p>How much control did you have over the ball?</p>
  </div>","100","html-slider-response","16","150837","0.0-5.0-2.1","23","1","2025-07-09 09:28:01","01610cd0009c79a99da7d0a3353eb402","212.159.106.248","Mozilla/5.0 (Windows NT 10.0; Win64; x64) AppleWebKit/537.36 (KHTML, like Gecko) Chrome/137.0.0.0 Safari/537.36","WebKit","Chrome","137.0.0.0","Windows","10.0","https://app.prolific.com/","en-US,en;q=0.9","5d8e154af2858200171fdb95","683db7602f5db6a34d12d064","686e361bf46cda1e90dee8bb","1","5d8e154af2858200171fdb95","1","2025-07-09T09:30:32.351Z","","","","","","","","","","","ControlQ","","50","","","","","","","","","","","","","","","","","","","","","","","","","","","","",""
"3252","","<div style=""width:500px;"">
  <p>How would you describe your current emotional state?</p>
  </div>","0","html-slider-response","17","154091","0.0-5.0-3.1","23","1","2025-07-09 09:28:01","01610cd0009c79a99da7d0a3353eb402","212.159.106.248","Mozilla/5.0 (Windows NT 10.0; Win64; x64) AppleWebKit/537.36 (KHTML, like Gecko) Chrome/137.0.0.0 Safari/537.36","WebKit","Chrome","137.0.0.0","Windows","10.0","https://app.prolific.com/","en-US,en;q=0.9","5d8e154af2858200171fdb95","683db7602f5db6a34d12d064","686e361bf46cda1e90dee8bb","1","5d8e154af2858200171fdb95","1","2025-07-09T09:30:35.604Z","","","","","","","","","","","StressQ","","50","","","","","","","","","","","","","","","","","","","","","","","","","","","","",""
"2479","","<div style=""width:500px;"">
  <p>What best describes how you currently feel?</p>
  </div>","95","html-slider-response","18","156572","0.0-5.0-4.1","23","1","2025-07-09 09:28:01","01610cd0009c79a99da7d0a3353eb402","212.159.106.248","Mozilla/5.0 (Windows NT 10.0; Win64; x64) AppleWebKit/537.36 (KHTML, like Gecko) Chrome/137.0.0.0 Safari/537.36","WebKit","Chrome","137.0.0.0","Windows","10.0","https://app.prolific.com/","en-US,en;q=0.9","5d8e154af2858200171fdb95","683db7602f5db6a34d12d064","686e361bf46cda1e90dee8bb","1","5d8e154af2858200171fdb95","1","2025-07-09T09:30:38.085Z","","","","","","","","","","","MotivationQ","","50","","","","","","","","","","","","","","","","","","","","","","","","","","","","",""
"","","","","ctl-task-cpt","19","185818","0.0-5.0-0.2","23","1","2025-07-09 09:28:01","01610cd0009c79a99da7d0a3353eb402","212.159.106.248","Mozilla/5.0 (Windows NT 10.0; Win64; x64) AppleWebKit/537.36 (KHTML, like Gecko) Chrome/137.0.0.0 Safari/537.36","WebKit","Chrome","137.0.0.0","Windows","10.0","https://app.prolific.com/","en-US,en;q=0.9","5d8e154af2858200171fdb95","683db7602f5db6a34d12d064","686e361bf46cda1e90dee8bb","1","5d8e154af2858200171fdb95","1","2025-07-09T09:31:07.331Z","","","","","","","","","","","","","","win-only","3","g1:SW,g2:NE","0.8","3","0","157841.8","1289.4","6291.8","26225.7","1","4","4","6","2","4","4","15","11","0.11363636363636363","951.9","3000","1070","[""up"",""right""]","{""num_key_presses"":6,""num_perfect"":5,""num_errors"":0,""num_randdir"":1,""num_randdir_good_moves"":1,""num_whilered"":0,""num_whileblue"":0,""num_blue"":1,""num_good_moves"":6}","[395.9683035714286,391.8745535714286,0.5,395.9683035714286,391.8745535714286,100.8,395.9683035714286,391.8745535714286,201.3,395.9683035714286,391.8745535714286,301.4,395.9683035714286,391.8745535714286,406.9,395.9683035714286,391.8745535714286,509.3,659.9683035714286,181.87455357142858,609.9,743.9683035714286,113.87455357142856,712,754.9683035714286,101.87455357142856,813.8,750.9683035714286,99.87455357142856,915.9,749.9683035714286,99.87455357142856,1016.9,749.9683035714286,99.87455357142856,1123.7,749.9683035714286,99.87455357142856,1226.4,749.9683035714286,99.87455357142856,1327.4,749.9683035714286,99.87455357142856,1429.8,749.9683035714286,99.87455357142856,1532.2,749.9683035714286,99.87455357142856,1637,749.9683035714286,99.87455357142856,1737.1,749.9683035714286,99.87455357142856,1841.9,749.9683035714286,99.87455357142856,1945.4,749.9683035714286,99.87455357142856,2046,749.9683035714286,99.87455357142856,2147.1,749.9683035714286,99.87455357142856,2252.3,749.9683035714286,99.87455357142856,2357.2,749.9683035714286,99.87455357142856,2466.1,749.9683035714286,99.87455357142856,2572,749.9683035714286,99.87455357142856,2672.2,749.9683035714286,99.87455357142856,2780.3,749.9683035714286,99.87455357142856,2882,749.9683035714286,99.87455357142856,2987.2,749.9683035714286,99.87455357142856,3094.7,749.9683035714286,99.87455357142856,3195.1,749.9683035714286,99.87455357142856,3296,749.9683035714286,99.87455357142856,3396.3,749.9683035714286,99.87455357142856,3499.5,749.9683035714286,99.87455357142856,3601.9,749.9683035714286,99.87455357142856,3707.8,749.9683035714286,99.87455357142856,3814.2,749.9683035714286,99.87455357142856,3916.7,749.9683035714286,99.87455357142856,4017.3,749.9683035714286,99.87455357142856,4121.6,749.9683035714286,99.87455357142856,4228.6,749.9683035714286,99.87455357142856,4331.8,749.9683035714286,99.87455357142856,4436.1,749.9683035714286,99.87455357142856,4536.1,749.9683035714286,99.87455357142856,4636.1,749.9683035714286,99.87455357142856,4744.1,749.9683035714286,99.87455357142856,4846.2,749.9683035714286,99.87455357142856,4946.6]","[1340.5,1340.5,1000,0,340.5,""smooth"",""up"",""up"",""good_move"",4725.3,3383.9,3044.8,1341.4,339.1,""oops"",""right"",""up"",""good_move"",8005.6,3279.8,2916,4725.8,363.8,""smooth"",""right"",""right"",""good_move"",11140.1,3134,2805,8006.1,329,""smooth"",""right"",""right"",""good_move"",17316,6175.4,2482.8,14498.6,334.6,""smooth"",""right"",""right"",""good_move"",19846.1,2529.8,2183.6,17316.3,346.2,""smooth"",""up"",""up"",""good_move""]","",""
"2645","","<div style=""width:500px;"">
  <p>What determined the result of this run?</p>
  </div>","91","html-slider-response","20","188465","0.0-5.0-1.2","23","1","2025-07-09 09:28:01","01610cd0009c79a99da7d0a3353eb402","212.159.106.248","Mozilla/5.0 (Windows NT 10.0; Win64; x64) AppleWebKit/537.36 (KHTML, like Gecko) Chrome/137.0.0.0 Safari/537.36","WebKit","Chrome","137.0.0.0","Windows","10.0","https://app.prolific.com/","en-US,en;q=0.9","5d8e154af2858200171fdb95","683db7602f5db6a34d12d064","686e361bf46cda1e90dee8bb","1","5d8e154af2858200171fdb95","1","2025-07-09T09:31:09.978Z","","","","","","","","","","","AttribQ","","50","","","","","","","","","","","","","","","","","","","","","","","","","","","","",""
"2104","","<div style=""width:500px;"">
  <p>How much control did you have over the ball?</p>
  </div>","73","html-slider-response","21","190571","0.0-5.0-2.2","23","1","2025-07-09 09:28:01","01610cd0009c79a99da7d0a3353eb402","212.159.106.248","Mozilla/5.0 (Windows NT 10.0; Win64; x64) AppleWebKit/537.36 (KHTML, like Gecko) Chrome/137.0.0.0 Safari/537.36","WebKit","Chrome","137.0.0.0","Windows","10.0","https://app.prolific.com/","en-US,en;q=0.9","5d8e154af2858200171fdb95","683db7602f5db6a34d12d064","686e361bf46cda1e90dee8bb","1","5d8e154af2858200171fdb95","1","2025-07-09T09:31:12.084Z","","","","","","","","","","","ControlQ","","50","","","","","","","","","","","","","","","","","","","","","","","","","","","","",""
"2544","","<div style=""width:500px;"">
  <p>How would you describe your current emotional state?</p>
  </div>","0","html-slider-response","22","193116","0.0-5.0-3.2","23","1","2025-07-09 09:28:01","01610cd0009c79a99da7d0a3353eb402","212.159.106.248","Mozilla/5.0 (Windows NT 10.0; Win64; x64) AppleWebKit/537.36 (KHTML, like Gecko) Chrome/137.0.0.0 Safari/537.36","WebKit","Chrome","137.0.0.0","Windows","10.0","https://app.prolific.com/","en-US,en;q=0.9","5d8e154af2858200171fdb95","683db7602f5db6a34d12d064","686e361bf46cda1e90dee8bb","1","5d8e154af2858200171fdb95","1","2025-07-09T09:31:14.629Z","","","","","","","","","","","StressQ","","50","","","","","","","","","","","","","","","","","","","","","","","","","","","","",""
"2301","","<div style=""width:500px;"">
  <p>What best describes how you currently feel?</p>
  </div>","90","html-slider-response","23","195419","0.0-5.0-4.2","23","1","2025-07-09 09:28:01","01610cd0009c79a99da7d0a3353eb402","212.159.106.248","Mozilla/5.0 (Windows NT 10.0; Win64; x64) AppleWebKit/537.36 (KHTML, like Gecko) Chrome/137.0.0.0 Safari/537.36","WebKit","Chrome","137.0.0.0","Windows","10.0","https://app.prolific.com/","en-US,en;q=0.9","5d8e154af2858200171fdb95","683db7602f5db6a34d12d064","686e361bf46cda1e90dee8bb","1","5d8e154af2858200171fdb95","1","2025-07-09T09:31:16.932Z","","","","","","","","","","","MotivationQ","","50","","","","","","","","","","","","","","","","","","","","","","","","","","","","",""
"","","","","ctl-task-cpt","24","239328","0.0-5.0-0.3","23","1","2025-07-09 09:28:01","01610cd0009c79a99da7d0a3353eb402","212.159.106.248","Mozilla/5.0 (Windows NT 10.0; Win64; x64) AppleWebKit/537.36 (KHTML, like Gecko) Chrome/137.0.0.0 Safari/537.36","WebKit","Chrome","137.0.0.0","Windows","10.0","https://app.prolific.com/","en-US,en;q=0.9","5d8e154af2858200171fdb95","683db7602f5db6a34d12d064","686e361bf46cda1e90dee8bb","1","5d8e154af2858200171fdb95","1","2025-07-09T09:32:00.841Z","","","","","","","","","","","","","","win-only","2","g1:SE,g2:NW","0.7","4","0","196688.1","1534.5","6535.1","40891.2","1","4","8","6","2","-8","-8","7","15","0.05303030303030303","1057.1","3000","-2770","[""left"",""up""]","{""num_key_presses"":8,""num_perfect"":6,""num_errors"":0,""num_randdir"":2,""num_randdir_good_moves"":0,""num_whilered"":0,""num_whileblue"":0,""num_blue"":3,""num_good_moves"":6}","[396.9683035714286,401.8745535714286,0.3,396.9683035714286,401.8745535714286,107,396.9683035714286,401.8745535714286,211.4,396.9683035714286,401.8745535714286,312.1,396.9683035714286,407.8745535714286,416.6,466.9683035714286,421.8745535714286,521.3,468.9683035714286,405.8745535714286,622.4,98.96830357142856,113.87455357142856,727.3,91.96830357142856,110.87455357142856,831.5,91.96830357142856,110.87455357142856,931.7,85.96830357142856,104.87455357142856,1036.3,84.96830357142856,102.87455357142856,1136.9,84.96830357142856,102.87455357142856,1238.2,84.96830357142856,102.87455357142856,1341.7,84.96830357142856,102.87455357142856,1441.9,84.96830357142856,102.87455357142856,1546,84.96830357142856,102.87455357142856,1656.7,84.96830357142856,102.87455357142856,1756.7,84.96830357142856,102.87455357142856,1865.7,84.96830357142856,102.87455357142856,1966.6,84.96830357142856,102.87455357142856,2072.7,84.96830357142856,102.87455357142856,2177.5,84.96830357142856,102.87455357142856,2277.7,84.96830357142856,102.87455357142856,2382.3,84.96830357142856,102.87455357142856,2487.7,84.96830357142856,102.87455357142856,2592.4,84.96830357142856,102.87455357142856,2696.4,84.96830357142856,102.87455357142856,2805.4,84.96830357142856,102.87455357142856,2907.7,84.96830357142856,102.87455357142856,3011.4,84.96830357142856,102.87455357142856,3111.8,84.96830357142856,102.87455357142856,3215.1,84.96830357142856,102.87455357142856,3315.7,84.96830357142856,102.87455357142856,3416.6,84.96830357142856,102.87455357142856,3521.2,84.96830357142856,102.87455357142856,3626.2,84.96830357142856,102.87455357142856,3726.2,84.96830357142856,102.87455357142856,3827.3,84.96830357142856,102.87455357142856,3927.5,84.96830357142856,102.87455357142856,4027.5,84.96830357142856,102.87455357142856,4136,84.96830357142856,102.87455357142856,4237.7,84.96830357142856,102.87455357142856,4341.8,84.96830357142856,102.87455357142856,4446.7,84.96830357142856,102.87455357142856,4555.9,84.96830357142856,102.87455357142856,4656.7,84.96830357142856,102.87455357142856,4757.2,84.96830357142856,102.87455357142856,4865.7,84.96830357142856,102.87455357142856,4966]","[1361.8,1361.8,1000,0,361.8,""smooth"",""left"",""left"",""good_move"",4249.9,2887.4,2527.5,1362.5,359.9,""smooth"",""up"",""up"",""good_move"",6434.7,2184,1763,4250.7,421,""oops"",""left"",""right"",""bad_move"",8892.1,2456.7,2059.4,6435.4,397.3,""smooth"",""up"",""up"",""good_move"",14295.6,5403.1,2175.5,11801.6,318.5,""smooth"",""left"",""left"",""good_move"",17224.5,2928.6,2384.5,14295.9,544.1,""smooth"",""left"",""left"",""good_move"",20067.3,2842.5,2461,17224.9,381.4,""smooth"",""left"",""left"",""good_move"",31489.4,11421.5,3410,27607.4,472,""oops"",""up"",""right"",""bad_move""]","",""
"3414","","<div style=""width:500px;"">
  <p>What determined the result of this run?</p>
  </div>","23","html-slider-response","25","242745","0.0-5.0-1.3","23","1","2025-07-09 09:28:01","01610cd0009c79a99da7d0a3353eb402","212.159.106.248","Mozilla/5.0 (Windows NT 10.0; Win64; x64) AppleWebKit/537.36 (KHTML, like Gecko) Chrome/137.0.0.0 Safari/537.36","WebKit","Chrome","137.0.0.0","Windows","10.0","https://app.prolific.com/","en-US,en;q=0.9","5d8e154af2858200171fdb95","683db7602f5db6a34d12d064","686e361bf46cda1e90dee8bb","1","5d8e154af2858200171fdb95","1","2025-07-09T09:32:04.258Z","","","","","","","","","","","AttribQ","","50","","","","","","","","","","","","","","","","","","","","","","","","","","","","",""
"1744","","<div style=""width:500px;"">
  <p>How much control did you have over the ball?</p>
  </div>","10","html-slider-response","26","244490","0.0-5.0-2.3","23","1","2025-07-09 09:28:01","01610cd0009c79a99da7d0a3353eb402","212.159.106.248","Mozilla/5.0 (Windows NT 10.0; Win64; x64) AppleWebKit/537.36 (KHTML, like Gecko) Chrome/137.0.0.0 Safari/537.36","WebKit","Chrome","137.0.0.0","Windows","10.0","https://app.prolific.com/","en-US,en;q=0.9","5d8e154af2858200171fdb95","683db7602f5db6a34d12d064","686e361bf46cda1e90dee8bb","1","5d8e154af2858200171fdb95","1","2025-07-09T09:32:06.003Z","","","","","","","","","","","ControlQ","","50","","","","","","","","","","","","","","","","","","","","","","","","","","","","",""
"3719","","<div style=""width:500px;"">
  <p>How would you describe your current emotional state?</p>
  </div>","19","html-slider-response","27","248211","0.0-5.0-3.3","23","1","2025-07-09 09:28:01","01610cd0009c79a99da7d0a3353eb402","212.159.106.248","Mozilla/5.0 (Windows NT 10.0; Win64; x64) AppleWebKit/537.36 (KHTML, like Gecko) Chrome/137.0.0.0 Safari/537.36","WebKit","Chrome","137.0.0.0","Windows","10.0","https://app.prolific.com/","en-US,en;q=0.9","5d8e154af2858200171fdb95","683db7602f5db6a34d12d064","686e361bf46cda1e90dee8bb","1","5d8e154af2858200171fdb95","1","2025-07-09T09:32:09.724Z","","","","","","","","","","","StressQ","","50","","","","","","","","","","","","","","","","","","","","","","","","","","","","",""
"1668","","<div style=""width:500px;"">
  <p>What best describes how you currently feel?</p>
  </div>","63","html-slider-response","28","249881","0.0-5.0-4.3","23","1","2025-07-09 09:28:01","01610cd0009c79a99da7d0a3353eb402","212.159.106.248","Mozilla/5.0 (Windows NT 10.0; Win64; x64) AppleWebKit/537.36 (KHTML, like Gecko) Chrome/137.0.0.0 Safari/537.36","WebKit","Chrome","137.0.0.0","Windows","10.0","https://app.prolific.com/","en-US,en;q=0.9","5d8e154af2858200171fdb95","683db7602f5db6a34d12d064","686e361bf46cda1e90dee8bb","1","5d8e154af2858200171fdb95","1","2025-07-09T09:32:11.394Z","","","","","","","","","","","MotivationQ","","50","","","","","","","","","","","","","","","","","","","","","","","","","","","","",""
"","","","","ctl-task-cpt","29","293799","0.0-5.0-0.4","23","1","2025-07-09 09:28:01","01610cd0009c79a99da7d0a3353eb402","212.159.106.248","Mozilla/5.0 (Windows NT 10.0; Win64; x64) AppleWebKit/537.36 (KHTML, like Gecko) Chrome/137.0.0.0 Safari/537.36","WebKit","Chrome","137.0.0.0","Windows","10.0","https://app.prolific.com/","en-US,en;q=0.9","5d8e154af2858200171fdb95","683db7602f5db6a34d12d064","686e361bf46cda1e90dee8bb","1","5d8e154af2858200171fdb95","1","2025-07-09T09:32:55.312Z","","","","","","","","","","","","","","win-only","1","g1:NE,g2:SW","0.6","5","0","251150.3","1333.9","6336.8","40897.1","1","4","4","6","2","4","4","11","7","0.08333333333333333","924.2","3000","105","[""down"",""left""]","{""num_key_presses"":8,""num_perfect"":6,""num_errors"":0,""num_randdir"":2,""num_randdir_good_moves"":1,""num_whilered"":0,""num_whileblue"":0,""num_blue"":3,""num_good_moves"":7}","[396.9683035714286,393.8745535714286,0.5,396.9683035714286,393.8745535714286,103.5,396.9683035714286,393.8745535714286,203.5,396.9683035714286,393.8745535714286,308.7,396.9683035714286,393.8745535714286,410.4,303.9683035714286,525.8745535714286,511.6,161.96830357142858,696.8745535714286,612.1,141.96830357142858,709.8745535714286,724.3,104.96830357142856,719.8745535714286,828,76.96830357142856,711.8745535714286,936.1,76.96830357142856,711.8745535714286,1037,76.96830357142856,711.8745535714286,1140.7,76.96830357142856,711.8745535714286,1243.1,76.96830357142856,711.8745535714286,1350.6,76.96830357142856,711.8745535714286,1452.9,76.96830357142856,711.8745535714286,1553.3,76.96830357142856,711.8745535714286,1655.4,76.96830357142856,711.8745535714286,1758.2,76.96830357142856,711.8745535714286,1862.9,76.96830357142856,711.8745535714286,1967.2,76.96830357142856,711.8745535714286,2067.6,76.96830357142856,711.8745535714286,2171.6,76.96830357142856,711.8745535714286,2272.1,76.96830357142856,711.8745535714286,2374.6,76.96830357142856,711.8745535714286,2477.5,76.96830357142856,711.8745535714286,2585.3,76.96830357142856,711.8745535714286,2686.3,76.96830357142856,711.8745535714286,2786.8,76.96830357142856,711.8745535714286,2887.8,76.96830357142856,711.8745535714286,2992.1,76.96830357142856,711.8745535714286,3093,76.96830357142856,711.8745535714286,3193.7,76.96830357142856,711.8745535714286,3294.4,76.96830357142856,711.8745535714286,3399.2,76.96830357142856,711.8745535714286,3509.9,76.96830357142856,711.8745535714286,3613.6,76.96830357142856,711.8745535714286,3724.3,76.96830357142856,711.8745535714286,3827.1,76.96830357142856,711.8745535714286,3927.9,76.96830357142856,711.8745535714286,4034,76.96830357142856,711.8745535714286,4137.3,76.96830357142856,711.8745535714286,4237.4,76.96830357142856,711.8745535714286,4343.2,76.96830357142856,711.8745535714286,4446.7,76.96830357142856,711.8745535714286,4553.1,76.96830357142856,711.8745535714286,4660.7,76.96830357142856,711.8745535714286,4762.3,76.96830357142856,711.8745535714286,4862.4,76.96830357142856,711.8745535714286,4978.3]","[7622.7,7622.7,2856.7,4410,356,""smooth"",""left"",""left"",""good_move"",11256.8,3633.6,3086.5,7623.3,547,""smooth"",""left"",""left"",""good_move"",14602.4,3345.2,2660.5,11257.2,684.7,""smooth"",""down"",""down"",""good_move"",17583.8,2981.1,2584.6,14602.8,396.5,""smooth"",""down"",""down"",""good_move"",21631.9,4047.5,3710.5,17584.4,337,""oops"",""left"",""down"",""good_move"",28736.8,7104.3,3098.3,25309.3,329.2,""oops"",""left"",""up"",""bad_move"",31896.5,3159.2,2658.8,28737.3,500.4,""smooth"",""left"",""left"",""good_move"",34458.7,2561.5,2206.8,31897.2,354.7,""smooth"",""down"",""down"",""good_move""]","",""
"3211","","<div style=""width:500px;"">
  <p>What determined the result of this run?</p>
  </div>","45","html-slider-response","30","297011","0.0-5.0-1.4","23","1","2025-07-09 09:28:01","01610cd0009c79a99da7d0a3353eb402","212.159.106.248","Mozilla/5.0 (Windows NT 10.0; Win64; x64) AppleWebKit/537.36 (KHTML, like Gecko) Chrome/137.0.0.0 Safari/537.36","WebKit","Chrome","137.0.0.0","Windows","10.0","https://app.prolific.com/","en-US,en;q=0.9","5d8e154af2858200171fdb95","683db7602f5db6a34d12d064","686e361bf46cda1e90dee8bb","1","5d8e154af2858200171fdb95","1","2025-07-09T09:32:58.524Z","","","","","","","","","","","AttribQ","","50","","","","","","","","","","","","","","","","","","","","","","","","","","","","",""
"3399","","<div style=""width:500px;"">
  <p>How much control did you have over the ball?</p>
  </div>","31","html-slider-response","31","300413","0.0-5.0-2.4","23","1","2025-07-09 09:28:01","01610cd0009c79a99da7d0a3353eb402","212.159.106.248","Mozilla/5.0 (Windows NT 10.0; Win64; x64) AppleWebKit/537.36 (KHTML, like Gecko) Chrome/137.0.0.0 Safari/537.36","WebKit","Chrome","137.0.0.0","Windows","10.0","https://app.prolific.com/","en-US,en;q=0.9","5d8e154af2858200171fdb95","683db7602f5db6a34d12d064","686e361bf46cda1e90dee8bb","1","5d8e154af2858200171fdb95","1","2025-07-09T09:33:01.926Z","","","","","","","","","","","ControlQ","","50","","","","","","","","","","","","","","","","","","","","","","","","","","","","",""
"2378","","<div style=""width:500px;"">
  <p>How would you describe your current emotional state?</p>
  </div>","34","html-slider-response","32","302792","0.0-5.0-3.4","23","1","2025-07-09 09:28:01","01610cd0009c79a99da7d0a3353eb402","212.159.106.248","Mozilla/5.0 (Windows NT 10.0; Win64; x64) AppleWebKit/537.36 (KHTML, like Gecko) Chrome/137.0.0.0 Safari/537.36","WebKit","Chrome","137.0.0.0","Windows","10.0","https://app.prolific.com/","en-US,en;q=0.9","5d8e154af2858200171fdb95","683db7602f5db6a34d12d064","686e361bf46cda1e90dee8bb","1","5d8e154af2858200171fdb95","1","2025-07-09T09:33:04.305Z","","","","","","","","","","","StressQ","","50","","","","","","","","","","","","","","","","","","","","","","","","","","","","",""
"2488","","<div style=""width:500px;"">
  <p>What best describes how you currently feel?</p>
  </div>","69","html-slider-response","33","305281","0.0-5.0-4.4","23","1","2025-07-09 09:28:01","01610cd0009c79a99da7d0a3353eb402","212.159.106.248","Mozilla/5.0 (Windows NT 10.0; Win64; x64) AppleWebKit/537.36 (KHTML, like Gecko) Chrome/137.0.0.0 Safari/537.36","WebKit","Chrome","137.0.0.0","Windows","10.0","https://app.prolific.com/","en-US,en;q=0.9","5d8e154af2858200171fdb95","683db7602f5db6a34d12d064","686e361bf46cda1e90dee8bb","1","5d8e154af2858200171fdb95","1","2025-07-09T09:33:06.794Z","","","","","","","","","","","MotivationQ","","50","","","","","","","","","","","","","","","","","","","","","","","","","","","","",""
"","","","","ctl-task-cpt","34","354214","0.0-5.0-0.5","23","1","2025-07-09 09:28:01","01610cd0009c79a99da7d0a3353eb402","212.159.106.248","Mozilla/5.0 (Windows NT 10.0; Win64; x64) AppleWebKit/537.36 (KHTML, like Gecko) Chrome/137.0.0.0 Safari/537.36","WebKit","Chrome","137.0.0.0","Windows","10.0","https://app.prolific.com/","en-US,en;q=0.9","5d8e154af2858200171fdb95","683db7602f5db6a34d12d064","686e361bf46cda1e90dee8bb","1","5d8e154af2858200171fdb95","1","2025-07-09T09:33:55.727Z","","","","","","","","","","","","","","win-only","1","g1:NE,g2:SW","0.5","6","0","306549.9","1436.2","6437.3","45908.9","1","4","8","6","2","8","8","19","11","0.14393939393939395","918.3","3000","85","[""down"",""left""]","{""num_key_presses"":8,""num_perfect"":4,""num_errors"":0,""num_randdir"":4,""num_randdir_good_moves"":3,""num_whilered"":0,""num_whileblue"":0,""num_blue"":6,""num_good_moves"":7}","[398.9683035714286,393.8745535714286,0.3,398.9683035714286,393.8745535714286,106.9,398.9683035714286,393.8745535714286,209.9,398.9683035714286,393.8745535714286,311,398.9683035714286,393.8745535714286,414.5,414.9683035714286,388.8745535714286,517.9,187.96830357142858,646.8745535714286,620.2,128.96830357142858,686.8745535714286,724.9,101.96830357142856,700.8745535714286,826.9,83.96830357142856,708.8745535714286,930.9,83.96830357142856,708.8745535714286,1037.3,83.96830357142856,708.8745535714286,1139.9,83.96830357142856,708.8745535714286,1244.6,83.96830357142856,708.8745535714286,1358.5,83.96830357142856,708.8745535714286,1461,83.96830357142856,708.8745535714286,1564.8,83.96830357142856,708.8745535714286,1668.3,83.96830357142856,708.8745535714286,1770.5,83.96830357142856,708.8745535714286,1871.8,83.96830357142856,708.8745535714286,1975,83.96830357142856,708.8745535714286,2079.4,83.96830357142856,708.8745535714286,2179.9,83.96830357142856,708.8745535714286,2284.4,83.96830357142856,708.8745535714286,2386.4,83.96830357142856,708.8745535714286,2489.5,83.96830357142856,708.8745535714286,2590.8,83.96830357142856,708.8745535714286,2694.3,83.96830357142856,708.8745535714286,2798.5,83.96830357142856,708.8745535714286,2901.2,83.96830357142856,708.8745535714286,3004.9,83.96830357142856,708.8745535714286,3110,83.96830357142856,708.8745535714286,3214.8,83.96830357142856,708.8745535714286,3321.1,83.96830357142856,708.8745535714286,3424.4,83.96830357142856,708.8745535714286,3538.9,83.96830357142856,708.8745535714286,3639.4,83.96830357142856,708.8745535714286,3740.2,83.96830357142856,708.8745535714286,3844.3,83.96830357142856,708.8745535714286,3953.8,83.96830357142856,708.8745535714286,4055.2,83.96830357142856,708.8745535714286,4155.4,83.96830357142856,708.8745535714286,4256.5,83.96830357142856,708.8745535714286,4359.7,83.96830357142856,708.8745535714286,4460.9,83.96830357142856,708.8745535714286,4570.5,83.96830357142856,708.8745535714286,4670.8,83.96830357142856,708.8745535714286,4774.6,83.96830357142856,708.8745535714286,4888.5,83.96830357142856,708.8745535714286,4989.9]","[4487.1,4487.1,2132.7,2008.6,345.8,""smooth"",""left"",""left"",""good_move"",7984,3492.7,3070.1,4491.3,422.6,""smooth"",""down"",""down"",""good_move"",13522.8,5538.5,1234.1,11906.2,382.5,""oops"",""left"",""right"",""bad_move"",19236.2,5712.8,2086.3,16808.6,341.3,""oops"",""left"",""left"",""good_move"",22358.9,3122.3,2189.3,19236.7,932.9,""oops"",""left"",""left"",""good_move"",29198.8,6839.5,2676,26054.1,468.7,""oops"",""down"",""left"",""good_move"",37002.4,7803.2,2174.1,34473.2,355.1,""smooth"",""down"",""down"",""good_move"",39351.5,2348.4,1884.2,37003.1,464.2,""smooth"",""down"",""down"",""good_move""]","",""
"3147","","<div style=""width:500px;"">
  <p>What determined the result of this run?</p>
  </div>","44","html-slider-response","35","357363","0.0-5.0-1.5","23","1","2025-07-09 09:28:01","01610cd0009c79a99da7d0a3353eb402","212.159.106.248","Mozilla/5.0 (Windows NT 10.0; Win64; x64) AppleWebKit/537.36 (KHTML, like Gecko) Chrome/137.0.0.0 Safari/537.36","WebKit","Chrome","137.0.0.0","Windows","10.0","https://app.prolific.com/","en-US,en;q=0.9","5d8e154af2858200171fdb95","683db7602f5db6a34d12d064","686e361bf46cda1e90dee8bb","1","5d8e154af2858200171fdb95","1","2025-07-09T09:33:58.876Z","","","","","","","","","","","AttribQ","","50","","","","","","","","","","","","","","","","","","","","","","","","","","","","",""
"3145","","<div style=""width:500px;"">
  <p>How much control did you have over the ball?</p>
  </div>","41","html-slider-response","36","360510","0.0-5.0-2.5","23","1","2025-07-09 09:28:01","01610cd0009c79a99da7d0a3353eb402","212.159.106.248","Mozilla/5.0 (Windows NT 10.0; Win64; x64) AppleWebKit/537.36 (KHTML, like Gecko) Chrome/137.0.0.0 Safari/537.36","WebKit","Chrome","137.0.0.0","Windows","10.0","https://app.prolific.com/","en-US,en;q=0.9","5d8e154af2858200171fdb95","683db7602f5db6a34d12d064","686e361bf46cda1e90dee8bb","1","5d8e154af2858200171fdb95","1","2025-07-09T09:34:02.023Z","","","","","","","","","","","ControlQ","","50","","","","","","","","","","","","","","","","","","","","","","","","","","","","",""
"2338","","<div style=""width:500px;"">
  <p>How would you describe your current emotional state?</p>
  </div>","34","html-slider-response","37","362848","0.0-5.0-3.5","23","1","2025-07-09 09:28:01","01610cd0009c79a99da7d0a3353eb402","212.159.106.248","Mozilla/5.0 (Windows NT 10.0; Win64; x64) AppleWebKit/537.36 (KHTML, like Gecko) Chrome/137.0.0.0 Safari/537.36","WebKit","Chrome","137.0.0.0","Windows","10.0","https://app.prolific.com/","en-US,en;q=0.9","5d8e154af2858200171fdb95","683db7602f5db6a34d12d064","686e361bf46cda1e90dee8bb","1","5d8e154af2858200171fdb95","1","2025-07-09T09:34:04.361Z","","","","","","","","","","","StressQ","","50","","","","","","","","","","","","","","","","","","","","","","","","","","","","",""
"1694","","<div style=""width:500px;"">
  <p>What best describes how you currently feel?</p>
  </div>","63","html-slider-response","38","364544","0.0-5.0-4.5","23","1","2025-07-09 09:28:01","01610cd0009c79a99da7d0a3353eb402","212.159.106.248","Mozilla/5.0 (Windows NT 10.0; Win64; x64) AppleWebKit/537.36 (KHTML, like Gecko) Chrome/137.0.0.0 Safari/537.36","WebKit","Chrome","137.0.0.0","Windows","10.0","https://app.prolific.com/","en-US,en;q=0.9","5d8e154af2858200171fdb95","683db7602f5db6a34d12d064","686e361bf46cda1e90dee8bb","1","5d8e154af2858200171fdb95","1","2025-07-09T09:34:06.058Z","","","","","","","","","","","MotivationQ","","50","","","","","","","","","","","","","","","","","","","","","","","","","","","","",""
"","","","","ctl-task-cpt","39","398061","0.0-5.0-0.6","23","1","2025-07-09 09:28:01","01610cd0009c79a99da7d0a3353eb402","212.159.106.248","Mozilla/5.0 (Windows NT 10.0; Win64; x64) AppleWebKit/537.36 (KHTML, like Gecko) Chrome/137.0.0.0 Safari/537.36","WebKit","Chrome","137.0.0.0","Windows","10.0","https://app.prolific.com/","en-US,en;q=0.9","5d8e154af2858200171fdb95","683db7602f5db6a34d12d064","686e361bf46cda1e90dee8bb","1","5d8e154af2858200171fdb95","1","2025-07-09T09:34:39.574Z","","","","","","","","","","","","","","win-only","3","g1:SW,g2:NE","0.4","7","0","365813.6","1420.9","6428.7","30502.1","1","4","4","6","2","4","4","23","19","0.17424242424242425","1456.1","3000","1150","[""up"",""right""]","{""num_key_presses"":6,""num_perfect"":4,""num_errors"":0,""num_randdir"":2,""num_randdir_good_moves"":2,""num_whilered"":0,""num_whileblue"":0,""num_blue"":2,""num_good_moves"":6}","[398.9683035714286,396.8745535714286,0.4,398.9683035714286,396.8745535714286,103.9,398.9683035714286,396.8745535714286,204.2,398.9683035714286,396.8745535714286,306.7,398.9683035714286,396.8745535714286,409.6,398.9683035714286,396.8745535714286,509.8,484.9683035714286,327.8745535714286,616.1,673.9683035714286,160.87455357142858,724.8,675.9683035714286,157.87455357142858,825.2,671.9683035714286,155.87455357142858,925.6,702.9683035714286,138.87455357142858,1038,700.9683035714286,137.87455357142858,1140.3,694.9683035714286,106.87455357142856,1247.6,700.9683035714286,91.87455357142856,1352,701.9683035714286,92.87455357142856,1453.2,701.9683035714286,92.87455357142856,1554.7,701.9683035714286,92.87455357142856,1654.8,701.9683035714286,92.87455357142856,1755.2,701.9683035714286,92.87455357142856,1860.2,701.9683035714286,92.87455357142856,1964.7,701.9683035714286,92.87455357142856,2064.7,701.9683035714286,92.87455357142856,2164.9,701.9683035714286,92.87455357142856,2269.8,701.9683035714286,92.87455357142856,2370.4,701.9683035714286,92.87455357142856,2475.4,701.9683035714286,92.87455357142856,2584.4,701.9683035714286,92.87455357142856,2685,701.9683035714286,92.87455357142856,2785.3,701.9683035714286,92.87455357142856,2890.8,701.9683035714286,92.87455357142856,2997.7,701.9683035714286,92.87455357142856,3105.3,701.9683035714286,92.87455357142856,3205.5,701.9683035714286,92.87455357142856,3305.5,701.9683035714286,92.87455357142856,3407.3,701.9683035714286,92.87455357142856,3515,701.9683035714286,92.87455357142856,3619.5,701.9683035714286,92.87455357142856,3720.1,701.9683035714286,92.87455357142856,3820.6,701.9683035714286,92.87455357142856,3925.1,701.9683035714286,92.87455357142856,4026,701.9683035714286,92.87455357142856,4129.9,701.9683035714286,92.87455357142856,4231.5,701.9683035714286,92.87455357142856,4338.1,701.9683035714286,92.87455357142856,4438.2,701.9683035714286,92.87455357142856,4540,701.9683035714286,92.87455357142856,4640,701.9683035714286,92.87455357142856,4740.1,701.9683035714286,92.87455357142856,4845,701.9683035714286,92.87455357142856,4955.2]","[1395.8,1395.8,1000,0,395.8,""smooth"",""right"",""right"",""good_move"",4291.6,2895.2,2523.4,1396.5,371.7,""oops"",""up"",""up"",""good_move"",10987.4,6695,2964.1,7637.7,385.6,""oops"",""right"",""right"",""good_move"",13902.6,2915,2351.8,10987.6,563.2,""smooth"",""up"",""up"",""good_move"",20528.3,6625.1,3073.5,17102.6,352.2,""smooth"",""up"",""up"",""good_move"",23962.9,3434.3,3020.3,20528.6,414,""smooth"",""right"",""right"",""good_move""]","",""
"2286","","<div style=""width:500px;"">
  <p>What determined the result of this run?</p>
  </div>","71","html-slider-response","40","400349","0.0-5.0-1.6","23","1","2025-07-09 09:28:01","01610cd0009c79a99da7d0a3353eb402","212.159.106.248","Mozilla/5.0 (Windows NT 10.0; Win64; x64) AppleWebKit/537.36 (KHTML, like Gecko) Chrome/137.0.0.0 Safari/537.36","WebKit","Chrome","137.0.0.0","Windows","10.0","https://app.prolific.com/","en-US,en;q=0.9","5d8e154af2858200171fdb95","683db7602f5db6a34d12d064","686e361bf46cda1e90dee8bb","1","5d8e154af2858200171fdb95","1","2025-07-09T09:34:41.862Z","","","","","","","","","","","AttribQ","","50","","","","","","","","","","","","","","","","","","","","","","","","","","","","",""
"4241","","<div style=""width:500px;"">
  <p>How much control did you have over the ball?</p>
  </div>","65","html-slider-response","41","404592","0.0-5.0-2.6","23","1","2025-07-09 09:28:01","01610cd0009c79a99da7d0a3353eb402","212.159.106.248","Mozilla/5.0 (Windows NT 10.0; Win64; x64) AppleWebKit/537.36 (KHTML, like Gecko) Chrome/137.0.0.0 Safari/537.36","WebKit","Chrome","137.0.0.0","Windows","10.0","https://app.prolific.com/","en-US,en;q=0.9","5d8e154af2858200171fdb95","683db7602f5db6a34d12d064","686e361bf46cda1e90dee8bb","1","5d8e154af2858200171fdb95","1","2025-07-09T09:34:46.106Z","","","","","","","","","","","ControlQ","","50","","","","","","","","","","","","","","","","","","","","","","","","","","","","",""
"3401","","<div style=""width:500px;"">
  <p>How would you describe your current emotional state?</p>
  </div>","25","html-slider-response","42","407995","0.0-5.0-3.6","23","1","2025-07-09 09:28:01","01610cd0009c79a99da7d0a3353eb402","212.159.106.248","Mozilla/5.0 (Windows NT 10.0; Win64; x64) AppleWebKit/537.36 (KHTML, like Gecko) Chrome/137.0.0.0 Safari/537.36","WebKit","Chrome","137.0.0.0","Windows","10.0","https://app.prolific.com/","en-US,en;q=0.9","5d8e154af2858200171fdb95","683db7602f5db6a34d12d064","686e361bf46cda1e90dee8bb","1","5d8e154af2858200171fdb95","1","2025-07-09T09:34:49.508Z","","","","","","","","","","","StressQ","","50","","","","","","","","","","","","","","","","","","","","","","","","","","","","",""
"1486","","<div style=""width:500px;"">
  <p>What best describes how you currently feel?</p>
  </div>","76","html-slider-response","43","409483","0.0-5.0-4.6","23","1","2025-07-09 09:28:01","01610cd0009c79a99da7d0a3353eb402","212.159.106.248","Mozilla/5.0 (Windows NT 10.0; Win64; x64) AppleWebKit/537.36 (KHTML, like Gecko) Chrome/137.0.0.0 Safari/537.36","WebKit","Chrome","137.0.0.0","Windows","10.0","https://app.prolific.com/","en-US,en;q=0.9","5d8e154af2858200171fdb95","683db7602f5db6a34d12d064","686e361bf46cda1e90dee8bb","1","5d8e154af2858200171fdb95","1","2025-07-09T09:34:50.996Z","","","","","","","","","","","MotivationQ","","50","","","","","","","","","","","","","","","","","","","","","","","","","","","","",""
"","","","","ctl-task-cpt","44","454977","0.0-5.0-0.7","23","1","2025-07-09 09:28:01","01610cd0009c79a99da7d0a3353eb402","212.159.106.248","Mozilla/5.0 (Windows NT 10.0; Win64; x64) AppleWebKit/537.36 (KHTML, like Gecko) Chrome/137.0.0.0 Safari/537.36","WebKit","Chrome","137.0.0.0","Windows","10.0","https://app.prolific.com/","en-US,en;q=0.9","5d8e154af2858200171fdb95","683db7602f5db6a34d12d064","686e361bf46cda1e90dee8bb","1","5d8e154af2858200171fdb95","1","2025-07-09T09:35:36.490Z","","","","","","","","","","","","","","win-only","2","g1:SE,g2:NW","0.3","8","0","410750.6","1863.2","6867.5","42475.8","1","4","8","6","2","-8","-8","15","23","0.11363636363636363","1350.4","3000","-2245","[""left"",""up""]","{""num_key_presses"":10,""num_perfect"":3,""num_errors"":0,""num_randdir"":7,""num_randdir_good_moves"":3,""num_whilered"":0,""num_whileblue"":0,""num_blue"":1,""num_good_moves"":6}","[397.9683035714286,398.8745535714286,0.4,397.9683035714286,398.8745535714286,110.9,397.9683035714286,398.8745535714286,214.1,397.9683035714286,398.8745535714286,322.1,397.9683035714286,398.8745535714286,428.6,397.9683035714286,398.8745535714286,532.1,190.96830357142858,217.87455357142858,633.7,158.96830357142858,204.87455357142858,733.9,157.96830357142858,193.87455357142858,839.7,100.96830357142856,115.87455357142856,942.9,87.96830357142856,102.87455357142856,1046.5,86.96830357142856,102.87455357142856,1147.7,81.96830357142856,101.87455357142856,1247.9,75.96830357142856,101.87455357142856,1348.2,75.96830357142856,101.87455357142856,1455.5,75.96830357142856,101.87455357142856,1558.4,75.96830357142856,101.87455357142856,1660,75.96830357142856,101.87455357142856,1762.2,75.96830357142856,101.87455357142856,1863.1,75.96830357142856,101.87455357142856,1963.6,75.96830357142856,101.87455357142856,2067.7,75.96830357142856,101.87455357142856,2168.1,75.96830357142856,101.87455357142856,2274.7,75.96830357142856,101.87455357142856,2377.8,75.96830357142856,101.87455357142856,2478.4,75.96830357142856,101.87455357142856,2583.1,75.96830357142856,101.87455357142856,2684.3,75.96830357142856,101.87455357142856,2790.1,75.96830357142856,101.87455357142856,2893.9,75.96830357142856,101.87455357142856,2995,75.96830357142856,101.87455357142856,3098.2,75.96830357142856,101.87455357142856,3198.4,75.96830357142856,101.87455357142856,3305.5,75.96830357142856,101.87455357142856,3411.5,75.96830357142856,101.87455357142856,3512.3,75.96830357142856,101.87455357142856,3613.9,75.96830357142856,101.87455357142856,3714.2,75.96830357142856,101.87455357142856,3821.4,75.96830357142856,101.87455357142856,3931,75.96830357142856,101.87455357142856,4033.1,75.96830357142856,101.87455357142856,4149.4,75.96830357142856,101.87455357142856,4264.1,75.96830357142856,101.87455357142856,4368,75.96830357142856,101.87455357142856,4469.7,75.96830357142856,101.87455357142856,4573.6,75.96830357142856,101.87455357142856,4678.7,75.96830357142856,101.87455357142856,4782.3,75.96830357142856,101.87455357142856,4882.9,75.96830357142856,101.87455357142856,4996.3]","[1333.1,1333.1,1000,0,333.1,""smooth"",""left"",""left"",""good_move"",4528.7,3195,2817.9,1333.7,377.1,""oops"",""up"",""right"",""bad_move"",8074.2,3544.9,3187.6,4529.3,357.3,""smooth"",""left"",""left"",""good_move"",11635.9,3561.6,3169.7,8074.3,391.9,""oops"",""up"",""up"",""good_move"",15421.4,3785,3430.5,11636.4,354.5,""oops"",""left"",""up"",""good_move"",18350.6,2928.9,2561.5,15421.8,367.3,""oops"",""left"",""down"",""bad_move"",20979.9,2629,2276.9,18350.9,352.1,""oops"",""left"",""left"",""good_move"",23806.2,2825.9,2431,20980.4,394.9,""oops"",""up"",""right"",""bad_move"",30240.8,6434,2510.8,27275.4,454.7,""oops"",""left"",""down"",""bad_move"",32973.9,2732.5,2240.4,30241.5,492,""smooth"",""up"",""up"",""good_move""]","",""
"5550","","<div style=""width:500px;"">
  <p>What determined the result of this run?</p>
  </div>","8","html-slider-response","45","460529","0.0-5.0-1.7","23","1","2025-07-09 09:28:01","01610cd0009c79a99da7d0a3353eb402","212.159.106.248","Mozilla/5.0 (Windows NT 10.0; Win64; x64) AppleWebKit/537.36 (KHTML, like Gecko) Chrome/137.0.0.0 Safari/537.36","WebKit","Chrome","137.0.0.0","Windows","10.0","https://app.prolific.com/","en-US,en;q=0.9","5d8e154af2858200171fdb95","683db7602f5db6a34d12d064","686e361bf46cda1e90dee8bb","1","5d8e154af2858200171fdb95","1","2025-07-09T09:35:42.042Z","","","","","","","","","","","AttribQ","","50","","","","","","","","","","","","","","","","","","","","","","","","","","","","",""
"4524","","<div style=""width:500px;"">
  <p>How much control did you have over the ball?</p>
  </div>","8","html-slider-response","46","465055","0.0-5.0-2.7","23","1","2025-07-09 09:28:01","01610cd0009c79a99da7d0a3353eb402","212.159.106.248","Mozilla/5.0 (Windows NT 10.0; Win64; x64) AppleWebKit/537.36 (KHTML, like Gecko) Chrome/137.0.0.0 Safari/537.36","WebKit","Chrome","137.0.0.0","Windows","10.0","https://app.prolific.com/","en-US,en;q=0.9","5d8e154af2858200171fdb95","683db7602f5db6a34d12d064","686e361bf46cda1e90dee8bb","1","5d8e154af2858200171fdb95","1","2025-07-09T09:35:46.568Z","","","","","","","","","","","ControlQ","","50","","","","","","","","","","","","","","","","","","","","","","","","","","","","",""
"2015","","<div style=""width:500px;"">
  <p>How would you describe your current emotional state?</p>
  </div>","79","html-slider-response","47","467071","0.0-5.0-3.7","23","1","2025-07-09 09:28:01","01610cd0009c79a99da7d0a3353eb402","212.159.106.248","Mozilla/5.0 (Windows NT 10.0; Win64; x64) AppleWebKit/537.36 (KHTML, like Gecko) Chrome/137.0.0.0 Safari/537.36","WebKit","Chrome","137.0.0.0","Windows","10.0","https://app.prolific.com/","en-US,en;q=0.9","5d8e154af2858200171fdb95","683db7602f5db6a34d12d064","686e361bf46cda1e90dee8bb","1","5d8e154af2858200171fdb95","1","2025-07-09T09:35:48.584Z","","","","","","","","","","","StressQ","","50","","","","","","","","","","","","","","","","","","","","","","","","","","","","",""
"3177","","<div style=""width:500px;"">
  <p>What best describes how you currently feel?</p>
  </div>","52","html-slider-response","48","470250","0.0-5.0-4.7","23","1","2025-07-09 09:28:01","01610cd0009c79a99da7d0a3353eb402","212.159.106.248","Mozilla/5.0 (Windows NT 10.0; Win64; x64) AppleWebKit/537.36 (KHTML, like Gecko) Chrome/137.0.0.0 Safari/537.36","WebKit","Chrome","137.0.0.0","Windows","10.0","https://app.prolific.com/","en-US,en;q=0.9","5d8e154af2858200171fdb95","683db7602f5db6a34d12d064","686e361bf46cda1e90dee8bb","1","5d8e154af2858200171fdb95","1","2025-07-09T09:35:51.763Z","","","","","","","","","","","MotivationQ","","50","","","","","","","","","","","","","","","","","","","","","","","","","","","","",""
"","","","","ctl-task-cpt","49","516624","0.0-5.0-0.8","23","1","2025-07-09 09:28:01","01610cd0009c79a99da7d0a3353eb402","212.159.106.248","Mozilla/5.0 (Windows NT 10.0; Win64; x64) AppleWebKit/537.36 (KHTML, like Gecko) Chrome/137.0.0.0 Safari/537.36","WebKit","Chrome","137.0.0.0","Windows","10.0","https://app.prolific.com/","en-US,en;q=0.9","5d8e154af2858200171fdb95","683db7602f5db6a34d12d064","686e361bf46cda1e90dee8bb","1","5d8e154af2858200171fdb95","1","2025-07-09T09:36:38.137Z","","","","","","","","","","","","","","win-only","0","g1:NW,g2:SE","0.2","9","0","471517.7","1648.4","6650.9","43355.4","1","4","4","6","2","-4","-4","11","15","0.08333333333333333","928.2","3000","-2475","[""down"",""right""]","{""num_key_presses"":7,""num_perfect"":2,""num_errors"":0,""num_randdir"":5,""num_randdir_good_moves"":3,""num_whilered"":0,""num_whileblue"":0,""num_blue"":4,""num_good_moves"":5}","[394.9683035714286,383.8745535714286,0.5,394.9683035714286,383.8745535714286,100.3,394.9683035714286,383.8745535714286,205.3,394.9683035714286,383.8745535714286,308.2,394.9683035714286,383.8745535714286,408.2,414.9683035714286,398.8745535714286,509.7,756.9683035714286,704.8745535714286,621.1,780.9683035714286,734.8745535714286,721.2,768.9683035714286,749.8745535714286,823.3,745.9683035714286,749.8745535714286,936.7,745.9683035714286,749.8745535714286,1041.1,745.9683035714286,749.8745535714286,1145.7,745.9683035714286,749.8745535714286,1245.9,745.9683035714286,749.8745535714286,1347.1,745.9683035714286,749.8745535714286,1447.1,745.9683035714286,749.8745535714286,1551.7,745.9683035714286,749.8745535714286,1652.9,745.9683035714286,749.8745535714286,1761.3,745.9683035714286,749.8745535714286,1871.4,745.9683035714286,749.8745535714286,1972.9,745.9683035714286,749.8745535714286,2073,745.9683035714286,749.8745535714286,2174.4,745.9683035714286,749.8745535714286,2278.3,745.9683035714286,749.8745535714286,2382.1,745.9683035714286,749.8745535714286,2483.2,745.9683035714286,749.8745535714286,2583.7,745.9683035714286,749.8745535714286,2687,745.9683035714286,749.8745535714286,2787.5,745.9683035714286,749.8745535714286,2895.6,745.9683035714286,749.8745535714286,2997.1,745.9683035714286,749.8745535714286,3097.2,745.9683035714286,749.8745535714286,3197.5,745.9683035714286,749.8745535714286,3302.8,745.9683035714286,749.8745535714286,3411.5,745.9683035714286,749.8745535714286,3521.4,745.9683035714286,749.8745535714286,3623.1,745.9683035714286,749.8745535714286,3735.3,745.9683035714286,749.8745535714286,3838.3,745.9683035714286,749.8745535714286,3942.2,745.9683035714286,749.8745535714286,4046.4,745.9683035714286,749.8745535714286,4147.2,745.9683035714286,749.8745535714286,4247.3,745.9683035714286,749.8745535714286,4352.1,745.9683035714286,749.8745535714286,4452.1,745.9683035714286,749.8745535714286,4553.2,745.9683035714286,749.8745535714286,4660.7,745.9683035714286,749.8745535714286,4761.8,745.9683035714286,749.8745535714286,4863,745.9683035714286,749.8745535714286,4965]","[1360.7,1360.7,1000,0,360.7,""oops"",""right"",""down"",""good_move"",4469.9,3108.8,2749.9,1361.1,358.9,""smooth"",""right"",""right"",""good_move"",7531.4,3060.9,2574.4,4470.6,486.4,""smooth"",""right"",""right"",""good_move"",14376.2,6844.3,2245,11755.6,375.6,""oops"",""down"",""right"",""good_move"",17622.2,3245.5,2739.9,14376.7,505.7,""oops"",""down"",""down"",""good_move"",23717.4,6094.6,2403.5,21000.4,313.5,""oops"",""down"",""left"",""bad_move"",26384,2666.1,1824,23717.9,842.1,""oops"",""down"",""up"",""bad_move""]","",""
"2719","","<div style=""width:500px;"">
  <p>What determined the result of this run?</p>
  </div>","9","html-slider-response","50","519344","0.0-5.0-1.8","23","1","2025-07-09 09:28:01","01610cd0009c79a99da7d0a3353eb402","212.159.106.248","Mozilla/5.0 (Windows NT 10.0; Win64; x64) AppleWebKit/537.36 (KHTML, like Gecko) Chrome/137.0.0.0 Safari/537.36","WebKit","Chrome","137.0.0.0","Windows","10.0","https://app.prolific.com/","en-US,en;q=0.9","5d8e154af2858200171fdb95","683db7602f5db6a34d12d064","686e361bf46cda1e90dee8bb","1","5d8e154af2858200171fdb95","1","2025-07-09T09:36:40.857Z","","","","","","","","","","","AttribQ","","50","","","","","","","","","","","","","","","","","","","","","","","","","","","","",""
"3372","","<div style=""width:500px;"">
  <p>How much control did you have over the ball?</p>
  </div>","15","html-slider-response","51","522717","0.0-5.0-2.8","23","1","2025-07-09 09:28:01","01610cd0009c79a99da7d0a3353eb402","212.159.106.248","Mozilla/5.0 (Windows NT 10.0; Win64; x64) AppleWebKit/537.36 (KHTML, like Gecko) Chrome/137.0.0.0 Safari/537.36","WebKit","Chrome","137.0.0.0","Windows","10.0","https://app.prolific.com/","en-US,en;q=0.9","5d8e154af2858200171fdb95","683db7602f5db6a34d12d064","686e361bf46cda1e90dee8bb","1","5d8e154af2858200171fdb95","1","2025-07-09T09:36:44.230Z","","","","","","","","","","","ControlQ","","50","","","","","","","","","","","","","","","","","","","","","","","","","","","","",""
"1843","","<div style=""width:500px;"">
  <p>How would you describe your current emotional state?</p>
  </div>","61","html-slider-response","52","524561","0.0-5.0-3.8","23","1","2025-07-09 09:28:01","01610cd0009c79a99da7d0a3353eb402","212.159.106.248","Mozilla/5.0 (Windows NT 10.0; Win64; x64) AppleWebKit/537.36 (KHTML, like Gecko) Chrome/137.0.0.0 Safari/537.36","WebKit","Chrome","137.0.0.0","Windows","10.0","https://app.prolific.com/","en-US,en;q=0.9","5d8e154af2858200171fdb95","683db7602f5db6a34d12d064","686e361bf46cda1e90dee8bb","1","5d8e154af2858200171fdb95","1","2025-07-09T09:36:46.074Z","","","","","","","","","","","StressQ","","50","","","","","","","","","","","","","","","","","","","","","","","","","","","","",""
"1376","","<div style=""width:500px;"">
  <p>What best describes how you currently feel?</p>
  </div>","44","html-slider-response","53","525938","0.0-5.0-4.8","23","1","2025-07-09 09:28:01","01610cd0009c79a99da7d0a3353eb402","212.159.106.248","Mozilla/5.0 (Windows NT 10.0; Win64; x64) AppleWebKit/537.36 (KHTML, like Gecko) Chrome/137.0.0.0 Safari/537.36","WebKit","Chrome","137.0.0.0","Windows","10.0","https://app.prolific.com/","en-US,en;q=0.9","5d8e154af2858200171fdb95","683db7602f5db6a34d12d064","686e361bf46cda1e90dee8bb","1","5d8e154af2858200171fdb95","1","2025-07-09T09:36:47.451Z","","","","","","","","","","","MotivationQ","","50","","","","","","","","","","","","","","","","","","","","","","","","","","","","",""
"","","","","ctl-task-cpt","54","566599","0.0-5.0-0.9","23","1","2025-07-09 09:28:01","01610cd0009c79a99da7d0a3353eb402","212.159.106.248","Mozilla/5.0 (Windows NT 10.0; Win64; x64) AppleWebKit/537.36 (KHTML, like Gecko) Chrome/137.0.0.0 Safari/537.36","WebKit","Chrome","137.0.0.0","Windows","10.0","https://app.prolific.com/","en-US,en;q=0.9","5d8e154af2858200171fdb95","683db7602f5db6a34d12d064","686e361bf46cda1e90dee8bb","1","5d8e154af2858200171fdb95","1","2025-07-09T09:37:28.112Z","","","","","","","","","","","","","","win-only","0","g1:NW,g2:SE","0.4","10","0","527205.9","1486.7","6497.8","37651.6","1","4","8","6","2","-8","-8","3","11","0.022727272727272728","994.6","3000","-2120","[""down"",""right""]","{""num_key_presses"":10,""num_perfect"":4,""num_errors"":0,""num_randdir"":6,""num_randdir_good_moves"":3,""num_whilered"":0,""num_whileblue"":0,""num_blue"":1,""num_good_moves"":7}","[395.9683035714286,395.8745535714286,0.2,395.9683035714286,395.8745535714286,104.2,395.9683035714286,395.8745535714286,209.7,395.9683035714286,395.8745535714286,310.5,395.9683035714286,395.8745535714286,410.9,416.9683035714286,411.8745535714286,511.2,616.9683035714286,579.8745535714286,616.6,653.9683035714286,624.8745535714286,728.3,662.9683035714286,648.8745535714286,832.2,698.9683035714286,700.8745535714286,935.5,700.9683035714286,700.8745535714286,1036.2,700.9683035714286,700.8745535714286,1140.9,700.9683035714286,700.8745535714286,1243.4,700.9683035714286,700.8745535714286,1344.2,700.9683035714286,700.8745535714286,1445.1,700.9683035714286,700.8745535714286,1548.9,700.9683035714286,700.8745535714286,1664.2,700.9683035714286,700.8745535714286,1765.3,700.9683035714286,700.8745535714286,1868.1,700.9683035714286,700.8745535714286,1971.5,700.9683035714286,700.8745535714286,2075.7,700.9683035714286,700.8745535714286,2179.5,700.9683035714286,700.8745535714286,2280.5,700.9683035714286,700.8745535714286,2383.1,700.9683035714286,700.8745535714286,2495,700.9683035714286,700.8745535714286,2595.1,700.9683035714286,700.8745535714286,2695.7,700.9683035714286,700.8745535714286,2801.7,700.9683035714286,700.8745535714286,2906.8,700.9683035714286,700.8745535714286,3009.7,700.9683035714286,700.8745535714286,3109.9,700.9683035714286,700.8745535714286,3209.9,700.9683035714286,700.8745535714286,3318.5,700.9683035714286,700.8745535714286,3421.2,700.9683035714286,700.8745535714286,3525.4,700.9683035714286,700.8745535714286,3633.1,700.9683035714286,700.8745535714286,3738.6,700.9683035714286,700.8745535714286,3838.7,700.9683035714286,700.8745535714286,3939.7,700.9683035714286,700.8745535714286,4040.8,700.9683035714286,700.8745535714286,4144.7,700.9683035714286,700.8745535714286,4251.7,700.9683035714286,700.8745535714286,4355.3,700.9683035714286,700.8745535714286,4455.3,700.9683035714286,700.8745535714286,4555.3,700.9683035714286,700.8745535714286,4659.8,700.9683035714286,700.8745535714286,4767.9,700.9683035714286,700.8745535714286,4868.3,700.9683035714286,700.8745535714286,4971.3]","[4174,4174,1706.7,2011.5,455.8,""oops"",""right"",""right"",""good_move"",6714.1,2539.4,2154.2,4174.7,385.2,""oops"",""down"",""right"",""good_move"",8785.8,2071.4,1693.2,6714.4,378.2,""oops"",""down"",""left"",""bad_move"",10671.7,1885.4,1415,8786.3,470.4,""oops"",""down"",""left"",""bad_move"",12682.9,2011,1685.5,10671.9,325.5,""smooth"",""down"",""down"",""good_move"",15662.4,2979,2512.2,12683.4,466.8,""oops"",""down"",""down"",""good_move"",19438.7,3775.9,3459.6,15662.8,316.3,""smooth"",""right"",""right"",""good_move"",22797,3357.5,2965.6,19439.6,391.8,""smooth"",""right"",""right"",""good_move"",26112,3314.6,3008.3,22797.4,306.3,""smooth"",""down"",""down"",""good_move"",28282.5,2170.1,1662.9,26112.4,507.2,""oops"",""right"",""up"",""bad_move""]","",""
"3607","","<div style=""width:500px;"">
  <p>What determined the result of this run?</p>
  </div>","3","html-slider-response","55","570208","0.0-5.0-1.9","23","1","2025-07-09 09:28:01","01610cd0009c79a99da7d0a3353eb402","212.159.106.248","Mozilla/5.0 (Windows NT 10.0; Win64; x64) AppleWebKit/537.36 (KHTML, like Gecko) Chrome/137.0.0.0 Safari/537.36","WebKit","Chrome","137.0.0.0","Windows","10.0","https://app.prolific.com/","en-US,en;q=0.9","5d8e154af2858200171fdb95","683db7602f5db6a34d12d064","686e361bf46cda1e90dee8bb","1","5d8e154af2858200171fdb95","1","2025-07-09T09:37:31.721Z","","","","","","","","","","","AttribQ","","50","","","","","","","","","","","","","","","","","","","","","","","","","","","","",""
"2121","","<div style=""width:500px;"">
  <p>How much control did you have over the ball?</p>
  </div>","2","html-slider-response","56","572330","0.0-5.0-2.9","23","1","2025-07-09 09:28:01","01610cd0009c79a99da7d0a3353eb402","212.159.106.248","Mozilla/5.0 (Windows NT 10.0; Win64; x64) AppleWebKit/537.36 (KHTML, like Gecko) Chrome/137.0.0.0 Safari/537.36","WebKit","Chrome","137.0.0.0","Windows","10.0","https://app.prolific.com/","en-US,en;q=0.9","5d8e154af2858200171fdb95","683db7602f5db6a34d12d064","686e361bf46cda1e90dee8bb","1","5d8e154af2858200171fdb95","1","2025-07-09T09:37:33.844Z","","","","","","","","","","","ControlQ","","50","","","","","","","","","","","","","","","","","","","","","","","","","","","","",""
"2419","","<div style=""width:500px;"">
  <p>How would you describe your current emotional state?</p>
  </div>","82","html-slider-response","57","574752","0.0-5.0-3.9","23","1","2025-07-09 09:28:01","01610cd0009c79a99da7d0a3353eb402","212.159.106.248","Mozilla/5.0 (Windows NT 10.0; Win64; x64) AppleWebKit/537.36 (KHTML, like Gecko) Chrome/137.0.0.0 Safari/537.36","WebKit","Chrome","137.0.0.0","Windows","10.0","https://app.prolific.com/","en-US,en;q=0.9","5d8e154af2858200171fdb95","683db7602f5db6a34d12d064","686e361bf46cda1e90dee8bb","1","5d8e154af2858200171fdb95","1","2025-07-09T09:37:36.265Z","","","","","","","","","","","StressQ","","50","","","","","","","","","","","","","","","","","","","","","","","","","","","","",""
"2023","","<div style=""width:500px;"">
  <p>What best describes how you currently feel?</p>
  </div>","11","html-slider-response","58","576776","0.0-5.0-4.9","23","1","2025-07-09 09:28:01","01610cd0009c79a99da7d0a3353eb402","212.159.106.248","Mozilla/5.0 (Windows NT 10.0; Win64; x64) AppleWebKit/537.36 (KHTML, like Gecko) Chrome/137.0.0.0 Safari/537.36","WebKit","Chrome","137.0.0.0","Windows","10.0","https://app.prolific.com/","en-US,en;q=0.9","5d8e154af2858200171fdb95","683db7602f5db6a34d12d064","686e361bf46cda1e90dee8bb","1","5d8e154af2858200171fdb95","1","2025-07-09T09:37:38.289Z","","","","","","","","","","","MotivationQ","","50","","","","","","","","","","","","","","","","","","","","","","","","","","","","",""
"","","","","ctl-task-cpt","59","630793","0.0-5.0-0.10","23","1","2025-07-09 09:28:01","01610cd0009c79a99da7d0a3353eb402","212.159.106.248","Mozilla/5.0 (Windows NT 10.0; Win64; x64) AppleWebKit/537.36 (KHTML, like Gecko) Chrome/137.0.0.0 Safari/537.36","WebKit","Chrome","137.0.0.0","Windows","10.0","https://app.prolific.com/","en-US,en;q=0.9","5d8e154af2858200171fdb95","683db7602f5db6a34d12d064","686e361bf46cda1e90dee8bb","1","5d8e154af2858200171fdb95","1","2025-07-09T09:38:32.306Z","","","","","","","","","","","","","","win-only","0","g1:NW,g2:SE","0.5","11","0","578045","1290.5","6290.9","50980","1","4","4","6","1","1","1","4","3","0.030303030303030304","1895","3000","25","[""left"",""up""]","{""num_key_presses"":12,""num_perfect"":7,""num_errors"":0,""num_randdir"":5,""num_randdir_good_moves"":2,""num_whilered"":0,""num_whileblue"":0,""num_blue"":3,""num_good_moves"":8}","[392.9683035714286,399.8745535714286,0.4,392.9683035714286,399.8745535714286,109,392.9683035714286,399.8745535714286,211.6,392.9683035714286,399.8745535714286,312.4,392.9683035714286,399.8745535714286,420.8,392.9683035714286,399.8745535714286,521,392.9683035714286,399.8745535714286,636.6,392.9683035714286,399.8745535714286,736.7,392.9683035714286,399.8745535714286,841.4,206.96830357142858,135.87455357142858,942,187.96830357142858,126.87455357142856,1046.5,188.96830357142858,125.87455357142856,1147.1,163.96830357142858,99.87455357142856,1250.7,163.96830357142858,99.87455357142856,1364.6,163.96830357142858,99.87455357142856,1465.3,87.96830357142856,77.87455357142856,1565.7,70.96830357142856,68.87455357142856,1666.9,70.96830357142856,68.87455357142856,1767,72.96830357142856,68.87455357142856,1870.8,72.96830357142856,70.87455357142856,1971.1,72.96830357142856,70.87455357142856,2077.2,72.96830357142856,70.87455357142856,2181.2,72.96830357142856,70.87455357142856,2285.3,72.96830357142856,70.87455357142856,2385.9,72.96830357142856,70.87455357142856,2490.4,72.96830357142856,70.87455357142856,2592.7,72.96830357142856,70.87455357142856,2695.6,72.96830357142856,70.87455357142856,2797.1,72.96830357142856,70.87455357142856,2901.5,72.96830357142856,70.87455357142856,3005.7,72.96830357142856,70.87455357142856,3105.8,72.96830357142856,70.87455357142856,3205.8,72.96830357142856,70.87455357142856,3312.2,72.96830357142856,70.87455357142856,3419.7,72.96830357142856,70.87455357142856,3522.3,72.96830357142856,70.87455357142856,3626,72.96830357142856,70.87455357142856,3726.8,72.96830357142856,70.87455357142856,3830.9,72.96830357142856,70.87455357142856,3930.9,72.96830357142856,70.87455357142856,4031.1,72.96830357142856,70.87455357142856,4134.6,72.96830357142856,70.87455357142856,4235.4,72.96830357142856,70.87455357142856,4336.8,72.96830357142856,70.87455357142856,4437.1,72.96830357142856,70.87455357142856,4540.5,72.96830357142856,70.87455357142856,4649.9,72.96830357142856,70.87455357142856,4751,72.96830357142856,70.87455357142856,4863,72.96830357142856,70.87455357142856,4965.1]","[1416.8,1416.8,1000,0,416.8,""smooth"",""left"",""left"",""good_move"",6861,5443.9,2332.3,4167,361.7,""oops"",""up"",""right"",""bad_move"",9754.5,2893.1,2539.9,6861.4,353.2,""oops"",""left"",""down"",""bad_move"",15412.9,5657.9,2393.3,12698.3,321.3,""oops"",""down"",""left"",""good_move"",18606,3192.8,2803.6,15413.2,389.2,""smooth"",""down"",""down"",""bad_move"",21448.9,2842.3,2480.7,18606.6,361.6,""oops"",""up"",""left"",""good_move"",25450.2,4001.1,3679.3,21449.2,321.8,""smooth"",""up"",""up"",""good_move"",28697.1,3246.2,2825.4,25450.9,420.8,""oops"",""up"",""down"",""bad_move"",32259.1,3561,3233.6,28698.1,327.4,""smooth"",""up"",""up"",""good_move"",38898.5,6638.9,2712.8,35772,413.8,""smooth"",""up"",""up"",""good_move"",41664.9,2766.1,2364.2,38898.8,402,""smooth"",""up"",""up"",""good_move"",44559.1,2893.4,2477.6,41665.7,415.8,""smooth"",""up"",""up"",""good_move""]","",""
"5225","","<div style=""width:500px;"">
  <p>What determined the result of this run?</p>
  </div>","8","html-slider-response","60","636020","0.0-5.0-1.10","23","1","2025-07-09 09:28:01","01610cd0009c79a99da7d0a3353eb402","212.159.106.248","Mozilla/5.0 (Windows NT 10.0; Win64; x64) AppleWebKit/537.36 (KHTML, like Gecko) Chrome/137.0.0.0 Safari/537.36","WebKit","Chrome","137.0.0.0","Windows","10.0","https://app.prolific.com/","en-US,en;q=0.9","5d8e154af2858200171fdb95","683db7602f5db6a34d12d064","686e361bf46cda1e90dee8bb","1","5d8e154af2858200171fdb95","1","2025-07-09T09:38:37.533Z","","","","","","","","","","","AttribQ","","50","","","","","","","","","","","","","","","","","","","","","","","","","","","","",""
"4885","","<div style=""width:500px;"">
  <p>How much control did you have over the ball?</p>
  </div>","8","html-slider-response","61","640907","0.0-5.0-2.10","23","1","2025-07-09 09:28:01","01610cd0009c79a99da7d0a3353eb402","212.159.106.248","Mozilla/5.0 (Windows NT 10.0; Win64; x64) AppleWebKit/537.36 (KHTML, like Gecko) Chrome/137.0.0.0 Safari/537.36","WebKit","Chrome","137.0.0.0","Windows","10.0","https://app.prolific.com/","en-US,en;q=0.9","5d8e154af2858200171fdb95","683db7602f5db6a34d12d064","686e361bf46cda1e90dee8bb","1","5d8e154af2858200171fdb95","1","2025-07-09T09:38:42.420Z","","","","","","","","","","","ControlQ","","50","","","","","","","","","","","","","","","","","","","","","","","","","","","","",""
"5066","","<div style=""width:500px;"">
  <p>How would you describe your current emotional state?</p>
  </div>","59","html-slider-response","62","645975","0.0-5.0-3.10","23","1","2025-07-09 09:28:01","01610cd0009c79a99da7d0a3353eb402","212.159.106.248","Mozilla/5.0 (Windows NT 10.0; Win64; x64) AppleWebKit/537.36 (KHTML, like Gecko) Chrome/137.0.0.0 Safari/537.36","WebKit","Chrome","137.0.0.0","Windows","10.0","https://app.prolific.com/","en-US,en;q=0.9","5d8e154af2858200171fdb95","683db7602f5db6a34d12d064","686e361bf46cda1e90dee8bb","1","5d8e154af2858200171fdb95","1","2025-07-09T09:38:47.488Z","","","","","","","","","","","StressQ","","50","","","","","","","","","","","","","","","","","","","","","","","","","","","","",""
"2496","","<div style=""width:500px;"">
  <p>What best describes how you currently feel?</p>
  </div>","16","html-slider-response","63","648473","0.0-5.0-4.10","23","1","2025-07-09 09:28:01","01610cd0009c79a99da7d0a3353eb402","212.159.106.248","Mozilla/5.0 (Windows NT 10.0; Win64; x64) AppleWebKit/537.36 (KHTML, like Gecko) Chrome/137.0.0.0 Safari/537.36","WebKit","Chrome","137.0.0.0","Windows","10.0","https://app.prolific.com/","en-US,en;q=0.9","5d8e154af2858200171fdb95","683db7602f5db6a34d12d064","686e361bf46cda1e90dee8bb","1","5d8e154af2858200171fdb95","1","2025-07-09T09:38:49.986Z","","","","","","","","","","","MotivationQ","","50","","","","","","","","","","","","","","","","","","","","","","","","","","","","",""
"","","","","ctl-task-cpt","64","683266","0.0-5.0-0.11","23","1","2025-07-09 09:28:01","01610cd0009c79a99da7d0a3353eb402","212.159.106.248","Mozilla/5.0 (Windows NT 10.0; Win64; x64) AppleWebKit/537.36 (KHTML, like Gecko) Chrome/137.0.0.0 Safari/537.36","WebKit","Chrome","137.0.0.0","Windows","10.0","https://app.prolific.com/","en-US,en;q=0.9","5d8e154af2858200171fdb95","683db7602f5db6a34d12d064","686e361bf46cda1e90dee8bb","1","5d8e154af2858200171fdb95","1","2025-07-09T09:39:24.779Z","","","","","","","","","","","","","","win-only","0","g1:NW,g2:SE","0.6","12","0","649742.2","3570.1","8576.5","31767","1","4","8","6","2","8","8","12","4","0.09090909090909091","1114","3000","1310","[""down"",""right""]","{""num_key_presses"":8,""num_perfect"":5,""num_errors"":0,""num_randdir"":3,""num_randdir_good_moves"":2,""num_whilered"":0,""num_whileblue"":0,""num_blue"":1,""num_good_moves"":7}","[397.9683035714286,402.8745535714286,0.4,397.9683035714286,402.8745535714286,120.3,397.9683035714286,402.8745535714286,236.3,397.9683035714286,402.8745535714286,344,397.9683035714286,402.8745535714286,446.5,397.9683035714286,402.8745535714286,551,397.9683035714286,402.8745535714286,671.1,555.9683035714286,525.8745535714286,771.8,750.9683035714286,747.8745535714286,889.9,753.9683035714286,757.8745535714286,1002.9,753.9683035714286,757.8745535714286,1105.7,753.9683035714286,757.8745535714286,1209.3,753.9683035714286,757.8745535714286,1314,753.9683035714286,757.8745535714286,1417.9,753.9683035714286,757.8745535714286,1522.5,753.9683035714286,757.8745535714286,1631.4,753.9683035714286,757.8745535714286,1739.8,753.9683035714286,757.8745535714286,1840.3,753.9683035714286,757.8745535714286,1943.5,753.9683035714286,757.8745535714286,2046.7,753.9683035714286,757.8745535714286,2147.7,753.9683035714286,757.8745535714286,2248.8,753.9683035714286,757.8745535714286,2351.4,753.9683035714286,757.8745535714286,2452,753.9683035714286,757.8745535714286,2552.9,753.9683035714286,757.8745535714286,2655.9,753.9683035714286,757.8745535714286,2758.2,753.9683035714286,757.8745535714286,2862.4,753.9683035714286,757.8745535714286,2966.2,753.9683035714286,757.8745535714286,3068.3,753.9683035714286,757.8745535714286,3172.3,753.9683035714286,757.8745535714286,3274.7,753.9683035714286,757.8745535714286,3376.5,753.9683035714286,757.8745535714286,3476.6,753.9683035714286,757.8745535714286,3584.7,753.9683035714286,757.8745535714286,3685.9,753.9683035714286,757.8745535714286,3801.8,753.9683035714286,757.8745535714286,3902.3,753.9683035714286,757.8745535714286,4013.2,753.9683035714286,757.8745535714286,4119,753.9683035714286,757.8745535714286,4220.9,753.9683035714286,757.8745535714286,4336.8,753.9683035714286,757.8745535714286,4438.1,753.9683035714286,757.8745535714286,4562.3,753.9683035714286,757.8745535714286,4665.1,753.9683035714286,757.8745535714286,4771.5,753.9683035714286,757.8745535714286,4884.8,753.9683035714286,757.8745535714286,4991.3]","[1361.3,1361.3,1000,0,361.3,""oops"",""right"",""down"",""good_move"",3684.5,2322.6,1873.1,1362,449.5,""smooth"",""right"",""right"",""good_move"",10140.2,6454.8,2457.9,7289.8,392.5,""smooth"",""right"",""right"",""good_move"",12360.6,2219.7,1768.9,10141.1,450.7,""smooth"",""down"",""down"",""good_move"",14973.4,2612,2182.7,12361.4,429.3,""oops"",""down"",""right"",""good_move"",17631.5,2657.8,2334.6,14973.7,323.3,""oops"",""down"",""up"",""bad_move"",20142.2,2510.3,2221.6,17632.1,288.6,""smooth"",""down"",""down"",""good_move"",22884.3,2741.3,2418.4,20143,323,""smooth"",""down"",""down"",""good_move""]","",""
"3980","","<div style=""width:500px;"">
  <p>What determined the result of this run?</p>
  </div>","55","html-slider-response","65","687247","0.0-5.0-1.11","23","1","2025-07-09 09:28:01","01610cd0009c79a99da7d0a3353eb402","212.159.106.248","Mozilla/5.0 (Windows NT 10.0; Win64; x64) AppleWebKit/537.36 (KHTML, like Gecko) Chrome/137.0.0.0 Safari/537.36","WebKit","Chrome","137.0.0.0","Windows","10.0","https://app.prolific.com/","en-US,en;q=0.9","5d8e154af2858200171fdb95","683db7602f5db6a34d12d064","686e361bf46cda1e90dee8bb","1","5d8e154af2858200171fdb95","1","2025-07-09T09:39:28.760Z","","","","","","","","","","","AttribQ","","50","","","","","","","","","","","","","","","","","","","","","","","","","","","","",""
"1711","","<div style=""width:500px;"">
  <p>How much control did you have over the ball?</p>
  </div>","44","html-slider-response","66","688961","0.0-5.0-2.11","23","1","2025-07-09 09:28:01","01610cd0009c79a99da7d0a3353eb402","212.159.106.248","Mozilla/5.0 (Windows NT 10.0; Win64; x64) AppleWebKit/537.36 (KHTML, like Gecko) Chrome/137.0.0.0 Safari/537.36","WebKit","Chrome","137.0.0.0","Windows","10.0","https://app.prolific.com/","en-US,en;q=0.9","5d8e154af2858200171fdb95","683db7602f5db6a34d12d064","686e361bf46cda1e90dee8bb","1","5d8e154af2858200171fdb95","1","2025-07-09T09:39:30.474Z","","","","","","","","","","","ControlQ","","50","","","","","","","","","","","","","","","","","","","","","","","","","","","","",""
"3619","","<div style=""width:500px;"">
  <p>How would you describe your current emotional state?</p>
  </div>","45","html-slider-response","67","692583","0.0-5.0-3.11","23","1","2025-07-09 09:28:01","01610cd0009c79a99da7d0a3353eb402","212.159.106.248","Mozilla/5.0 (Windows NT 10.0; Win64; x64) AppleWebKit/537.36 (KHTML, like Gecko) Chrome/137.0.0.0 Safari/537.36","WebKit","Chrome","137.0.0.0","Windows","10.0","https://app.prolific.com/","en-US,en;q=0.9","5d8e154af2858200171fdb95","683db7602f5db6a34d12d064","686e361bf46cda1e90dee8bb","1","5d8e154af2858200171fdb95","1","2025-07-09T09:39:34.096Z","","","","","","","","","","","StressQ","","50","","","","","","","","","","","","","","","","","","","","","","","","","","","","",""
"2547","","<div style=""width:500px;"">
  <p>What best describes how you currently feel?</p>
  </div>","17","html-slider-response","68","695131","0.0-5.0-4.11","23","1","2025-07-09 09:28:01","01610cd0009c79a99da7d0a3353eb402","212.159.106.248","Mozilla/5.0 (Windows NT 10.0; Win64; x64) AppleWebKit/537.36 (KHTML, like Gecko) Chrome/137.0.0.0 Safari/537.36","WebKit","Chrome","137.0.0.0","Windows","10.0","https://app.prolific.com/","en-US,en;q=0.9","5d8e154af2858200171fdb95","683db7602f5db6a34d12d064","686e361bf46cda1e90dee8bb","1","5d8e154af2858200171fdb95","1","2025-07-09T09:39:36.644Z","","","","","","","","","","","MotivationQ","","50","","","","","","","","","","","","","","","","","","","","","","","","","","","","",""
"","","","","ctl-task-cpt","69","735323","0.0-5.0-0.12","23","1","2025-07-09 09:28:01","01610cd0009c79a99da7d0a3353eb402","212.159.106.248","Mozilla/5.0 (Windows NT 10.0; Win64; x64) AppleWebKit/537.36 (KHTML, like Gecko) Chrome/137.0.0.0 Safari/537.36","WebKit","Chrome","137.0.0.0","Windows","10.0","https://app.prolific.com/","en-US,en;q=0.9","5d8e154af2858200171fdb95","683db7602f5db6a34d12d064","686e361bf46cda1e90dee8bb","1","5d8e154af2858200171fdb95","1","2025-07-09T09:40:16.836Z","","","","","","","","","","","","","","win-only","2","g1:SE,g2:NW","0.7","13","0","696398","4136.5","9139.3","37133.1","1","4","8","6","2","8","8","20","12","0.15151515151515152","1108.8","3000","2380","[""left"",""up""]","{""num_key_presses"":6,""num_perfect"":5,""num_errors"":0,""num_randdir"":1,""num_randdir_good_moves"":1,""num_whilered"":0,""num_whileblue"":0,""num_blue"":2,""num_good_moves"":6}","[397.9683035714286,389.8745535714286,0.7,397.9683035714286,389.8745535714286,114.2,397.9683035714286,389.8745535714286,222.2,397.9683035714286,389.8745535714286,324.6,397.9683035714286,389.8745535714286,427.9,397.9683035714286,389.8745535714286,537.3,397.9683035714286,389.8745535714286,650.3,397.9683035714286,389.8745535714286,825.2,397.9683035714286,389.8745535714286,932.3,397.9683035714286,389.8745535714286,1033.8,92.96830357142856,66.87455357142856,1135.9,92.96830357142856,66.87455357142856,1284.5,92.96830357142856,66.87455357142856,1388.7,92.96830357142856,66.87455357142856,1492.8,92.96830357142856,66.87455357142856,1596,92.96830357142856,66.87455357142856,1698,92.96830357142856,66.87455357142856,1848.7,92.96830357142856,66.87455357142856,1963.7,92.96830357142856,66.87455357142856,2068.2,92.96830357142856,66.87455357142856,2175.5,92.96830357142856,66.87455357142856,2275.6,92.96830357142856,66.87455357142856,2387.8,92.96830357142856,66.87455357142856,2490.3,92.96830357142856,66.87455357142856,2591,92.96830357142856,66.87455357142856,2743,92.96830357142856,66.87455357142856,2850.5,92.96830357142856,66.87455357142856,2956,92.96830357142856,66.87455357142856,3059.9,92.96830357142856,66.87455357142856,3197.3,92.96830357142856,66.87455357142856,3308.8,92.96830357142856,66.87455357142856,3416.4,92.96830357142856,66.87455357142856,3517.4,92.96830357142856,66.87455357142856,3628.9,92.96830357142856,66.87455357142856,3729,92.96830357142856,66.87455357142856,3841.1,92.96830357142856,66.87455357142856,3941.9,92.96830357142856,66.87455357142856,4076.6,92.96830357142856,66.87455357142856,4183.9,92.96830357142856,66.87455357142856,4284.4,92.96830357142856,66.87455357142856,4395.7,92.96830357142856,66.87455357142856,4504.6,92.96830357142856,66.87455357142856,4630.8,92.96830357142856,66.87455357142856,4741.9,92.96830357142856,66.87455357142856,4845.6,92.96830357142856,66.87455357142856,4970.2]","[1392.2,1392.3,1000,0,392.3,""smooth"",""left"",""left"",""good_move"",4615,3221.8,1900.1,1393.2,1321.7,""smooth"",""up"",""up"",""good_move"",8206.1,3590.3,2596.8,4615.9,993.5,""smooth"",""left"",""left"",""good_move"",11904.5,3697.8,3139.4,8206.8,558.3,""smooth"",""up"",""up"",""good_move"",19673.6,7768.7,3122.6,16168.9,382.2,""oops"",""up"",""left"",""good_move"",27482.6,7808.6,1854.1,25159.4,469.1,""smooth"",""up"",""up"",""good_move""]","",""
"2389","","<div style=""width:500px;"">
  <p>What determined the result of this run?</p>
  </div>","38","html-slider-response","70","737718","0.0-5.0-1.12","23","1","2025-07-09 09:28:01","01610cd0009c79a99da7d0a3353eb402","212.159.106.248","Mozilla/5.0 (Windows NT 10.0; Win64; x64) AppleWebKit/537.36 (KHTML, like Gecko) Chrome/137.0.0.0 Safari/537.36","WebKit","Chrome","137.0.0.0","Windows","10.0","https://app.prolific.com/","en-US,en;q=0.9","5d8e154af2858200171fdb95","683db7602f5db6a34d12d064","686e361bf46cda1e90dee8bb","1","5d8e154af2858200171fdb95","1","2025-07-09T09:40:19.231Z","","","","","","","","","","","AttribQ","","50","","","","","","","","","","","","","","","","","","","","","","","","","","","","",""
"2749","","<div style=""width:500px;"">
  <p>How much control did you have over the ball?</p>
  </div>","57","html-slider-response","71","740470","0.0-5.0-2.12","23","1","2025-07-09 09:28:01","01610cd0009c79a99da7d0a3353eb402","212.159.106.248","Mozilla/5.0 (Windows NT 10.0; Win64; x64) AppleWebKit/537.36 (KHTML, like Gecko) Chrome/137.0.0.0 Safari/537.36","WebKit","Chrome","137.0.0.0","Windows","10.0","https://app.prolific.com/","en-US,en;q=0.9","5d8e154af2858200171fdb95","683db7602f5db6a34d12d064","686e361bf46cda1e90dee8bb","1","5d8e154af2858200171fdb95","1","2025-07-09T09:40:21.983Z","","","","","","","","","","","ControlQ","","50","","","","","","","","","","","","","","","","","","","","","","","","","","","","",""
"2217","","<div style=""width:500px;"">
  <p>How would you describe your current emotional state?</p>
  </div>","26","html-slider-response","72","742690","0.0-5.0-3.12","23","1","2025-07-09 09:28:01","01610cd0009c79a99da7d0a3353eb402","212.159.106.248","Mozilla/5.0 (Windows NT 10.0; Win64; x64) AppleWebKit/537.36 (KHTML, like Gecko) Chrome/137.0.0.0 Safari/537.36","WebKit","Chrome","137.0.0.0","Windows","10.0","https://app.prolific.com/","en-US,en;q=0.9","5d8e154af2858200171fdb95","683db7602f5db6a34d12d064","686e361bf46cda1e90dee8bb","1","5d8e154af2858200171fdb95","1","2025-07-09T09:40:24.203Z","","","","","","","","","","","StressQ","","50","","","","","","","","","","","","","","","","","","","","","","","","","","","","",""
"2331","","<div style=""width:500px;"">
  <p>What best describes how you currently feel?</p>
  </div>","41","html-slider-response","73","745026","0.0-5.0-4.12","23","1","2025-07-09 09:28:01","01610cd0009c79a99da7d0a3353eb402","212.159.106.248","Mozilla/5.0 (Windows NT 10.0; Win64; x64) AppleWebKit/537.36 (KHTML, like Gecko) Chrome/137.0.0.0 Safari/537.36","WebKit","Chrome","137.0.0.0","Windows","10.0","https://app.prolific.com/","en-US,en;q=0.9","5d8e154af2858200171fdb95","683db7602f5db6a34d12d064","686e361bf46cda1e90dee8bb","1","5d8e154af2858200171fdb95","1","2025-07-09T09:40:26.539Z","","","","","","","","","","","MotivationQ","","50","","","","","","","","","","","","","","","","","","","","","","","","","","","","",""
"","","","","ctl-task-cpt","74","775416","0.0-5.0-0.13","23","1","2025-07-09 09:28:01","01610cd0009c79a99da7d0a3353eb402","212.159.106.248","Mozilla/5.0 (Windows NT 10.0; Win64; x64) AppleWebKit/537.36 (KHTML, like Gecko) Chrome/137.0.0.0 Safari/537.36","WebKit","Chrome","137.0.0.0","Windows","10.0","https://app.prolific.com/","en-US,en;q=0.9","5d8e154af2858200171fdb95","683db7602f5db6a34d12d064","686e361bf46cda1e90dee8bb","1","5d8e154af2858200171fdb95","1","2025-07-09T09:40:56.929Z","","","","","","","","","","","","","","win-only","3","g1:SW,g2:NE","0.8","14","0","746296.7","1802.7","6831.2","27323.3","1","4","4","6","1","1","1","21","20","0.1590909090909091","1485.1","3000","2785","[""down"",""left""]","{""num_key_presses"":4,""num_perfect"":2,""num_errors"":0,""num_randdir"":2,""num_randdir_good_moves"":2,""num_whilered"":0,""num_whileblue"":0,""num_blue"":1,""num_good_moves"":4}","[392.9683035714286,391.8745535714286,0.2,392.9683035714286,391.8745535714286,127.2,392.9683035714286,391.8745535714286,235.3,392.9683035714286,391.8745535714286,353.3,392.9683035714286,391.8745535714286,491.1,574.9683035714286,189.87455357142858,628.8,605.9683035714286,176.87455357142858,738,362.9683035714286,413.8745535714286,841.4,134.96830357142858,635.8745535714286,949.6,111.96830357142856,656.8745535714286,1050.3,98.96830357142856,677.8745535714286,1156.6,93.96830357142856,691.8745535714286,1258.8,93.96830357142856,696.8745535714286,1384.8,93.96830357142856,696.8745535714286,1525.9,93.96830357142856,696.8745535714286,1627.1,93.96830357142856,696.8745535714286,1745.7,93.96830357142856,696.8745535714286,1865.2,93.96830357142856,696.8745535714286,1989.5,93.96830357142856,696.8745535714286,2105,93.96830357142856,696.8745535714286,2206.2,93.96830357142856,696.8745535714286,2326.3,93.96830357142856,696.8745535714286,2427.6,93.96830357142856,696.8745535714286,2543.5,93.96830357142856,696.8745535714286,2652.2,93.96830357142856,696.8745535714286,2773,93.96830357142856,696.8745535714286,2887.3,93.96830357142856,696.8745535714286,3002.1,93.96830357142856,696.8745535714286,3126.9,93.96830357142856,696.8745535714286,3244.8,93.96830357142856,696.8745535714286,3366,93.96830357142856,696.8745535714286,3485.9,93.96830357142856,696.8745535714286,3605.6,93.96830357142856,696.8745535714286,3728.5,93.96830357142856,696.8745535714286,3851.8,93.96830357142856,696.8745535714286,3975.4,93.96830357142856,696.8745535714286,4105.6,93.96830357142856,696.8745535714286,4222.5,93.96830357142856,696.8745535714286,4338.6,93.96830357142856,696.8745535714286,4458,93.96830357142856,696.8745535714286,4577.7,93.96830357142856,696.8745535714286,4698.4,93.96830357142856,696.8745535714286,4817.9,93.96830357142856,696.8745535714286,4932.3]","[1567.5,1567.5,1000,0,567.5,""oops"",""left"",""down"",""good_move"",4916,3348.1,2960.3,1567.9,387.8,""smooth"",""left"",""left"",""good_move"",12678.6,7762,2670.3,4916.6,5091.7,""oops"",""left"",""down"",""good_move"",19600.3,6921.5,2692.5,16545.3,362.5,""smooth"",""left"",""left"",""good_move""]","",""
"2763","","<div style=""width:500px;"">
  <p>What determined the result of this run?</p>
  </div>","14","html-slider-response","75","778182","0.0-5.0-1.13","23","1","2025-07-09 09:28:01","01610cd0009c79a99da7d0a3353eb402","212.159.106.248","Mozilla/5.0 (Windows NT 10.0; Win64; x64) AppleWebKit/537.36 (KHTML, like Gecko) Chrome/137.0.0.0 Safari/537.36","WebKit","Chrome","137.0.0.0","Windows","10.0","https://app.prolific.com/","en-US,en;q=0.9","5d8e154af2858200171fdb95","683db7602f5db6a34d12d064","686e361bf46cda1e90dee8bb","1","5d8e154af2858200171fdb95","1","2025-07-09T09:40:59.696Z","","","","","","","","","","","AttribQ","","50","","","","","","","","","","","","","","","","","","","","","","","","","","","","",""
"2198","","<div style=""width:500px;"">
  <p>How much control did you have over the ball?</p>
  </div>","19","html-slider-response","76","780385","0.0-5.0-2.13","23","1","2025-07-09 09:28:01","01610cd0009c79a99da7d0a3353eb402","212.159.106.248","Mozilla/5.0 (Windows NT 10.0; Win64; x64) AppleWebKit/537.36 (KHTML, like Gecko) Chrome/137.0.0.0 Safari/537.36","WebKit","Chrome","137.0.0.0","Windows","10.0","https://app.prolific.com/","en-US,en;q=0.9","5d8e154af2858200171fdb95","683db7602f5db6a34d12d064","686e361bf46cda1e90dee8bb","1","5d8e154af2858200171fdb95","1","2025-07-09T09:41:01.898Z","","","","","","","","","","","ControlQ","","50","","","","","","","","","","","","","","","","","","","","","","","","","","","","",""
"2464","","<div style=""width:500px;"">
  <p>How would you describe your current emotional state?</p>
  </div>","41","html-slider-response","77","782855","0.0-5.0-3.13","23","1","2025-07-09 09:28:01","01610cd0009c79a99da7d0a3353eb402","212.159.106.248","Mozilla/5.0 (Windows NT 10.0; Win64; x64) AppleWebKit/537.36 (KHTML, like Gecko) Chrome/137.0.0.0 Safari/537.36","WebKit","Chrome","137.0.0.0","Windows","10.0","https://app.prolific.com/","en-US,en;q=0.9","5d8e154af2858200171fdb95","683db7602f5db6a34d12d064","686e361bf46cda1e90dee8bb","1","5d8e154af2858200171fdb95","1","2025-07-09T09:41:04.368Z","","","","","","","","","","","StressQ","","50","","","","","","","","","","","","","","","","","","","","","","","","","","","","",""
"1363","","<div style=""width:500px;"">
  <p>What best describes how you currently feel?</p>
