"rt","response_timestamp","stimulus","response","trial_type","trial_index","time_elapsed","internal_node_id","run_id","condition","recorded_at","source_code_version","ip","user_agent","device","browser","browser_version","platform","platform_version","referer","accept_language","PROLIFIC_PID","STUDY_ID","SESSION_ID","WEEK","BATCH","prolific_id","week","batch","realtime","success","responses","item_order","radio_event_ids","radio_event_times","key_event_times","mouse_event_times","straightlining","zigzagging","honeypot","eventType","view_history","slider_start","which_type","canvas_config","goals_layout","control_level","trial_number","tutorial_trial_number","trial_start_time","phase1_start_time","phase2_start_time","phase3_start_time","goal_1_value","goal_1_distance","goal_2_value","goal_2_distance","goal_selected","outcome","outcome_total","participant_final_score","participant_initial_score","participant_final_score_prop","goal_choice_rt","allocated_time","allocated_time_remaining","goal_direction","counts","mouse_movements","key_presses","question_order","question_id"
"3359","1752682305576","<p style='font-size:40px;line-height:1.25'><strong>Welcome to the experiment!</strong></p><p style='font-size:1.1em;line-height:1.25'>Thank you for participanting in our experiment again! You will be asked to play the Dysfunctional Ball Game again. We will briefly recap the rules before we start.</p><p style='font-size:1.1em;line-height:1.25'>Press <strong>Next</strong> to continue.</p>","0","custom-html-button-response","0","3361","0.0-0.0","120","1","2025-07-16 16:11:39","1f75c3e559b7213887762d5229550c2b","41.150.224.7","Mozilla/5.0 (Windows NT 10.0; Win64; x64) AppleWebKit/537.36 (KHTML, like Gecko) Chrome/138.0.0.0 Safari/537.36","WebKit","Chrome","138.0.0.0","Windows","10.0","https://app.prolific.com/","en-US,en;q=0.9","6785052a054e7c96c09f69cd","686e379bc37a29ffa5cdc956","6877cc18143de63f7b3acf85","1","1","6785052a054e7c96c09f69cd","1","1","2025-07-16T16:11:45.577Z","","","","","","","","","","","","","","","","","","","","","","","","","","","","","","","","","","","","","","","","","",""
"1650","","","","fullscreen","1","6018","0.0-1.0","120","1","2025-07-16 16:11:39","1f75c3e559b7213887762d5229550c2b","41.150.224.7","Mozilla/5.0 (Windows NT 10.0; Win64; x64) AppleWebKit/537.36 (KHTML, like Gecko) Chrome/138.0.0.0 Safari/537.36","WebKit","Chrome","138.0.0.0","Windows","10.0","https://app.prolific.com/","en-US,en;q=0.9","6785052a054e7c96c09f69cd","686e379bc37a29ffa5cdc956","6877cc18143de63f7b3acf85","1","1","6785052a054e7c96c09f69cd","1","1","","true","","","","","","","","","","","","","","","","","","","","","","","","","","","","","","","","","","","","","","","","",""
"676883","1752682985117","<p style='font-size:1.1em;line-height:1.25'>In the following, we will ask you a few questions relating to your feelings in the last 24 hours.<br></p><p style='font-size:1.1em;line-height:1.25'>Press the <strong>Next</strong> button to continue.</p>","0","custom-html-button-response","2","682902","0.0-2.0-0.0","120","1","2025-07-16 16:11:39","1f75c3e559b7213887762d5229550c2b","41.150.224.7","Mozilla/5.0 (Windows NT 10.0; Win64; x64) AppleWebKit/537.36 (KHTML, like Gecko) Chrome/138.0.0.0 Safari/537.36","WebKit","Chrome","138.0.0.0","Windows","10.0","https://app.prolific.com/","en-US,en;q=0.9","6785052a054e7c96c09f69cd","686e379bc37a29ffa5cdc956","6877cc18143de63f7b3acf85","1","1","6785052a054e7c96c09f69cd","1","1","2025-07-16T16:23:05.118Z","","","","","","","","","","","","","","","","","","","","","","","","","","","","","","","","","","","","","","","","","",""
"173252.60000002384","","","","survey-template","3","856159","0.0-2.0-1.0","120","1","2025-07-16 16:11:39","1f75c3e559b7213887762d5229550c2b","41.150.224.7","Mozilla/5.0 (Windows NT 10.0; Win64; x64) AppleWebKit/537.36 (KHTML, like Gecko) Chrome/138.0.0.0 Safari/537.36","WebKit","Chrome","138.0.0.0","Windows","10.0","https://app.prolific.com/","en-US,en;q=0.9","6785052a054e7c96c09f69cd","686e379bc37a29ffa5cdc956","6877cc18143de63f7b3acf85","1","1","6785052a054e7c96c09f69cd","1","1","2025-07-16T16:25:58.375Z","","{""Q01"":""1"",""Q02"":""0"",""Q03"":""0"",""Q04"":""3"",""Q05"":""4"",""Q06"":""2"",""Q07"":""3"",""Q08"":""0"",""Q09"":""3"",""Q10"":""3"",""Q11"":""4"",""Q12"":""1"",""Q13"":""5"",""Q14"":""5"",""Q15"":""5"",""Q16"":""0"",""Q17"":""3"",""Q18"":""0"",""Q19"":""3"",""Q20"":""4"",""Q21"":""5"",""Q22"":""3""}","[0,1,2,3,4,5,6,7,8,9,10,11,12,13,14,15,16,17,18,19,20,21]","[""Q01"",""Q02"",""Q03"",""Q04"",""Q05"",""Q06"",""Q07"",""Q08"",""Q08"",""Q09"",""Q10"",""Q11"",""Q12"",""Q13"",""Q14"",""Q15"",""Q16"",""Q16"",""Q17"",""Q18"",""Q19"",""Q20"",""Q21"",""Q22""]","[6030.699999988079,9095,10119.100000023842,12445.300000011921,16201.100000023842,26206.600000023842,29201,33753.19999998808,35332.60000002384,39866.69999998808,46876.5,54339.10000002384,58814.40000003576,60756.19999998808,65276.90000003576,69562,126372.5,132882.30000001192,138090.69999998808,140720.30000001192,145728.10000002384,155986.69999998808,164978.30000001192,172346.10000002384]","[]","[0.10000002384185791,6030.699999988079,7707,9095,10119.100000023842,12445.300000011921,16201.100000023842,26206.600000023842,29201,33753.19999998808,35332.60000002384,39866.69999998808,46876.5,54339.10000002384,58814.40000003576,60756.19999998808,65276.90000003576,69562,126372.5,132278.80000001192,132882.30000001192,138090.69999998808,140720.30000001192,145728.10000002384,155986.69999998808,164978.30000001192,172346.10000002384,173244.60000002384]","0.3181818181818182","0.3333333333333333","0","drsp","","","","","","","","","","","","","","","","","","","","","","","","","","","","","","",""
"14695.399999976158","","","","survey-template","4","870856","0.0-2.0-2.0","120","1","2025-07-16 16:11:39","1f75c3e559b7213887762d5229550c2b","41.150.224.7","Mozilla/5.0 (Windows NT 10.0; Win64; x64) AppleWebKit/537.36 (KHTML, like Gecko) Chrome/138.0.0.0 Safari/537.36","WebKit","Chrome","138.0.0.0","Windows","10.0","https://app.prolific.com/","en-US,en;q=0.9","6785052a054e7c96c09f69cd","686e379bc37a29ffa5cdc956","6877cc18143de63f7b3acf85","1","1","6785052a054e7c96c09f69cd","1","1","2025-07-16T16:26:13.073Z","","{""Q01"":""1"",""Q02"":""3"",""Q03"":""5""}","[0,1,2]","[""Q01"",""Q02"",""Q03"",""Q03""]","[5336.699999988079,8634.300000011921,12306.800000011921,14010.800000011921]","[]","[5336.699999988079,8634.300000011921,12306.800000011921,14010.800000011921,14694.5]","0.3333333333333333","0.5","0","stress","","","","","","","","","","","","","","","","","","","","","","","","","","","","","","",""
"5288","","","","instructions","5","876146","0.0-3.0-0.0","120","1","2025-07-16 16:11:39","1f75c3e559b7213887762d5229550c2b","41.150.224.7","Mozilla/5.0 (Windows NT 10.0; Win64; x64) AppleWebKit/537.36 (KHTML, like Gecko) Chrome/138.0.0.0 Safari/537.36","WebKit","Chrome","138.0.0.0","Windows","10.0","https://app.prolific.com/","en-US,en;q=0.9","6785052a054e7c96c09f69cd","686e379bc37a29ffa5cdc956","6877cc18143de63f7b3acf85","1","1","6785052a054e7c96c09f69cd","1","1","","","","","","","","","","","","","[{""page_index"":0,""viewing_time"":5288}]","","","","","","","","","","","","","","","","","","","","","","","","","","","","","",""
"282104","","<p>Before you start with this game please answer the following three questions yourself. </p>
  <p>Through this game, we measure several aspects of your cognitive performance, such as reaction times, multi-tasking capabilities </p>
  <p>and the ability to assess the situation you are in.</p>
  <p></p>
  <p><b>How good do you usually are in such tasks?</b></p>","100","html-slider-response","6","1158254","0.0-4.0-0.0","120","1","2025-07-16 16:11:39","1f75c3e559b7213887762d5229550c2b","41.150.224.7","Mozilla/5.0 (Windows NT 10.0; Win64; x64) AppleWebKit/537.36 (KHTML, like Gecko) Chrome/138.0.0.0 Safari/537.36","WebKit","Chrome","138.0.0.0","Windows","10.0","https://app.prolific.com/","en-US,en;q=0.9","6785052a054e7c96c09f69cd","686e379bc37a29ffa5cdc956","6877cc18143de63f7b3acf85","1","1","6785052a054e7c96c09f69cd","1","1","2025-07-16T16:31:00.471Z","","","","","","","","","","","PreSkillQ","","50","","","","","","","","","","","","","","","","","","","","","","","","","","","","",""
"5476","","<div style=""width:500px;"">
  <p>How well do you think you will perform in this task compared to other participants?</p>
  </div>","100","html-slider-response","7","1163732","0.0-4.0-1.0","120","1","2025-07-16 16:11:39","1f75c3e559b7213887762d5229550c2b","41.150.224.7","Mozilla/5.0 (Windows NT 10.0; Win64; x64) AppleWebKit/537.36 (KHTML, like Gecko) Chrome/138.0.0.0 Safari/537.36","WebKit","Chrome","138.0.0.0","Windows","10.0","https://app.prolific.com/","en-US,en;q=0.9","6785052a054e7c96c09f69cd","686e379bc37a29ffa5cdc956","6877cc18143de63f7b3acf85","1","1","6785052a054e7c96c09f69cd","1","1","2025-07-16T16:31:05.948Z","","","","","","","","","","","PrePerfQ","","50","","","","","","","","","","","","","","","","","","","","","","","","","","","","",""
"11313","","<div style=""width:500px;"">
  <p>What best describes how you currently feel?</p>
  </div>","0","html-slider-response","8","1175046","0.0-4.0-2.0","120","1","2025-07-16 16:11:39","1f75c3e559b7213887762d5229550c2b","41.150.224.7","Mozilla/5.0 (Windows NT 10.0; Win64; x64) AppleWebKit/537.36 (KHTML, like Gecko) Chrome/138.0.0.0 Safari/537.36","WebKit","Chrome","138.0.0.0","Windows","10.0","https://app.prolific.com/","en-US,en;q=0.9","6785052a054e7c96c09f69cd","686e379bc37a29ffa5cdc956","6877cc18143de63f7b3acf85","1","1","6785052a054e7c96c09f69cd","1","1","2025-07-16T16:31:17.262Z","","","","","","","","","","","PreMotivationQ","","50","","","","","","","","","","","","","","","","","","","","","","","","","","","","",""
"","","","","ctl-task-cpt","9","1204941","0.0-5.0-0.0","120","1","2025-07-16 16:11:39","1f75c3e559b7213887762d5229550c2b","41.150.224.7","Mozilla/5.0 (Windows NT 10.0; Win64; x64) AppleWebKit/537.36 (KHTML, like Gecko) Chrome/138.0.0.0 Safari/537.36","WebKit","Chrome","138.0.0.0","Windows","10.0","https://app.prolific.com/","en-US,en;q=0.9","6785052a054e7c96c09f69cd","686e379bc37a29ffa5cdc956","6877cc18143de63f7b3acf85","1","1","6785052a054e7c96c09f69cd","1","1","2025-07-16T16:31:47.157Z","","","","","","","","","","","","","","win-only","3","g1:SW,g2:NE","1","1","0","1179353.9","2856.3","7857","26887","1","4","8","6","1","1","1","1","0","0.007575757575757576","2058.3","3000","975","[""down"",""left""]","{""num_key_presses"":4,""num_perfect"":4,""num_errors"":0,""num_randdir"":0,""num_randdir_good_moves"":0,""num_whilered"":0,""num_whileblue"":0,""num_blue"":2,""num_good_moves"":4}","[425.57142857142856,413.1808016640799,0.2,425.57142857142856,413.1808016640799,100.4,425.57142857142856,413.1808016640799,204.9,425.57142857142856,413.1808016640799,305,425.57142857142856,413.1808016640799,405.2,425.57142857142856,413.1808016640799,505.2,425.57142857142856,413.1808016640799,610.5,425.57142857142856,413.1808016640799,716.6,409.07142857142856,432.6808016640799,817.2,317.57142857142856,587.1808016640799,917.6,308.57142857142856,612.6808016640799,1019.6,307.07142857142856,614.1808016640799,1125.1,307.07142857142856,614.1808016640799,1233,281.57142857142856,659.1808016640799,1333.2,215.57142857142856,719.1808016640799,1434.5,47.57142857142857,806.1808016640799,1534.6,11.57142857142857,818.1808016640799,1634.8,10.07142857142857,812.1808016640799,1740.3,16.07142857142857,795.6808016640799,1850.6,26.57142857142857,791.1808016640799,1954.9,38.57142857142857,780.6808016640799,2066.4,38.57142857142857,780.6808016640799,2166.7,38.57142857142857,780.6808016640799,2267.1,38.57142857142857,780.6808016640799,2369.8,50.57142857142857,777.6808016640799,2474.7,65.57142857142857,765.6808016640799,2583.1,80.57142857142857,740.1808016640799,2684.4,-69.42857142857143,572.1808016640799,2784.5,-75.42857142857143,546.6808016640799,2890.7,-75.42857142857143,546.6808016640799,3000.1,-75.42857142857143,546.6808016640799,3100.2,-75.42857142857143,546.6808016640799,3205.6,-75.42857142857143,546.6808016640799,3309.7,-75.42857142857143,546.6808016640799,3410.4,-75.42857142857143,546.6808016640799,3516.7,-75.42857142857143,546.6808016640799,3617.2,-75.42857142857143,546.6808016640799,3719.4,-75.42857142857143,546.6808016640799,3826.2,-75.42857142857143,546.6808016640799,3933.4,-75.42857142857143,546.6808016640799,4033.4,-75.42857142857143,546.6808016640799,4134.4,-75.42857142857143,546.6808016640799,4239.2,-75.42857142857143,546.6808016640799,4340.3,-75.42857142857143,546.6808016640799,4449.6,-75.42857142857143,546.6808016640799,4550.2,-75.42857142857143,546.6808016640799,4655.5,-75.42857142857143,546.6808016640799,4756.2,-75.42857142857143,546.6808016640799,4859.6,-75.42857142857143,546.6808016640799,4960]","[1024,1024,1000,0,24,""smooth"",""left"",""left"",""good_move"",4620.2,3595.9,2873.8,1024.4,722,""smooth"",""down"",""down"",""good_move"",16096.9,11476.4,3204.2,12289.1,603.6,""smooth"",""left"",""left"",""good_move"",18929.4,2832.4,1885.5,16097,946.9,""smooth"",""down"",""down"",""good_move""]","",""
"5710","","<div style=""width:500px;"">
  <p>What determined the result of this run?</p>
  </div>","100","html-slider-response","10","1210652","0.0-5.0-1.0","120","1","2025-07-16 16:11:39","1f75c3e559b7213887762d5229550c2b","41.150.224.7","Mozilla/5.0 (Windows NT 10.0; Win64; x64) AppleWebKit/537.36 (KHTML, like Gecko) Chrome/138.0.0.0 Safari/537.36","WebKit","Chrome","138.0.0.0","Windows","10.0","https://app.prolific.com/","en-US,en;q=0.9","6785052a054e7c96c09f69cd","686e379bc37a29ffa5cdc956","6877cc18143de63f7b3acf85","1","1","6785052a054e7c96c09f69cd","1","1","2025-07-16T16:31:52.869Z","","","","","","","","","","","AttribQ","","50","","","","","","","","","","","","","","","","","","","","","","","","","","","","",""
"3931","","<div style=""width:500px;"">
  <p>How much control did you have over the ball?</p>
  </div>","100","html-slider-response","11","1214584","0.0-5.0-2.0","120","1","2025-07-16 16:11:39","1f75c3e559b7213887762d5229550c2b","41.150.224.7","Mozilla/5.0 (Windows NT 10.0; Win64; x64) AppleWebKit/537.36 (KHTML, like Gecko) Chrome/138.0.0.0 Safari/537.36","WebKit","Chrome","138.0.0.0","Windows","10.0","https://app.prolific.com/","en-US,en;q=0.9","6785052a054e7c96c09f69cd","686e379bc37a29ffa5cdc956","6877cc18143de63f7b3acf85","1","1","6785052a054e7c96c09f69cd","1","1","2025-07-16T16:31:56.800Z","","","","","","","","","","","ControlQ","","50","","","","","","","","","","","","","","","","","","","","","","","","","","","","",""
"4849","","<div style=""width:500px;"">
  <p>How would you describe your current emotional state?</p>
  </div>","0","html-slider-response","12","1219434","0.0-5.0-3.0","120","1","2025-07-16 16:11:39","1f75c3e559b7213887762d5229550c2b","41.150.224.7","Mozilla/5.0 (Windows NT 10.0; Win64; x64) AppleWebKit/537.36 (KHTML, like Gecko) Chrome/138.0.0.0 Safari/537.36","WebKit","Chrome","138.0.0.0","Windows","10.0","https://app.prolific.com/","en-US,en;q=0.9","6785052a054e7c96c09f69cd","686e379bc37a29ffa5cdc956","6877cc18143de63f7b3acf85","1","1","6785052a054e7c96c09f69cd","1","1","2025-07-16T16:32:01.650Z","","","","","","","","","","","StressQ","","50","","","","","","","","","","","","","","","","","","","","","","","","","","","","",""
"5675","","<div style=""width:500px;"">
  <p>What best describes how you currently feel?</p>
  </div>","0","html-slider-response","13","1225110","0.0-5.0-4.0","120","1","2025-07-16 16:11:39","1f75c3e559b7213887762d5229550c2b","41.150.224.7","Mozilla/5.0 (Windows NT 10.0; Win64; x64) AppleWebKit/537.36 (KHTML, like Gecko) Chrome/138.0.0.0 Safari/537.36","WebKit","Chrome","138.0.0.0","Windows","10.0","https://app.prolific.com/","en-US,en;q=0.9","6785052a054e7c96c09f69cd","686e379bc37a29ffa5cdc956","6877cc18143de63f7b3acf85","1","1","6785052a054e7c96c09f69cd","1","1","2025-07-16T16:32:07.326Z","","","","","","","","","","","MotivationQ","","50","","","","","","","","","","","","","","","","","","","","","","","","","","","","",""
"","","","","ctl-task-cpt","14","1250383","0.0-5.0-0.1","120","1","2025-07-16 16:11:39","1f75c3e559b7213887762d5229550c2b","41.150.224.7","Mozilla/5.0 (Windows NT 10.0; Win64; x64) AppleWebKit/537.36 (KHTML, like Gecko) Chrome/138.0.0.0 Safari/537.36","WebKit","Chrome","138.0.0.0","Windows","10.0","https://app.prolific.com/","en-US,en;q=0.9","6785052a054e7c96c09f69cd","686e379bc37a29ffa5cdc956","6877cc18143de63f7b3acf85","1","1","6785052a054e7c96c09f69cd","1","1","2025-07-16T16:32:32.599Z","","","","","","","","","","","","","","win-only","0","g1:NW,g2:SE","0.9","2","0","1229414.6","1615.2","6615.6","22270.5","1","4","4","6","1","1","1","2","1","0.015151515151515152","2146.4","3000","435","[""left"",""up""]","{""num_key_presses"":4,""num_perfect"":4,""num_errors"":0,""num_randdir"":0,""num_randdir_good_moves"":0,""num_whilered"":0,""num_whileblue"":0,""num_blue"":1,""num_good_moves"":4}","[419.57142857142856,422.1808016640799,0.2,419.57142857142856,422.1808016640799,100.9,419.57142857142856,422.1808016640799,201,419.57142857142856,422.1808016640799,306,419.57142857142856,422.1808016640799,410.8,419.57142857142856,422.1808016640799,514.9,419.57142857142856,422.1808016640799,615.2,419.57142857142856,422.1808016640799,716.3,419.57142857142856,422.1808016640799,820.3,419.57142857142856,422.1808016640799,921.5,419.57142857142856,422.1808016640799,1025.8,419.57142857142856,422.1808016640799,1126,419.57142857142856,422.1808016640799,1226.2,419.57142857142856,422.1808016640799,1326.2,230.57142857142856,293.1808016640799,1430.7,199.07142857142856,207.68080166407992,1535.8,137.57142857142856,143.18080166407992,1636.1,53.57142857142857,71.18080166407994,1741.5,53.57142857142857,71.18080166407994,1845.1,53.57142857142857,71.18080166407994,1945.1,53.57142857142857,71.18080166407994,2051,53.57142857142857,71.18080166407994,2156.3,53.57142857142857,71.18080166407994,2260.6,53.57142857142857,71.18080166407994,2361.2,13.07142857142857,141.68080166407992,2466.9,-60.42857142857143,329.1808016640799,2570.5,-94.92857142857143,446.1808016640799,2676,-102.42857142857143,473.1808016640799,2776.3,-117.42857142857143,513.6808016640799,2880.2,-123.42857142857143,554.1808016640799,2980.5,-123.42857142857143,554.1808016640799,3080.5,-123.42857142857143,554.1808016640799,3181.1,-123.42857142857143,554.1808016640799,3285,-123.42857142857143,554.1808016640799,3385.4,-123.42857142857143,554.1808016640799,3485.5,-123.42857142857143,554.1808016640799,3591,-123.42857142857143,554.1808016640799,3695,-123.42857142857143,554.1808016640799,3795.5,-123.42857142857143,554.1808016640799,3900.9,-123.42857142857143,554.1808016640799,4001,-123.42857142857143,554.1808016640799,4104.9,-123.42857142857143,554.1808016640799,4205.2,-123.42857142857143,554.1808016640799,4305.2,-123.42857142857143,554.1808016640799,4406.5,-123.42857142857143,554.1808016640799,4510.5,-123.42857142857143,554.1808016640799,4610.5,-123.42857142857143,554.1808016640799,4715.8,-123.42857142857143,554.1808016640799,4820.9,-123.42857142857143,554.1808016640799,4921]","[1878.3,1878.3,1000,0,878.3,""smooth"",""up"",""up"",""good_move"",5558.7,3680.1,2970.9,1878.7,709.2,""smooth"",""up"",""up"",""good_move"",12253,6694,2847.7,8944.5,460.9,""smooth"",""left"",""left"",""good_move"",15561.3,3308,2772.1,12253.4,535.9,""smooth"",""left"",""left"",""good_move""]","",""
"6738","","<div style=""width:500px;"">
  <p>What determined the result of this run?</p>
  </div>","100","html-slider-response","15","1257122","0.0-5.0-1.1","120","1","2025-07-16 16:11:39","1f75c3e559b7213887762d5229550c2b","41.150.224.7","Mozilla/5.0 (Windows NT 10.0; Win64; x64) AppleWebKit/537.36 (KHTML, like Gecko) Chrome/138.0.0.0 Safari/537.36","WebKit","Chrome","138.0.0.0","Windows","10.0","https://app.prolific.com/","en-US,en;q=0.9","6785052a054e7c96c09f69cd","686e379bc37a29ffa5cdc956","6877cc18143de63f7b3acf85","1","1","6785052a054e7c96c09f69cd","1","1","2025-07-16T16:32:39.338Z","","","","","","","","","","","AttribQ","","50","","","","","","","","","","","","","","","","","","","","","","","","","","","","",""
"3430","","<div style=""width:500px;"">
  <p>How much control did you have over the ball?</p>
  </div>","100","html-slider-response","16","1260553","0.0-5.0-2.1","120","1","2025-07-16 16:11:39","1f75c3e559b7213887762d5229550c2b","41.150.224.7","Mozilla/5.0 (Windows NT 10.0; Win64; x64) AppleWebKit/537.36 (KHTML, like Gecko) Chrome/138.0.0.0 Safari/537.36","WebKit","Chrome","138.0.0.0","Windows","10.0","https://app.prolific.com/","en-US,en;q=0.9","6785052a054e7c96c09f69cd","686e379bc37a29ffa5cdc956","6877cc18143de63f7b3acf85","1","1","6785052a054e7c96c09f69cd","1","1","2025-07-16T16:32:42.769Z","","","","","","","","","","","ControlQ","","50","","","","","","","","","","","","","","","","","","","","","","","","","","","","",""
"5051","","<div style=""width:500px;"">
  <p>How would you describe your current emotional state?</p>
  </div>","0","html-slider-response","17","1265605","0.0-5.0-3.1","120","1","2025-07-16 16:11:39","1f75c3e559b7213887762d5229550c2b","41.150.224.7","Mozilla/5.0 (Windows NT 10.0; Win64; x64) AppleWebKit/537.36 (KHTML, like Gecko) Chrome/138.0.0.0 Safari/537.36","WebKit","Chrome","138.0.0.0","Windows","10.0","https://app.prolific.com/","en-US,en;q=0.9","6785052a054e7c96c09f69cd","686e379bc37a29ffa5cdc956","6877cc18143de63f7b3acf85","1","1","6785052a054e7c96c09f69cd","1","1","2025-07-16T16:32:47.821Z","","","","","","","","","","","StressQ","","50","","","","","","","","","","","","","","","","","","","","","","","","","","","","",""
"5028","","<div style=""width:500px;"">
  <p>What best describes how you currently feel?</p>
  </div>","100","html-slider-response","18","1270634","0.0-5.0-4.1","120","1","2025-07-16 16:11:39","1f75c3e559b7213887762d5229550c2b","41.150.224.7","Mozilla/5.0 (Windows NT 10.0; Win64; x64) AppleWebKit/537.36 (KHTML, like Gecko) Chrome/138.0.0.0 Safari/537.36","WebKit","Chrome","138.0.0.0","Windows","10.0","https://app.prolific.com/","en-US,en;q=0.9","6785052a054e7c96c09f69cd","686e379bc37a29ffa5cdc956","6877cc18143de63f7b3acf85","1","1","6785052a054e7c96c09f69cd","1","1","2025-07-16T16:32:52.850Z","","","","","","","","","","","MotivationQ","","50","","","","","","","","","","","","","","","","","","","","","","","","","","","","",""
"","","","","ctl-task-cpt","19","1296332","0.0-5.0-0.2","120","1","2025-07-16 16:11:39","1f75c3e559b7213887762d5229550c2b","41.150.224.7","Mozilla/5.0 (Windows NT 10.0; Win64; x64) AppleWebKit/537.36 (KHTML, like Gecko) Chrome/138.0.0.0 Safari/537.36","WebKit","Chrome","138.0.0.0","Windows","10.0","https://app.prolific.com/","en-US,en;q=0.9","6785052a054e7c96c09f69cd","686e379bc37a29ffa5cdc956","6877cc18143de63f7b3acf85","1","1","6785052a054e7c96c09f69cd","1","1","2025-07-16T16:33:18.548Z","","","","","","","","","","","","","","win-only","1","g1:NE,g2:SW","0.8","3","0","1274939.6","1098.3","6108.1","22685.4","1","4","8","6","1","1","1","3","2","0.022727272727272728","2145.8","3000","1120","[""up"",""right""]","{""num_key_presses"":4,""num_perfect"":3,""num_errors"":0,""num_randdir"":1,""num_randdir_good_moves"":1,""num_whilered"":0,""num_whileblue"":0,""num_blue"":2,""num_good_moves"":4}","[422.57142857142856,416.1808016640799,0.1,422.57142857142856,416.1808016640799,102.2,422.57142857142856,416.1808016640799,203.2,422.57142857142856,416.1808016640799,313.3,422.57142857142856,416.1808016640799,417.3,422.57142857142856,416.1808016640799,517.6,422.57142857142856,416.1808016640799,617.6,422.57142857142856,416.1808016640799,722,422.57142857142856,416.1808016640799,822.2,461.57142857142856,389.1808016640799,929.5,479.57142857142856,348.6808016640799,1032.2,616.0714285714286,137.18080166407992,1132.2,656.5714285714286,110.18080166407994,1233.2,688.0714285714286,87.68080166407994,1338.1,688.0714285714286,87.68080166407994,1445.8,716.5714285714286,87.68080166407994,1546.9,737.5714285714286,86.18080166407994,1652.5,737.5714285714286,86.18080166407994,1763.5,737.5714285714286,86.18080166407994,1865.2,737.5714285714286,86.18080166407994,1968,737.5714285714286,86.18080166407994,2068.1,737.5714285714286,86.18080166407994,2180.1,737.5714285714286,86.18080166407994,2280.5,737.5714285714286,86.18080166407994,2383.9,751.0714285714286,192.68080166407992,2488,905.5714285714286,422.1808016640799,2588,911.5714285714286,420.6808016640799,2703.5,961.0714285714286,413.1808016640799,2817.3,965.5714285714286,401.1808016640799,2917.7,968.5714285714286,395.1808016640799,3019,968.5714285714286,395.1808016640799,3122.3,968.5714285714286,395.1808016640799,3233.8,968.5714285714286,395.1808016640799,3347,968.5714285714286,395.1808016640799,3451.2,968.5714285714286,395.1808016640799,3560.5,968.5714285714286,395.1808016640799,3668,968.5714285714286,395.1808016640799,3772,968.5714285714286,395.1808016640799,3876.1,968.5714285714286,395.1808016640799,3985.7,968.5714285714286,395.1808016640799,4111.8,968.5714285714286,395.1808016640799,4233.7,968.5714285714286,395.1808016640799,4338.1,968.5714285714286,395.1808016640799,4443.1,968.5714285714286,395.1808016640799,4548.3,968.5714285714286,395.1808016640799,4652.7,968.5714285714286,395.1808016640799,4763.3,968.5714285714286,395.1808016640799,4864.9,968.5714285714286,395.1808016640799,4967.6]","[1632.8,1632.8,1000,0,632.8,""smooth"",""right"",""right"",""good_move"",4763.7,3130.7,2713.5,1633,417.2,""oops"",""up"",""up"",""good_move"",7463.4,2699.3,2100.3,4764.1,599,""smooth"",""up"",""up"",""good_move"",16483.5,9019.4,2277.9,13702.9,502.7,""smooth"",""right"",""right"",""good_move""]","",""
"7038","","<div style=""width:500px;"">
  <p>What determined the result of this run?</p>
  </div>","100","html-slider-response","20","1303370","0.0-5.0-1.2","120","1","2025-07-16 16:11:39","1f75c3e559b7213887762d5229550c2b","41.150.224.7","Mozilla/5.0 (Windows NT 10.0; Win64; x64) AppleWebKit/537.36 (KHTML, like Gecko) Chrome/138.0.0.0 Safari/537.36","WebKit","Chrome","138.0.0.0","Windows","10.0","https://app.prolific.com/","en-US,en;q=0.9","6785052a054e7c96c09f69cd","686e379bc37a29ffa5cdc956","6877cc18143de63f7b3acf85","1","1","6785052a054e7c96c09f69cd","1","1","2025-07-16T16:33:25.586Z","","","","","","","","","","","AttribQ","","50","","","","","","","","","","","","","","","","","","","","","","","","","","","","",""
"3049","","<div style=""width:500px;"">
  <p>How much control did you have over the ball?</p>
  </div>","100","html-slider-response","21","1306420","0.0-5.0-2.2","120","1","2025-07-16 16:11:39","1f75c3e559b7213887762d5229550c2b","41.150.224.7","Mozilla/5.0 (Windows NT 10.0; Win64; x64) AppleWebKit/537.36 (KHTML, like Gecko) Chrome/138.0.0.0 Safari/537.36","WebKit","Chrome","138.0.0.0","Windows","10.0","https://app.prolific.com/","en-US,en;q=0.9","6785052a054e7c96c09f69cd","686e379bc37a29ffa5cdc956","6877cc18143de63f7b3acf85","1","1","6785052a054e7c96c09f69cd","1","1","2025-07-16T16:33:28.637Z","","","","","","","","","","","ControlQ","","50","","","","","","","","","","","","","","","","","","","","","","","","","","","","",""
"5042","","<div style=""width:500px;"">
  <p>How would you describe your current emotional state?</p>
  </div>","0","html-slider-response","22","1311463","0.0-5.0-3.2","120","1","2025-07-16 16:11:39","1f75c3e559b7213887762d5229550c2b","41.150.224.7","Mozilla/5.0 (Windows NT 10.0; Win64; x64) AppleWebKit/537.36 (KHTML, like Gecko) Chrome/138.0.0.0 Safari/537.36","WebKit","Chrome","138.0.0.0","Windows","10.0","https://app.prolific.com/","en-US,en;q=0.9","6785052a054e7c96c09f69cd","686e379bc37a29ffa5cdc956","6877cc18143de63f7b3acf85","1","1","6785052a054e7c96c09f69cd","1","1","2025-07-16T16:33:33.680Z","","","","","","","","","","","StressQ","","50","","","","","","","","","","","","","","","","","","","","","","","","","","","","",""
"3293","","<div style=""width:500px;"">
  <p>What best describes how you currently feel?</p>
  </div>","100","html-slider-response","23","1314757","0.0-5.0-4.2","120","1","2025-07-16 16:11:39","1f75c3e559b7213887762d5229550c2b","41.150.224.7","Mozilla/5.0 (Windows NT 10.0; Win64; x64) AppleWebKit/537.36 (KHTML, like Gecko) Chrome/138.0.0.0 Safari/537.36","WebKit","Chrome","138.0.0.0","Windows","10.0","https://app.prolific.com/","en-US,en;q=0.9","6785052a054e7c96c09f69cd","686e379bc37a29ffa5cdc956","6877cc18143de63f7b3acf85","1","1","6785052a054e7c96c09f69cd","1","1","2025-07-16T16:33:36.973Z","","","","","","","","","","","MotivationQ","","50","","","","","","","","","","","","","","","","","","","","","","","","","","","","",""
"","","","","ctl-task-cpt","24","1341588","0.0-5.0-0.3","120","1","2025-07-16 16:11:39","1f75c3e559b7213887762d5229550c2b","41.150.224.7","Mozilla/5.0 (Windows NT 10.0; Win64; x64) AppleWebKit/537.36 (KHTML, like Gecko) Chrome/138.0.0.0 Safari/537.36","WebKit","Chrome","138.0.0.0","Windows","10.0","https://app.prolific.com/","en-US,en;q=0.9","6785052a054e7c96c09f69cd","686e379bc37a29ffa5cdc956","6877cc18143de63f7b3acf85","1","1","6785052a054e7c96c09f69cd","1","1","2025-07-16T16:34:03.805Z","","","","","","","","","","","","","","win-only","1","g1:NE,g2:SW","0.7","4","0","1319063.1","1580.6","6585.8","23821.8","1","4","4","6","2","4","3","6","3","0.045454545454545456","3210.9","3000","395","[""down"",""left""]","{""num_key_presses"":6,""num_perfect"":4,""num_errors"":1,""num_randdir"":1,""num_randdir_good_moves"":1,""num_whilered"":0,""num_whileblue"":1,""num_blue"":1,""num_good_moves"":6}","[424.07142857142856,425.1808016640799,0.3,424.07142857142856,425.1808016640799,102.2,424.07142857142856,425.1808016640799,202.7,425.57142857142856,423.6808016640799,305.1,425.57142857142856,422.1808016640799,405.8,425.57142857142856,422.1808016640799,510.2,425.57142857142856,422.1808016640799,610.4,425.57142857142856,422.1808016640799,710.8,425.57142857142856,422.1808016640799,810.9,425.57142857142856,422.1808016640799,915.5,425.57142857142856,422.1808016640799,1016.3,425.57142857142856,422.1808016640799,1120,425.57142857142856,422.1808016640799,1220.5,425.57142857142856,422.1808016640799,1320.7,430.07142857142856,407.1808016640799,1420.9,431.57142857142856,404.1808016640799,1525,431.57142857142856,404.1808016640799,1625.8,431.57142857142856,404.1808016640799,1725.8,431.57142857142856,404.1808016640799,1826.5,431.57142857142856,404.1808016640799,1930.1,434.57142857142856,401.1808016640799,2035.2,436.07142857142856,393.6808016640799,2136.8,437.57142857142856,362.1808016640799,2241.9,460.07142857142856,306.6808016640799,2345.7,580.0714285714286,207.68080166407992,2445.7,578.5714285714286,239.18080166407992,2570.3,341.57142857142856,536.1808016640799,2670.9,206.57142857142856,666.6808016640799,2775.3,179.57142857142856,698.1808016640799,2876.6,149.57142857142856,728.1808016640799,2982.9,88.07142857142857,752.1808016640799,3085.6,65.57142857142857,755.1808016640799,3190.7,65.57142857142857,755.1808016640799,3296,65.57142857142857,752.1808016640799,3396.7,64.07142857142857,746.1808016640799,3497.5,20.57142857142857,708.6808016640799,3601.1,13.07142857142857,635.1808016640799,3705.1,-33.42857142857143,569.1808016640799,3805.9,-165.42857142857144,521.1808016640799,3905.9,-172.92857142857144,518.1808016640799,4010.6,-178.92857142857144,540.6808016640799,4111,-178.92857142857144,539.1808016640799,4217.1,-178.92857142857144,539.1808016640799,4320,-178.92857142857144,539.1808016640799,4420.4,-178.92857142857144,539.1808016640799,4520.6,-178.92857142857144,533.1808016640799,4621.6,-178.92857142857144,533.1808016640799,4725,-178.92857142857144,533.1808016640799,4825.2,-178.92857142857144,533.1808016640799,4925.9]","[1584.4,1584.4,1000,0,584.4,""smooth"",""left"",""left"",""good_move"",4682.6,3097.8,2522,1584.8,575.8,""smooth"",""left"",""left"",""good_move"",7547.9,2865.1,2455,4682.8,410.1,""smooth"",""left"",""left"",""good_move"",10561.9,3013.8,2630.5,7548.1,383.3,""while_blue"",""down"",""down"",""good_move"",13393,2830.8,2253,10562.2,577.8,""smooth"",""down"",""down"",""good_move"",17132.5,3739.3,3029.9,13393.2,709.4,""oops"",""down"",""down"",""good_move""]","",""
"7884","","<div style=""width:500px;"">
  <p>What determined the result of this run?</p>
  </div>","100","html-slider-response","25","1349473","0.0-5.0-1.3","120","1","2025-07-16 16:11:39","1f75c3e559b7213887762d5229550c2b","41.150.224.7","Mozilla/5.0 (Windows NT 10.0; Win64; x64) AppleWebKit/537.36 (KHTML, like Gecko) Chrome/138.0.0.0 Safari/537.36","WebKit","Chrome","138.0.0.0","Windows","10.0","https://app.prolific.com/","en-US,en;q=0.9","6785052a054e7c96c09f69cd","686e379bc37a29ffa5cdc956","6877cc18143de63f7b3acf85","1","1","6785052a054e7c96c09f69cd","1","1","2025-07-16T16:34:11.690Z","","","","","","","","","","","AttribQ","","50","","","","","","","","","","","","","","","","","","","","","","","","","","","","",""
"3082","","<div style=""width:500px;"">
  <p>How much control did you have over the ball?</p>
  </div>","100","html-slider-response","26","1352557","0.0-5.0-2.3","120","1","2025-07-16 16:11:39","1f75c3e559b7213887762d5229550c2b","41.150.224.7","Mozilla/5.0 (Windows NT 10.0; Win64; x64) AppleWebKit/537.36 (KHTML, like Gecko) Chrome/138.0.0.0 Safari/537.36","WebKit","Chrome","138.0.0.0","Windows","10.0","https://app.prolific.com/","en-US,en;q=0.9","6785052a054e7c96c09f69cd","686e379bc37a29ffa5cdc956","6877cc18143de63f7b3acf85","1","1","6785052a054e7c96c09f69cd","1","1","2025-07-16T16:34:14.773Z","","","","","","","","","","","ControlQ","","50","","","","","","","","","","","","","","","","","","","","","","","","","","","","",""
"6249","","<div style=""width:500px;"">
  <p>How would you describe your current emotional state?</p>
  </div>","0","html-slider-response","27","1358808","0.0-5.0-3.3","120","1","2025-07-16 16:11:39","1f75c3e559b7213887762d5229550c2b","41.150.224.7","Mozilla/5.0 (Windows NT 10.0; Win64; x64) AppleWebKit/537.36 (KHTML, like Gecko) Chrome/138.0.0.0 Safari/537.36","WebKit","Chrome","138.0.0.0","Windows","10.0","https://app.prolific.com/","en-US,en;q=0.9","6785052a054e7c96c09f69cd","686e379bc37a29ffa5cdc956","6877cc18143de63f7b3acf85","1","1","6785052a054e7c96c09f69cd","1","1","2025-07-16T16:34:21.024Z","","","","","","","","","","","StressQ","","50","","","","","","","","","","","","","","","","","","","","","","","","","","","","",""
"3401","","<div style=""width:500px;"">
  <p>What best describes how you currently feel?</p>
  </div>","100","html-slider-response","28","1362211","0.0-5.0-4.3","120","1","2025-07-16 16:11:39","1f75c3e559b7213887762d5229550c2b","41.150.224.7","Mozilla/5.0 (Windows NT 10.0; Win64; x64) AppleWebKit/537.36 (KHTML, like Gecko) Chrome/138.0.0.0 Safari/537.36","WebKit","Chrome","138.0.0.0","Windows","10.0","https://app.prolific.com/","en-US,en;q=0.9","6785052a054e7c96c09f69cd","686e379bc37a29ffa5cdc956","6877cc18143de63f7b3acf85","1","1","6785052a054e7c96c09f69cd","1","1","2025-07-16T16:34:24.427Z","","","","","","","","","","","MotivationQ","","50","","","","","","","","","","","","","","","","","","","","","","","","","","","","",""
"","","","","ctl-task-cpt","29","1393650","0.0-5.0-0.4","120","1","2025-07-16 16:11:39","1f75c3e559b7213887762d5229550c2b","41.150.224.7","Mozilla/5.0 (Windows NT 10.0; Win64; x64) AppleWebKit/537.36 (KHTML, like Gecko) Chrome/138.0.0.0 Safari/537.36","WebKit","Chrome","138.0.0.0","Windows","10.0","https://app.prolific.com/","en-US,en;q=0.9","6785052a054e7c96c09f69cd","686e379bc37a29ffa5cdc956","6877cc18143de63f7b3acf85","1","1","6785052a054e7c96c09f69cd","1","1","2025-07-16T16:34:55.866Z","","","","","","","","","","","","","","win-only","2","g1:SE,g2:NW","0.6","5","0","1366519.8","1687.4","6691.3","28420.9","1","4","4","6","2","-4","-4","2","6","0.015151515151515152","1418.2","3000","-2405","[""left"",""up""]","{""num_key_presses"":6,""num_perfect"":4,""num_errors"":0,""num_randdir"":2,""num_randdir_good_moves"":0,""num_whilered"":0,""num_whileblue"":0,""num_blue"":1,""num_good_moves"":4}","[416.57142857142856,419.1808016640799,0.2,416.57142857142856,419.1808016640799,101.3,416.57142857142856,419.1808016640799,201.4,416.57142857142856,419.1808016640799,303.3,416.57142857142856,419.1808016640799,403.7,416.57142857142856,419.1808016640799,507.7,416.57142857142856,419.1808016640799,616.8,416.57142857142856,419.1808016640799,717.1,416.57142857142856,419.1808016640799,817.8,370.07142857142856,329.1808016640799,919,266.57142857142856,164.18080166407992,1023.3,158.57142857142856,98.18080166407994,1123.3,130.07142857142856,87.68080166407994,1232.4,58.07142857142857,69.68080166407994,1333.7,53.57142857142857,74.18080166407994,1434.3,53.57142857142857,81.68080166407994,1538.5,53.57142857142857,81.68080166407994,1639.1,53.57142857142857,107.18080166407994,1750.6,-127.92857142857143,149.18080166407992,1852.8,-237.42857142857144,158.18080166407992,1954,-246.42857142857144,167.18080166407992,2058.2,-249.42857142857144,167.18080166407992,2166.5,-249.42857142857144,167.18080166407992,2267,-249.42857142857144,167.18080166407992,2368.3,-249.42857142857144,167.18080166407992,2473.8,-249.42857142857144,167.18080166407992,2574.1,-249.42857142857144,167.18080166407992,2683.5,-249.42857142857144,167.18080166407992,2788.5,-249.42857142857144,167.18080166407992,2889,-249.42857142857144,167.18080166407992,2994,-249.42857142857144,167.18080166407992,3099.2,-249.42857142857144,167.18080166407992,3199.5,-249.42857142857144,167.18080166407992,3299.5,-249.42857142857144,167.18080166407992,3404.1,-249.42857142857144,167.18080166407992,3516.7,-249.42857142857144,167.18080166407992,3616.9,-249.42857142857144,167.18080166407992,3718.8,-249.42857142857144,167.18080166407992,3822.9,-249.42857142857144,167.18080166407992,3924.5,-249.42857142857144,167.18080166407992,4033.3,-249.42857142857144,167.18080166407992,4133.7,-249.42857142857144,167.18080166407992,4239,-249.42857142857144,167.18080166407992,4343.7,-249.42857142857144,167.18080166407992,4449.6,-249.42857142857144,167.18080166407992,4550.7,-249.42857142857144,167.18080166407992,4653.4,-249.42857142857144,167.18080166407992,4753.5,-249.42857142857144,167.18080166407992,4866.7,-249.42857142857144,167.18080166407992,4967.7]","[1589.2,1589.2,1000,0,589.2,""smooth"",""left"",""left"",""good_move"",4490.9,2901.4,2322.6,1589.5,578.8,""smooth"",""left"",""left"",""good_move"",6929.1,2437.7,1940.7,4491.5,496.9,""oops"",""up"",""right"",""bad_move"",9781.6,2851.2,2257.8,6930.4,593.4,""oops"",""up"",""right"",""bad_move"",13289.1,3507.4,2961.6,9781.7,545.8,""smooth"",""up"",""up"",""good_move"",19345.6,6056.2,2774.9,15978.1,592.6,""smooth"",""up"",""up"",""good_move""]","",""
"4572","","<div style=""width:500px;"">
  <p>What determined the result of this run?</p>
  </div>","0","html-slider-response","30","1398224","0.0-5.0-1.4","120","1","2025-07-16 16:11:39","1f75c3e559b7213887762d5229550c2b","41.150.224.7","Mozilla/5.0 (Windows NT 10.0; Win64; x64) AppleWebKit/537.36 (KHTML, like Gecko) Chrome/138.0.0.0 Safari/537.36","WebKit","Chrome","138.0.0.0","Windows","10.0","https://app.prolific.com/","en-US,en;q=0.9","6785052a054e7c96c09f69cd","686e379bc37a29ffa5cdc956","6877cc18143de63f7b3acf85","1","1","6785052a054e7c96c09f69cd","1","1","2025-07-16T16:35:00.441Z","","","","","","","","","","","AttribQ","","50","","","","","","","","","","","","","","","","","","","","","","","","","","","","",""
"4727","","<div style=""width:500px;"">
  <p>How much control did you have over the ball?</p>
  </div>","0","html-slider-response","31","1402955","0.0-5.0-2.4","120","1","2025-07-16 16:11:39","1f75c3e559b7213887762d5229550c2b","41.150.224.7","Mozilla/5.0 (Windows NT 10.0; Win64; x64) AppleWebKit/537.36 (KHTML, like Gecko) Chrome/138.0.0.0 Safari/537.36","WebKit","Chrome","138.0.0.0","Windows","10.0","https://app.prolific.com/","en-US,en;q=0.9","6785052a054e7c96c09f69cd","686e379bc37a29ffa5cdc956","6877cc18143de63f7b3acf85","1","1","6785052a054e7c96c09f69cd","1","1","2025-07-16T16:35:05.171Z","","","","","","","","","","","ControlQ","","50","","","","","","","","","","","","","","","","","","","","","","","","","","","","",""
"8901","","<div style=""width:500px;"">
  <p>How would you describe your current emotional state?</p>
  </div>","59","html-slider-response","32","1411858","0.0-5.0-3.4","120","1","2025-07-16 16:11:39","1f75c3e559b7213887762d5229550c2b","41.150.224.7","Mozilla/5.0 (Windows NT 10.0; Win64; x64) AppleWebKit/537.36 (KHTML, like Gecko) Chrome/138.0.0.0 Safari/537.36","WebKit","Chrome","138.0.0.0","Windows","10.0","https://app.prolific.com/","en-US,en;q=0.9","6785052a054e7c96c09f69cd","686e379bc37a29ffa5cdc956","6877cc18143de63f7b3acf85","1","1","6785052a054e7c96c09f69cd","1","1","2025-07-16T16:35:14.074Z","","","","","","","","","","","StressQ","","50","","","","","","","","","","","","","","","","","","","","","","","","","","","","",""
"5444","","<div style=""width:500px;"">
  <p>What best describes how you currently feel?</p>
  </div>","100","html-slider-response","33","1417307","0.0-5.0-4.4","120","1","2025-07-16 16:11:39","1f75c3e559b7213887762d5229550c2b","41.150.224.7","Mozilla/5.0 (Windows NT 10.0; Win64; x64) AppleWebKit/537.36 (KHTML, like Gecko) Chrome/138.0.0.0 Safari/537.36","WebKit","Chrome","138.0.0.0","Windows","10.0","https://app.prolific.com/","en-US,en;q=0.9","6785052a054e7c96c09f69cd","686e379bc37a29ffa5cdc956","6877cc18143de63f7b3acf85","1","1","6785052a054e7c96c09f69cd","1","1","2025-07-16T16:35:19.523Z","","","","","","","","","","","MotivationQ","","50","","","","","","","","","","","","","","","","","","","","","","","","","","","","",""
"","","","","ctl-task-cpt","34","1451130","0.0-5.0-0.5","120","1","2025-07-16 16:11:39","1f75c3e559b7213887762d5229550c2b","41.150.224.7","Mozilla/5.0 (Windows NT 10.0; Win64; x64) AppleWebKit/537.36 (KHTML, like Gecko) Chrome/138.0.0.0 Safari/537.36","WebKit","Chrome","138.0.0.0","Windows","10.0","https://app.prolific.com/","en-US,en;q=0.9","6785052a054e7c96c09f69cd","686e379bc37a29ffa5cdc956","6877cc18143de63f7b3acf85","1","1","6785052a054e7c96c09f69cd","1","1","2025-07-16T16:35:53.346Z","","","","","","","","","","","","","","win-only","3","g1:SW,g2:NE","0.5","6","0","1421616","1394.8","6401.8","30800.7","1","4","8","6","1","-1","-1","1","2","0.007575757575757576","5007","3000","-2470","[""down"",""left""]","{""num_key_presses"":5,""num_perfect"":2,""num_errors"":0,""num_randdir"":3,""num_randdir_good_moves"":2,""num_whilered"":0,""num_whileblue"":0,""num_blue"":2,""num_good_moves"":4}","[418.07142857142856,413.1808016640799,0.8,418.07142857142856,413.1808016640799,100.5,418.07142857142856,413.1808016640799,206.5,418.07142857142856,413.1808016640799,311.2,418.07142857142856,413.1808016640799,411.4,418.07142857142856,413.1808016640799,511.4,418.07142857142856,413.1808016640799,611.7,418.07142857142856,413.1808016640799,723.9,418.07142857142856,413.1808016640799,825,418.07142857142856,413.1808016640799,925.8,418.07142857142856,413.1808016640799,1040.3,418.07142857142856,413.1808016640799,1141.2,418.07142857142856,413.1808016640799,1246.6,418.07142857142856,413.1808016640799,1346.6,418.07142857142856,413.1808016640799,1456.9,418.07142857142856,413.1808016640799,1561.6,346.07142857142856,509.1808016640799,1666.2,263.57142857142856,617.1808016640799,1772.1,161.57142857142856,671.1808016640799,1872.2,158.57142857142856,681.6808016640799,1976,134.57142857142856,728.1808016640799,2089.7,134.57142857142856,728.1808016640799,2190.7,143.57142857142856,729.6808016640799,2290.7,269.57142857142856,680.1808016640799,2392.5,541.0714285714286,671.1808016640799,2497.3,863.5714285714286,675.6808016640799,2606.2,1021.0714285714286,668.1808016640799,2706.6,1028.5714285714287,663.6808016640799,2806.9,733.0714285714286,717.6808016640799,2910.7,221.57142857142856,813.6808016640799,3012.4,158.57142857142856,813.6808016640799,3116.4,200.57142857142856,788.1808016640799,3221.2,350.57142857142856,782.1808016640799,3324.6,365.57142857142856,779.1808016640799,3426.8,365.57142857142856,783.6808016640799,3539.5,380.57142857142856,780.6808016640799,3641.3,770.5714285714286,788.1808016640799,3756,1042.0714285714287,801.6808016640799,3860.9,1055.5714285714287,777.6808016640799,3972,1058.5714285714287,764.1808016640799,4075.6,1058.5714285714287,758.1808016640799,4175.8,1058.5714285714287,758.1808016640799,4288.8,1058.5714285714287,758.1808016640799,4388.9,1058.5714285714287,755.1808016640799,4489,1058.5714285714287,752.1808016640799,4589.2,1058.5714285714287,752.1808016640799,4689.5,1058.5714285714287,752.1808016640799,4791.1,1058.5714285714287,752.1808016640799,4895.9,1058.5714285714287,752.1808016640799,4996.1]","[8048,8048,2433.9,4984.4,629.7,""oops"",""down"",""down"",""good_move"",11318.9,3270.5,2741.6,8048.4,528.9,""oops"",""left"",""up"",""bad_move"",14714.4,3395.2,2243.3,11319.2,1151.9,""oops"",""left"",""down"",""good_move"",18046.5,3331.9,2467,14714.6,864.9,""smooth"",""left"",""left"",""good_move"",21195.1,3148.3,2693.9,18046.9,454.4,""smooth"",""left"",""left"",""good_move""]","",""
"6859","","<div style=""width:500px;"">
  <p>What determined the result of this run?</p>
  </div>","0","html-slider-response","35","1457991","0.0-5.0-1.5","120","1","2025-07-16 16:11:39","1f75c3e559b7213887762d5229550c2b","41.150.224.7","Mozilla/5.0 (Windows NT 10.0; Win64; x64) AppleWebKit/537.36 (KHTML, like Gecko) Chrome/138.0.0.0 Safari/537.36","WebKit","Chrome","138.0.0.0","Windows","10.0","https://app.prolific.com/","en-US,en;q=0.9","6785052a054e7c96c09f69cd","686e379bc37a29ffa5cdc956","6877cc18143de63f7b3acf85","1","1","6785052a054e7c96c09f69cd","1","1","2025-07-16T16:36:00.207Z","","","","","","","","","","","AttribQ","","50","","","","","","","","","","","","","","","","","","","","","","","","","","","","",""
"8369","","<div style=""width:500px;"">
  <p>How much control did you have over the ball?</p>
  </div>","49","html-slider-response","36","1466363","0.0-5.0-2.5","120","1","2025-07-16 16:11:39","1f75c3e559b7213887762d5229550c2b","41.150.224.7","Mozilla/5.0 (Windows NT 10.0; Win64; x64) AppleWebKit/537.36 (KHTML, like Gecko) Chrome/138.0.0.0 Safari/537.36","WebKit","Chrome","138.0.0.0","Windows","10.0","https://app.prolific.com/","en-US,en;q=0.9","6785052a054e7c96c09f69cd","686e379bc37a29ffa5cdc956","6877cc18143de63f7b3acf85","1","1","6785052a054e7c96c09f69cd","1","1","2025-07-16T16:36:08.579Z","","","","","","","","","","","ControlQ","","50","","","","","","","","","","","","","","","","","","","","","","","","","","","","",""
"8198","","<div style=""width:500px;"">
  <p>How would you describe your current emotional state?</p>
  </div>","69","html-slider-response","37","1474567","0.0-5.0-3.5","120","1","2025-07-16 16:11:39","1f75c3e559b7213887762d5229550c2b","41.150.224.7","Mozilla/5.0 (Windows NT 10.0; Win64; x64) AppleWebKit/537.36 (KHTML, like Gecko) Chrome/138.0.0.0 Safari/537.36","WebKit","Chrome","138.0.0.0","Windows","10.0","https://app.prolific.com/","en-US,en;q=0.9","6785052a054e7c96c09f69cd","686e379bc37a29ffa5cdc956","6877cc18143de63f7b3acf85","1","1","6785052a054e7c96c09f69cd","1","1","2025-07-16T16:36:16.784Z","","","","","","","","","","","StressQ","","50","","","","","","","","","","","","","","","","","","","","","","","","","","","","",""
"7178","","<div style=""width:500px;"">
  <p>What best describes how you currently feel?</p>
  </div>","0","html-slider-response","38","1481749","0.0-5.0-4.5","120","1","2025-07-16 16:11:39","1f75c3e559b7213887762d5229550c2b","41.150.224.7","Mozilla/5.0 (Windows NT 10.0; Win64; x64) AppleWebKit/537.36 (KHTML, like Gecko) Chrome/138.0.0.0 Safari/537.36","WebKit","Chrome","138.0.0.0","Windows","10.0","https://app.prolific.com/","en-US,en;q=0.9","6785052a054e7c96c09f69cd","686e379bc37a29ffa5cdc956","6877cc18143de63f7b3acf85","1","1","6785052a054e7c96c09f69cd","1","1","2025-07-16T16:36:23.966Z","","","","","","","","","","","MotivationQ","","50","","","","","","","","","","","","","","","","","","","","","","","","","","","","",""
"","","","","ctl-task-cpt","39","1515071","0.0-5.0-0.6","120","1","2025-07-16 16:11:39","1f75c3e559b7213887762d5229550c2b","41.150.224.7","Mozilla/5.0 (Windows NT 10.0; Win64; x64) AppleWebKit/537.36 (KHTML, like Gecko) Chrome/138.0.0.0 Safari/537.36","WebKit","Chrome","138.0.0.0","Windows","10.0","https://app.prolific.com/","en-US,en;q=0.9","6785052a054e7c96c09f69cd","686e379bc37a29ffa5cdc956","6877cc18143de63f7b3acf85","1","1","6785052a054e7c96c09f69cd","1","1","2025-07-16T16:36:57.287Z","","","","","","","","","","","","","","win-only","3","g1:SW,g2:NE","0.4","7","0","1486058.2","1567.2","6568.2","30286.1","1","4","8","6","1","-1","-1","0","1","0","2385.9","3000","-2295","[""down"",""left""]","{""num_key_presses"":5,""num_perfect"":3,""num_errors"":0,""num_randdir"":2,""num_randdir_good_moves"":1,""num_whilered"":0,""num_whileblue"":0,""num_blue"":2,""num_good_moves"":4}","[422.57142857142856,416.1808016640799,0.2,422.57142857142856,416.1808016640799,101.1,422.57142857142856,416.1808016640799,203.6,422.57142857142856,416.1808016640799,310.1,422.57142857142856,416.1808016640799,418.9,422.57142857142856,416.1808016640799,518.9,422.57142857142856,416.1808016640799,633.8,422.57142857142856,416.1808016640799,735.5,422.57142857142856,416.1808016640799,838.4,422.57142857142856,416.1808016640799,938.5,422.57142857142856,416.1808016640799,1038.6,422.57142857142856,416.1808016640799,1145.6,422.57142857142856,416.1808016640799,1248.6,422.57142857142856,416.1808016640799,1351.6,422.57142857142856,416.1808016640799,1452.4,422.57142857142856,416.1808016640799,1554.1,422.57142857142856,416.1808016640799,1655.3,422.57142857142856,416.1808016640799,1768.1,422.57142857142856,416.1808016640799,1868.2,329.57142857142856,542.1808016640799,1968.8,158.57142857142856,705.6808016640799,2069.5,92.57142857142857,732.6808016640799,2174.2,82.07142857142857,723.6808016640799,2274.6,38.57142857142857,744.6808016640799,2383.9,38.57142857142857,744.6808016640799,2484.4,40.07142857142857,737.1808016640799,2585.2,44.57142857142857,732.6808016640799,2685.3,44.57142857142857,704.1808016640799,2788.5,-114.42857142857143,548.1808016640799,2888.6,-220.92857142857144,426.6808016640799,2988.7,-201.42857142857144,389.1808016640799,3093.7,-198.42857142857144,389.1808016640799,3195,-198.42857142857144,389.1808016640799,3301,-216.42857142857144,387.6808016640799,3404.3,-220.92857142857144,386.1808016640799,3518.3,-220.92857142857144,386.1808016640799,3618.6,-220.92857142857144,386.1808016640799,3724.1,-220.92857142857144,386.1808016640799,3834.3,-220.92857142857144,386.1808016640799,3939,-220.92857142857144,386.1808016640799,4043.5,-220.92857142857144,386.1808016640799,4144.9,-220.92857142857144,386.1808016640799,4245.4,-220.92857142857144,386.1808016640799,4351,-220.92857142857144,386.1808016640799,4452.6,-220.92857142857144,386.1808016640799,4554.6,-220.92857142857144,386.1808016640799,4666.4,-220.92857142857144,386.1808016640799,4766.6,-220.92857142857144,386.1808016640799,4866.6,-220.92857142857144,386.1808016640799,4966.7]","[1531.1,1531.1,1000,0,531.1,""smooth"",""left"",""left"",""good_move"",12238,10706.5,3038.2,8702.4,497.4,""oops"",""down"",""down"",""good_move"",15799.3,3561,2322.1,12238.3,1238.9,""oops"",""down"",""right"",""bad_move"",18795.5,2994.7,2160.4,15800.8,834.3,""smooth"",""down"",""down"",""good_move"",21158,2362.4,1921,18795.6,441.4,""smooth"",""left"",""left"",""good_move""]","",""
"6619","","<div style=""width:500px;"">
  <p>What determined the result of this run?</p>
  </div>","0","html-slider-response","40","1521692","0.0-5.0-1.6","120","1","2025-07-16 16:11:39","1f75c3e559b7213887762d5229550c2b","41.150.224.7","Mozilla/5.0 (Windows NT 10.0; Win64; x64) AppleWebKit/537.36 (KHTML, like Gecko) Chrome/138.0.0.0 Safari/537.36","WebKit","Chrome","138.0.0.0","Windows","10.0","https://app.prolific.com/","en-US,en;q=0.9","6785052a054e7c96c09f69cd","686e379bc37a29ffa5cdc956","6877cc18143de63f7b3acf85","1","1","6785052a054e7c96c09f69cd","1","1","2025-07-16T16:37:03.909Z","","","","","","","","","","","AttribQ","","50","","","","","","","","","","","","","","","","","","","","","","","","","","","","",""
"3929","","<div style=""width:500px;"">
  <p>How much control did you have over the ball?</p>
  </div>","1","html-slider-response","41","1525625","0.0-5.0-2.6","120","1","2025-07-16 16:11:39","1f75c3e559b7213887762d5229550c2b","41.150.224.7","Mozilla/5.0 (Windows NT 10.0; Win64; x64) AppleWebKit/537.36 (KHTML, like Gecko) Chrome/138.0.0.0 Safari/537.36","WebKit","Chrome","138.0.0.0","Windows","10.0","https://app.prolific.com/","en-US,en;q=0.9","6785052a054e7c96c09f69cd","686e379bc37a29ffa5cdc956","6877cc18143de63f7b3acf85","1","1","6785052a054e7c96c09f69cd","1","1","2025-07-16T16:37:07.841Z","","","","","","","","","","","ControlQ","","50","","","","","","","","","","","","","","","","","","","","","","","","","","","","",""
"3411","","<div style=""width:500px;"">
  <p>How would you describe your current emotional state?</p>
  </div>","100","html-slider-response","42","1529037","0.0-5.0-3.6","120","1","2025-07-16 16:11:39","1f75c3e559b7213887762d5229550c2b","41.150.224.7","Mozilla/5.0 (Windows NT 10.0; Win64; x64) AppleWebKit/537.36 (KHTML, like Gecko) Chrome/138.0.0.0 Safari/537.36","WebKit","Chrome","138.0.0.0","Windows","10.0","https://app.prolific.com/","en-US,en;q=0.9","6785052a054e7c96c09f69cd","686e379bc37a29ffa5cdc956","6877cc18143de63f7b3acf85","1","1","6785052a054e7c96c09f69cd","1","1","2025-07-16T16:37:11.253Z","","","","","","","","","","","StressQ","","50","","","","","","","","","","","","","","","","","","","","","","","","","","","","",""
"23340","","<div style=""width:500px;"">
  <p>What best describes how you currently feel?</p>
  </div>","0","html-slider-response","43","1552379","0.0-5.0-4.6","120","1","2025-07-16 16:11:39","1f75c3e559b7213887762d5229550c2b","41.150.224.7","Mozilla/5.0 (Windows NT 10.0; Win64; x64) AppleWebKit/537.36 (KHTML, like Gecko) Chrome/138.0.0.0 Safari/537.36","WebKit","Chrome","138.0.0.0","Windows","10.0","https://app.prolific.com/","en-US,en;q=0.9","6785052a054e7c96c09f69cd","686e379bc37a29ffa5cdc956","6877cc18143de63f7b3acf85","1","1","6785052a054e7c96c09f69cd","1","1","2025-07-16T16:37:34.595Z","","","","","","","","","","","MotivationQ","","50","","","","","","","","","","","","","","","","","","","","","","","","","","","","",""
"","","","","ctl-task-cpt","44","1584427","0.0-5.0-0.7","120","1","2025-07-16 16:11:39","1f75c3e559b7213887762d5229550c2b","41.150.224.7","Mozilla/5.0 (Windows NT 10.0; Win64; x64) AppleWebKit/537.36 (KHTML, like Gecko) Chrome/138.0.0.0 Safari/537.36","WebKit","Chrome","138.0.0.0","Windows","10.0","https://app.prolific.com/","en-US,en;q=0.9","6785052a054e7c96c09f69cd","686e379bc37a29ffa5cdc956","6877cc18143de63f7b3acf85","1","1","6785052a054e7c96c09f69cd","1","1","2025-07-16T16:38:06.643Z","","","","","","","","","","","","","","win-only","0","g1:NW,g2:SE","0.3","8","0","1556685.6","3110.2","8113","29042.8","1","4","4","6","1","-1","-1","0","0","0","1871.4","3000","-2215","[""left"",""up""]","{""num_key_presses"":7,""num_perfect"":3,""num_errors"":0,""num_randdir"":4,""num_randdir_good_moves"":1,""num_whilered"":0,""num_whileblue"":0,""num_blue"":0,""num_good_moves"":4}","[413.57142857142856,407.1808016640799,0.4,413.57142857142856,407.1808016640799,127,413.57142857142856,407.1808016640799,227.1,413.57142857142856,407.1808016640799,331.9,413.57142857142856,407.1808016640799,432.4,413.57142857142856,407.1808016640799,538.7,413.57142857142856,407.1808016640799,640.1,413.57142857142856,407.1808016640799,740.8,413.57142857142856,407.1808016640799,842.1,413.57142857142856,407.1808016640799,947.1,338.57142857142856,351.6808016640799,1058.1,199.07142857142856,134.18080166407992,1159.4,155.57142857142856,90.68080166407994,1260.8,137.57142857142856,87.68080166407994,1367.2,134.57142857142856,87.68080166407994,1467.2,134.57142857142856,87.68080166407994,1567.2,134.57142857142856,87.68080166407994,1672.1,134.57142857142856,87.68080166407994,1772.3,134.57142857142856,87.68080166407994,1881,134.57142857142856,87.68080166407994,1982.7,134.57142857142856,87.68080166407994,2084.3,134.57142857142856,87.68080166407994,2188.7,134.57142857142856,87.68080166407994,2290.2,121.07142857142857,134.18080166407992,2390.2,95.57142857142857,210.68080166407992,2490.3,68.57142857142857,255.68080166407992,2596.4,44.57142857142857,293.1808016640799,2696.4,20.57142857142857,327.6808016640799,2802.4,8.57142857142857,342.6808016640799,2903.6,-21.42857142857143,371.1808016640799,3006,-78.42857142857143,408.6808016640799,3121.1,-91.92857142857143,416.1808016640799,3221.9,-91.92857142857143,416.1808016640799,3325,-91.92857142857143,416.1808016640799,3425.6,-91.92857142857143,416.1808016640799,3533.1,-91.92857142857143,416.1808016640799,3636.6,-91.92857142857143,416.1808016640799,3737,-91.92857142857143,416.1808016640799,3837.3,-91.92857142857143,416.1808016640799,3941,-91.92857142857143,416.1808016640799,4057.9,-91.92857142857143,416.1808016640799,4160.7,-91.92857142857143,416.1808016640799,4261.5,-91.92857142857143,416.1808016640799,4366.1,-91.92857142857143,416.1808016640799,4467.4,-91.92857142857143,416.1808016640799,4570.8,-91.92857142857143,416.1808016640799,4671,-91.92857142857143,416.1808016640799,4772.2,-91.92857142857143,416.1808016640799,4876.1,-91.92857142857143,416.1808016640799,4976.4]","[1534.3,1534.3,1000,0,534.3,""smooth"",""up"",""up"",""good_move"",4617.8,3083.1,2534.8,1534.7,548.3,""smooth"",""up"",""up"",""good_move"",7352.1,2734.2,2239.5,4617.9,494.7,""smooth"",""left"",""left"",""good_move"",10101.1,2748.7,2291.6,7352.4,457.1,""oops"",""left"",""right"",""bad_move"",12356.5,2255.2,1767.2,10101.3,488,""oops"",""left"",""left"",""good_move"",14777.1,2420.3,1994.6,12356.8,425.7,""oops"",""left"",""right"",""bad_move"",17854.1,3076.9,2238.4,14777.3,838.5,""oops"",""left"",""right"",""bad_move""]","",""
"37184","","<div style=""width:500px;"">
  <p>What determined the result of this run?</p>
  </div>","0","html-slider-response","45","1621614","0.0-5.0-1.7","120","1","2025-07-16 16:11:39","1f75c3e559b7213887762d5229550c2b","41.150.224.7","Mozilla/5.0 (Windows NT 10.0; Win64; x64) AppleWebKit/537.36 (KHTML, like Gecko) Chrome/138.0.0.0 Safari/537.36","WebKit","Chrome","138.0.0.0","Windows","10.0","https://app.prolific.com/","en-US,en;q=0.9","6785052a054e7c96c09f69cd","686e379bc37a29ffa5cdc956","6877cc18143de63f7b3acf85","1","1","6785052a054e7c96c09f69cd","1","1","2025-07-16T16:38:43.830Z","","","","","","","","","","","AttribQ","","50","","","","","","","","","","","","","","","","","","","","","","","","","","","","",""
"6617","","<div style=""width:500px;"">
  <p>How much control did you have over the ball?</p>
  </div>","0","html-slider-response","46","1628235","0.0-5.0-2.7","120","1","2025-07-16 16:11:39","1f75c3e559b7213887762d5229550c2b","41.150.224.7","Mozilla/5.0 (Windows NT 10.0; Win64; x64) AppleWebKit/537.36 (KHTML, like Gecko) Chrome/138.0.0.0 Safari/537.36","WebKit","Chrome","138.0.0.0","Windows","10.0","https://app.prolific.com/","en-US,en;q=0.9","6785052a054e7c96c09f69cd","686e379bc37a29ffa5cdc956","6877cc18143de63f7b3acf85","1","1","6785052a054e7c96c09f69cd","1","1","2025-07-16T16:38:50.451Z","","","","","","","","","","","ControlQ","","50","","","","","","","","","","","","","","","","","","","","","","","","","","","","",""
"4620","","<div style=""width:500px;"">
  <p>How would you describe your current emotional state?</p>
  </div>","100","html-slider-response","47","1632856","0.0-5.0-3.7","120","1","2025-07-16 16:11:39","1f75c3e559b7213887762d5229550c2b","41.150.224.7","Mozilla/5.0 (Windows NT 10.0; Win64; x64) AppleWebKit/537.36 (KHTML, like Gecko) Chrome/138.0.0.0 Safari/537.36","WebKit","Chrome","138.0.0.0","Windows","10.0","https://app.prolific.com/","en-US,en;q=0.9","6785052a054e7c96c09f69cd","686e379bc37a29ffa5cdc956","6877cc18143de63f7b3acf85","1","1","6785052a054e7c96c09f69cd","1","1","2025-07-16T16:38:55.072Z","","","","","","","","","","","StressQ","","50","","","","","","","","","","","","","","","","","","","","","","","","","","","","",""
"4183","","<div style=""width:500px;"">
  <p>What best describes how you currently feel?</p>
  </div>","0","html-slider-response","48","1637041","0.0-5.0-4.7","120","1","2025-07-16 16:11:39","1f75c3e559b7213887762d5229550c2b","41.150.224.7","Mozilla/5.0 (Windows NT 10.0; Win64; x64) AppleWebKit/537.36 (KHTML, like Gecko) Chrome/138.0.0.0 Safari/537.36","WebKit","Chrome","138.0.0.0","Windows","10.0","https://app.prolific.com/","en-US,en;q=0.9","6785052a054e7c96c09f69cd","686e379bc37a29ffa5cdc956","6877cc18143de63f7b3acf85","1","1","6785052a054e7c96c09f69cd","1","1","2025-07-16T16:38:59.257Z","","","","","","","","","","","MotivationQ","","50","","","","","","","","","","","","","","","","","","","","","","","","","","","","",""
"","","","","ctl-task-cpt","49","1670533","0.0-5.0-0.8","120","1","2025-07-16 16:11:39","1f75c3e559b7213887762d5229550c2b","41.150.224.7","Mozilla/5.0 (Windows NT 10.0; Win64; x64) AppleWebKit/537.36 (KHTML, like Gecko) Chrome/138.0.0.0 Safari/537.36","WebKit","Chrome","138.0.0.0","Windows","10.0","https://app.prolific.com/","en-US,en;q=0.9","6785052a054e7c96c09f69cd","686e379bc37a29ffa5cdc956","6877cc18143de63f7b3acf85","1","1","6785052a054e7c96c09f69cd","1","1","2025-07-16T16:39:32.750Z","","","","","","","","","","","","","","win-only","2","g1:SE,g2:NW","0.2","9","0","1641346.9","3278.6","8280.5","30461","1","4","8","6","1","-1","-1","0","0","0","1798.9","3000","-2100","[""down"",""right""]","{""num_key_presses"":7,""num_perfect"":2,""num_errors"":0,""num_randdir"":5,""num_randdir_good_moves"":2,""num_whilered"":0,""num_whileblue"":0,""num_blue"":0,""num_good_moves"":4}","[418.07142857142856,416.1808016640799,0.2,418.07142857142856,416.1808016640799,102.5,418.07142857142856,416.1808016640799,207.9,418.07142857142856,416.1808016640799,309.2,389.57142857142856,458.1808016640799,412.3,352.07142857142856,495.6808016640799,517.9,335.57142857142856,509.1808016640799,622.6,335.57142857142856,512.1808016640799,722.8,355.07142857142856,507.6808016640799,828.5,358.07142857142856,500.1808016640799,931.8,358.07142857142856,500.1808016640799,1032.5,358.07142857142856,500.1808016640799,1149.2,524.5714285714286,570.6808016640799,1251.8,527.5714285714286,572.1808016640799,1352.3,584.5714285714286,623.1808016640799,1452.6,746.5714285714286,747.6808016640799,1559.8,754.0714285714286,749.1808016640799,1662.5,755.5714285714286,747.6808016640799,1763.6,755.5714285714286,746.1808016640799,1864.2,755.5714285714286,746.1808016640799,1968.1,659.5714285714286,720.6808016640799,2072.7,311.57142857142856,650.1808016640799,2175.9,-15.42857142857143,600.6808016640799,2277.1,-139.92857142857144,582.6808016640799,2380.2,-139.92857142857144,582.6808016640799,2481.9,-139.92857142857144,582.6808016640799,2582.2,-120.42857142857143,539.1808016640799,2689,-120.42857142857143,536.1808016640799,2799.2,-120.42857142857143,536.1808016640799,2905.9,-120.42857142857143,536.1808016640799,3006.5,-120.42857142857143,536.1808016640799,3118.9,-120.42857142857143,536.1808016640799,3221.7,-120.42857142857143,536.1808016640799,3340.3,-120.42857142857143,536.1808016640799,3442.2,-120.42857142857143,536.1808016640799,3542.2,-120.42857142857143,536.1808016640799,3642.4,-120.42857142857143,536.1808016640799,3759,-120.42857142857143,536.1808016640799,3873.7,-120.42857142857143,536.1808016640799,3974,-120.42857142857143,536.1808016640799,4076.7,-120.42857142857143,536.1808016640799,4179.5,-120.42857142857143,536.1808016640799,4282.3,-120.42857142857143,536.1808016640799,4382.5,-120.42857142857143,536.1808016640799,4498.1,-120.42857142857143,536.1808016640799,4599.6,-120.42857142857143,536.1808016640799,4702.6,-120.42857142857143,536.1808016640799,4803.2,-120.42857142857143,536.1808016640799,4908.7]","[1598.4,1598.4,1000,0,598.4,""smooth"",""down"",""down"",""good_move"",4424.8,2826,2382.9,1598.8,443.1,""oops"",""down"",""left"",""bad_move"",7918.2,3493.3,2936.2,4424.9,557.1,""oops"",""down"",""up"",""bad_move"",11096.8,3178.1,2743.7,7918.7,434.4,""smooth"",""right"",""right"",""good_move"",13734.7,2637.8,2192.2,11097,445.6,""oops"",""right"",""left"",""bad_move"",16864,3128.9,2352.3,13735.1,776.6,""oops"",""right"",""right"",""good_move"",19632.2,2768.1,2322.5,16864.1,445.6,""oops"",""right"",""right"",""good_move""]","",""
"254069","","<div style=""width:500px;"">
  <p>What determined the result of this run?</p>
  </div>","0","html-slider-response","50","1924603","0.0-5.0-1.8","120","1","2025-07-16 16:11:39","1f75c3e559b7213887762d5229550c2b","41.150.224.7","Mozilla/5.0 (Windows NT 10.0; Win64; x64) AppleWebKit/537.36 (KHTML, like Gecko) Chrome/138.0.0.0 Safari/537.36","WebKit","Chrome","138.0.0.0","Windows","10.0","https://app.prolific.com/","en-US,en;q=0.9","6785052a054e7c96c09f69cd","686e379bc37a29ffa5cdc956","6877cc18143de63f7b3acf85","1","1","6785052a054e7c96c09f69cd","1","1","2025-07-16T16:43:46.820Z","","","","","","","","","","","AttribQ","","50","","","","","","","","","","","","","","","","","","","","","","","","","","","","",""
"2927","","<div style=""width:500px;"">
  <p>How much control did you have over the ball?</p>
  </div>","0","html-slider-response","51","1927532","0.0-5.0-2.8","120","1","2025-07-16 16:11:39","1f75c3e559b7213887762d5229550c2b","41.150.224.7","Mozilla/5.0 (Windows NT 10.0; Win64; x64) AppleWebKit/537.36 (KHTML, like Gecko) Chrome/138.0.0.0 Safari/537.36","WebKit","Chrome","138.0.0.0","Windows","10.0","https://app.prolific.com/","en-US,en;q=0.9","6785052a054e7c96c09f69cd","686e379bc37a29ffa5cdc956","6877cc18143de63f7b3acf85","1","1","6785052a054e7c96c09f69cd","1","1","2025-07-16T16:43:49.748Z","","","","","","","","","","","ControlQ","","50","","","","","","","","","","","","","","","","","","","","","","","","","","","","",""
"7465","","<div style=""width:500px;"">
  <p>How would you describe your current emotional state?</p>
  </div>","100","html-slider-response","52","1934998","0.0-5.0-3.8","120","1","2025-07-16 16:11:39","1f75c3e559b7213887762d5229550c2b","41.150.224.7","Mozilla/5.0 (Windows NT 10.0; Win64; x64) AppleWebKit/537.36 (KHTML, like Gecko) Chrome/138.0.0.0 Safari/537.36","WebKit","Chrome","138.0.0.0","Windows","10.0","https://app.prolific.com/","en-US,en;q=0.9","6785052a054e7c96c09f69cd","686e379bc37a29ffa5cdc956","6877cc18143de63f7b3acf85","1","1","6785052a054e7c96c09f69cd","1","1","2025-07-16T16:43:57.214Z","","","","","","","","","","","StressQ","","50","","","","","","","","","","","","","","","","","","","","","","","","","","","","",""
"4403","","<div style=""width:500px;"">
  <p>What best describes how you currently feel?</p>
  </div>","0","html-slider-response","53","1939402","0.0-5.0-4.8","120","1","2025-07-16 16:11:39","1f75c3e559b7213887762d5229550c2b","41.150.224.7","Mozilla/5.0 (Windows NT 10.0; Win64; x64) AppleWebKit/537.36 (KHTML, like Gecko) Chrome/138.0.0.0 Safari/537.36","WebKit","Chrome","138.0.0.0","Windows","10.0","https://app.prolific.com/","en-US,en;q=0.9","6785052a054e7c96c09f69cd","686e379bc37a29ffa5cdc956","6877cc18143de63f7b3acf85","1","1","6785052a054e7c96c09f69cd","1","1","2025-07-16T16:44:01.618Z","","","","","","","","","","","MotivationQ","","50","","","","","","","","","","","","","","","","","","","","","","","","","","","","",""
"","","","","ctl-task-cpt","54","1980025","0.0-5.0-0.9","120","1","2025-07-16 16:11:39","1f75c3e559b7213887762d5229550c2b","41.150.224.7","Mozilla/5.0 (Windows NT 10.0; Win64; x64) AppleWebKit/537.36 (KHTML, like Gecko) Chrome/138.0.0.0 Safari/537.36","WebKit","Chrome","138.0.0.0","Windows","10.0","https://app.prolific.com/","en-US,en;q=0.9","6785052a054e7c96c09f69cd","686e379bc37a29ffa5cdc956","6877cc18143de63f7b3acf85","1","1","6785052a054e7c96c09f69cd","1","1","2025-07-16T16:44:42.241Z","","","","","","","","","","","","","","win-only","3","g1:SW,g2:NE","0.4","10","0","1943707.5","5064.1","10070.7","37606.4","1","4","4","6","1","1","1","1","0","0.007575757575757576","1648.3","3000","690","[""down"",""left""]","{""num_key_presses"":6,""num_perfect"":2,""num_errors"":0,""num_randdir"":4,""num_randdir_good_moves"":3,""num_whilered"":0,""num_whileblue"":0,""num_blue"":3,""num_good_moves"":5}","[427.07142857142856,419.1808016640799,0.1,427.07142857142856,419.1808016640799,102.5,427.07142857142856,419.1808016640799,204.1,427.07142857142856,419.1808016640799,307.2,427.07142857142856,419.1808016640799,410.7,427.07142857142856,419.1808016640799,515.5,403.07142857142856,444.6808016640799,617.3,403.07142857142856,444.6808016640799,718.8,403.07142857142856,444.6808016640799,821.6,287.57142857142856,575.1808016640799,925.2,241.07142857142856,606.6808016640799,1030.6,190.07142857142856,653.1808016640799,1135.7,173.57142857142856,734.1808016640799,1237.7,163.07142857142856,746.1808016640799,1341.9,119.57142857142857,758.1808016640799,1445.6,65.57142857142857,770.1808016640799,1549.3,59.57142857142857,773.1808016640799,1658.5,59.57142857142857,773.1808016640799,1760.6,59.57142857142857,773.1808016640799,1865.4,62.57142857142857,759.6808016640799,1968.8,62.57142857142857,759.6808016640799,2073.3,62.57142857142857,759.6808016640799,2180.3,-150.42857142857144,686.1808016640799,2286.8,-168.42857142857144,660.6808016640799,2387.2,-163.92857142857144,641.1808016640799,2489.1,-159.42857142857144,635.1808016640799,2602.4,-156.42857142857144,629.1808016640799,2704.4,-156.42857142857144,629.1808016640799,2806.2,-156.42857142857144,629.1808016640799,2911.6,-156.42857142857144,629.1808016640799,3012.6,-156.42857142857144,629.1808016640799,3116.4,-156.42857142857144,629.1808016640799,3220.5,-156.42857142857144,629.1808016640799,3324.2,-156.42857142857144,629.1808016640799,3425.6,-156.42857142857144,629.1808016640799,3525.8,-156.42857142857144,629.1808016640799,3628.5,-156.42857142857144,629.1808016640799,3730.8,-156.42857142857144,629.1808016640799,3830.9,-156.42857142857144,629.1808016640799,3936.6,-156.42857142857144,629.1808016640799,4040.3,-156.42857142857144,629.1808016640799,4140.9,-156.42857142857144,629.1808016640799,4243.2,-127.92857142857143,569.1808016640799,4345.8,85.07142857142857,494.1808016640799,4446.1,89.57142857142857,486.6808016640799,4548,89.57142857142857,486.6808016640799,4648.1,74.57142857142857,548.1808016640799,4751.8,43.07142857142857,612.6808016640799,4852.3,-36.42857142857143,620.1808016640799,4955.3]","[1602.6,1602.6,1000,0,602.6,""oops"",""left"",""up"",""bad_move"",8511.9,6909,2430.3,5617.9,463.7,""oops"",""left"",""down"",""good_move"",12584.8,4072.7,2995.3,8512.1,1077.4,""oops"",""left"",""left"",""good_move"",17934.6,5349.5,1601.4,15813.4,519.8,""smooth"",""left"",""left"",""good_move"",24639.5,6704.7,3007.9,21064.7,566.9,""oops"",""down"",""down"",""good_move"",27246.7,2607.1,2061.4,24639.6,545.7,""smooth"",""down"",""down"",""good_move""]","",""
"11205","","<div style=""width:500px;"">
  <p>What determined the result of this run?</p>
  </div>","100","html-slider-response","55","1991232","0.0-5.0-1.9","120","1","2025-07-16 16:11:39","1f75c3e559b7213887762d5229550c2b","41.150.224.7","Mozilla/5.0 (Windows NT 10.0; Win64; x64) AppleWebKit/537.36 (KHTML, like Gecko) Chrome/138.0.0.0 Safari/537.36","WebKit","Chrome","138.0.0.0","Windows","10.0","https://app.prolific.com/","en-US,en;q=0.9","6785052a054e7c96c09f69cd","686e379bc37a29ffa5cdc956","6877cc18143de63f7b3acf85","1","1","6785052a054e7c96c09f69cd","1","1","2025-07-16T16:44:53.448Z","","","","","","","","","","","AttribQ","","50","","","","","","","","","","","","","","","","","","","","","","","","","","","","",""
"15039","","<div style=""width:500px;"">
  <p>How much control did you have over the ball?</p>
  </div>","100","html-slider-response","56","2006271","0.0-5.0-2.9","120","1","2025-07-16 16:11:39","1f75c3e559b7213887762d5229550c2b","41.150.224.7","Mozilla/5.0 (Windows NT 10.0; Win64; x64) AppleWebKit/537.36 (KHTML, like Gecko) Chrome/138.0.0.0 Safari/537.36","WebKit","Chrome","138.0.0.0","Windows","10.0","https://app.prolific.com/","en-US,en;q=0.9","6785052a054e7c96c09f69cd","686e379bc37a29ffa5cdc956","6877cc18143de63f7b3acf85","1","1","6785052a054e7c96c09f69cd","1","1","2025-07-16T16:45:08.487Z","","","","","","","","","","","ControlQ","","50","","","","","","","","","","","","","","","","","","","","","","","","","","","","",""
"7749","","<div style=""width:500px;"">
  <p>How would you describe your current emotional state?</p>
  </div>","100","html-slider-response","57","2014022","0.0-5.0-3.9","120","1","2025-07-16 16:11:39","1f75c3e559b7213887762d5229550c2b","41.150.224.7","Mozilla/5.0 (Windows NT 10.0; Win64; x64) AppleWebKit/537.36 (KHTML, like Gecko) Chrome/138.0.0.0 Safari/537.36","WebKit","Chrome","138.0.0.0","Windows","10.0","https://app.prolific.com/","en-US,en;q=0.9","6785052a054e7c96c09f69cd","686e379bc37a29ffa5cdc956","6877cc18143de63f7b3acf85","1","1","6785052a054e7c96c09f69cd","1","1","2025-07-16T16:45:16.238Z","","","","","","","","","","","StressQ","","50","","","","","","","","","","","","","","","","","","","","","","","","","","","","",""
"6792","","<div style=""width:500px;"">
  <p>What best describes how you currently feel?</p>
  </div>","0","html-slider-response","58","2020815","0.0-5.0-4.9","120","1","2025-07-16 16:11:39","1f75c3e559b7213887762d5229550c2b","41.150.224.7","Mozilla/5.0 (Windows NT 10.0; Win64; x64) AppleWebKit/537.36 (KHTML, like Gecko) Chrome/138.0.0.0 Safari/537.36","WebKit","Chrome","138.0.0.0","Windows","10.0","https://app.prolific.com/","en-US,en;q=0.9","6785052a054e7c96c09f69cd","686e379bc37a29ffa5cdc956","6877cc18143de63f7b3acf85","1","1","6785052a054e7c96c09f69cd","1","1","2025-07-16T16:45:23.031Z","","","","","","","","","","","MotivationQ","","50","","","","","","","","","","","","","","","","","","","","","","","","","","","","",""
"","","","","ctl-task-cpt","59","2048015","0.0-5.0-0.10","120","1","2025-07-16 16:11:39","1f75c3e559b7213887762d5229550c2b","41.150.224.7","Mozilla/5.0 (Windows NT 10.0; Win64; x64) AppleWebKit/537.36 (KHTML, like Gecko) Chrome/138.0.0.0 Safari/537.36","WebKit","Chrome","138.0.0.0","Windows","10.0","https://app.prolific.com/","en-US,en;q=0.9","6785052a054e7c96c09f69cd","686e379bc37a29ffa5cdc956","6877cc18143de63f7b3acf85","1","1","6785052a054e7c96c09f69cd","1","1","2025-07-16T16:45:50.231Z","","","","","","","","","","","","","","win-only","1","g1:NE,g2:SW","0.5","11","0","2025120.7","1655","6657.9","24186.3","1","4","8","6","1","-1","-1","0","1","0","5002.9","3000","-1710","[""up"",""right""]","{""num_key_presses"":3,""num_perfect"":3,""num_errors"":0,""num_randdir"":0,""num_randdir_good_moves"":0,""num_whilered"":0,""num_whileblue"":0,""num_blue"":1,""num_good_moves"":3}","[409.07142857142856,426.6808016640799,0.1,407.57142857142856,425.1808016640799,111.8,407.57142857142856,425.1808016640799,214.2,407.57142857142856,425.1808016640799,315.9,407.57142857142856,425.1808016640799,417.8,407.57142857142856,425.1808016640799,527.1,407.57142857142856,425.1808016640799,631.6,407.57142857142856,425.1808016640799,733.4,407.57142857142856,425.1808016640799,835.1,407.57142857142856,425.1808016640799,935.8,407.57142857142856,425.1808016640799,1039.7,404.57142857142856,422.1808016640799,1144.6,404.57142857142856,422.1808016640799,1248.5,404.57142857142856,422.1808016640799,1353.9,404.57142857142856,422.1808016640799,1460.7,404.57142857142856,422.1808016640799,1564.7,404.57142857142856,422.1808016640799,1666.2,404.57142857142856,422.1808016640799,1767,404.57142857142856,422.1808016640799,1867.4,404.57142857142856,422.1808016640799,1968.9,404.57142857142856,422.1808016640799,2069.1,404.57142857142856,422.1808016640799,2177.2,404.57142857142856,422.1808016640799,2280.8,404.57142857142856,422.1808016640799,2382.1,404.57142857142856,422.1808016640799,2487.8,404.57142857142856,422.1808016640799,2595,404.57142857142856,422.1808016640799,2700.3,404.57142857142856,422.1808016640799,2803.5,404.57142857142856,422.1808016640799,2911.2,404.57142857142856,422.1808016640799,3012.3,404.57142857142856,422.1808016640799,3119.4,403.07142857142856,422.1808016640799,3221.4,403.07142857142856,422.1808016640799,3331.9,401.57142857142856,422.1808016640799,3434.7,401.57142857142856,422.1808016640799,3545.2,401.57142857142856,422.1808016640799,3652.4,401.57142857142856,422.1808016640799,3761.7,401.57142857142856,422.1808016640799,3863.7,401.57142857142856,422.1808016640799,3963.7,401.57142857142856,422.1808016640799,4066.8,401.57142857142856,422.1808016640799,4179.7,400.07142857142856,422.1808016640799,4280.2,400.07142857142856,425.1808016640799,4383.7,400.07142857142856,425.1808016640799,4484.2,400.07142857142856,425.1808016640799,4592,400.07142857142856,425.1808016640799,4694.5,400.07142857142856,426.6808016640799,4796.8,400.07142857142856,428.1808016640799,4900.2]","[2342.2,2342.2,1000,0,1342.2,""smooth"",""up"",""up"",""good_move"",10346.7,8004.2,2751.4,6845.5,749.8,""smooth"",""up"",""up"",""good_move"",14073.3,3726.3,2070.9,10347,1655.4,""smooth"",""right"",""right"",""good_move""]","",""
"10167","","<div style=""width:500px;"">
  <p>What determined the result of this run?</p>
  </div>","100","html-slider-response","60","2058183","0.0-5.0-1.10","120","1","2025-07-16 16:11:39","1f75c3e559b7213887762d5229550c2b","41.150.224.7","Mozilla/5.0 (Windows NT 10.0; Win64; x64) AppleWebKit/537.36 (KHTML, like Gecko) Chrome/138.0.0.0 Safari/537.36","WebKit","Chrome","138.0.0.0","Windows","10.0","https://app.prolific.com/","en-US,en;q=0.9","6785052a054e7c96c09f69cd","686e379bc37a29ffa5cdc956","6877cc18143de63f7b3acf85","1","1","6785052a054e7c96c09f69cd","1","1","2025-07-16T16:46:00.399Z","","","","","","","","","","","AttribQ","","50","","","","","","","","","","","","","","","","","","","","","","","","","","","","",""
"8781","","<div style=""width:500px;"">
  <p>How much control did you have over the ball?</p>
  </div>","50","html-slider-response","61","2066965","0.0-5.0-2.10","120","1","2025-07-16 16:11:39","1f75c3e559b7213887762d5229550c2b","41.150.224.7","Mozilla/5.0 (Windows NT 10.0; Win64; x64) AppleWebKit/537.36 (KHTML, like Gecko) Chrome/138.0.0.0 Safari/537.36","WebKit","Chrome","138.0.0.0","Windows","10.0","https://app.prolific.com/","en-US,en;q=0.9","6785052a054e7c96c09f69cd","686e379bc37a29ffa5cdc956","6877cc18143de63f7b3acf85","1","1","6785052a054e7c96c09f69cd","1","1","2025-07-16T16:46:09.182Z","","","","","","","","","","","ControlQ","","50","","","","","","","","","","","","","","","","","","","","","","","","","","","","",""
"3477","","<div style=""width:500px;"">
  <p>How would you describe your current emotional state?</p>
  </div>","100","html-slider-response","62","2070443","0.0-5.0-3.10","120","1","2025-07-16 16:11:39","1f75c3e559b7213887762d5229550c2b","41.150.224.7","Mozilla/5.0 (Windows NT 10.0; Win64; x64) AppleWebKit/537.36 (KHTML, like Gecko) Chrome/138.0.0.0 Safari/537.36","WebKit","Chrome","138.0.0.0","Windows","10.0","https://app.prolific.com/","en-US,en;q=0.9","6785052a054e7c96c09f69cd","686e379bc37a29ffa5cdc956","6877cc18143de63f7b3acf85","1","1","6785052a054e7c96c09f69cd","1","1","2025-07-16T16:46:12.660Z","","","","","","","","","","","StressQ","","50","","","","","","","","","","","","","","","","","","","","","","","","","","","","",""
"9313","","<div style=""width:500px;"">
  <p>What best describes how you currently feel?</p>
  </div>","50","html-slider-response","63","2079758","0.0-5.0-4.10","120","1","2025-07-16 16:11:39","1f75c3e559b7213887762d5229550c2b","41.150.224.7","Mozilla/5.0 (Windows NT 10.0; Win64; x64) AppleWebKit/537.36 (KHTML, like Gecko) Chrome/138.0.0.0 Safari/537.36","WebKit","Chrome","138.0.0.0","Windows","10.0","https://app.prolific.com/","en-US,en;q=0.9","6785052a054e7c96c09f69cd","686e379bc37a29ffa5cdc956","6877cc18143de63f7b3acf85","1","1","6785052a054e7c96c09f69cd","1","1","2025-07-16T16:46:21.974Z","","","","","","","","","","","MotivationQ","","50","","","","","","","","","","","","","","","","","","","","","","","","","","","","",""
"","","","","ctl-task-cpt","64","2107037","0.0-5.0-0.11","120","1","2025-07-16 16:11:39","1f75c3e559b7213887762d5229550c2b","41.150.224.7","Mozilla/5.0 (Windows NT 10.0; Win64; x64) AppleWebKit/537.36 (KHTML, like Gecko) Chrome/138.0.0.0 Safari/537.36","WebKit","Chrome","138.0.0.0","Windows","10.0","https://app.prolific.com/","en-US,en;q=0.9","6785052a054e7c96c09f69cd","686e379bc37a29ffa5cdc956","6877cc18143de63f7b3acf85","1","1","6785052a054e7c96c09f69cd","1","1","2025-07-16T16:46:49.253Z","","","","","","","","","","","","","","win-only","3","g1:SW,g2:NE","0.6","12","0","2084063.4","2498.1","7505.2","24253.2","1","4","4","6","1","-1","-1","0","0","0","2370.6","3000","-1510","[""down"",""left""]","{""num_key_presses"":3,""num_perfect"":3,""num_errors"":0,""num_randdir"":0,""num_randdir_good_moves"":0,""num_whilered"":0,""num_whileblue"":0,""num_blue"":1,""num_good_moves"":3}","[415.07142857142856,413.1808016640799,0.3,415.07142857142856,413.1808016640799,102,415.07142857142856,413.1808016640799,207.5,415.07142857142856,413.1808016640799,316.1,415.07142857142856,413.1808016640799,419.1,413.57142857142856,411.6808016640799,525.2,412.07142857142856,414.6808016640799,636.9,410.57142857142856,476.1808016640799,742.5,407.57142857142856,522.6808016640799,843.2,410.57142857142856,527.1808016640799,953.6,410.57142857142856,527.1808016640799,1060.3,410.57142857142856,527.1808016640799,1162.3,410.57142857142856,527.1808016640799,1262.5,410.57142857142856,527.1808016640799,1366.1,410.57142857142856,527.1808016640799,1467.2,404.57142857142856,545.1808016640799,1570.5,349.07142857142856,635.1808016640799,1675.6,116.57142857142857,797.1808016640799,1786.6,73.07142857142857,831.6808016640799,1889.8,56.57142857142857,819.6808016640799,2001.5,59.57142857142857,809.1808016640799,2103.2,62.57142857142857,806.1808016640799,2213.6,62.57142857142857,803.1808016640799,2321,64.07142857142857,803.1808016640799,2421.9,64.07142857142857,803.1808016640799,2523,64.07142857142857,803.1808016640799,2624.6,64.07142857142857,803.1808016640799,2726.6,65.57142857142857,803.1808016640799,2833.6,65.57142857142857,803.1808016640799,2942,65.57142857142857,803.1808016640799,3044.3,67.07142857142857,800.1808016640799,3149.9,67.07142857142857,800.1808016640799,3253.5,67.07142857142857,800.1808016640799,3355.3,67.07142857142857,800.1808016640799,3455.4,67.07142857142857,800.1808016640799,3566.2,67.07142857142857,800.1808016640799,3669.3,67.07142857142857,800.1808016640799,3771.7,67.07142857142857,800.1808016640799,3875.4,67.07142857142857,800.1808016640799,3989.7,67.07142857142857,800.1808016640799,4098.5,67.07142857142857,800.1808016640799,4201.5,67.07142857142857,800.1808016640799,4307.4,67.07142857142857,800.1808016640799,4412.2,77.57142857142857,803.1808016640799,4519.8,89.57142857142857,800.1808016640799,4622.7,89.57142857142857,800.1808016640799,4733.2,86.57142857142857,800.1808016640799,4838.9,85.07142857142857,801.6808016640799,4944.9]","[1800.7,1800.7,1000,0,800.7,""smooth"",""left"",""left"",""good_move"",5707.6,3906.6,2464.2,1801,1442.4,""smooth"",""down"",""down"",""good_move"",12785.8,7077.8,2771.8,9298.9,715.1,""smooth"",""down"",""down"",""good_move""]","",""
"21074","","<div style=""width:500px;"">
  <p>What determined the result of this run?</p>
  </div>","100","html-slider-response","65","2128113","0.0-5.0-1.11","120","1","2025-07-16 16:11:39","1f75c3e559b7213887762d5229550c2b","41.150.224.7","Mozilla/5.0 (Windows NT 10.0; Win64; x64) AppleWebKit/537.36 (KHTML, like Gecko) Chrome/138.0.0.0 Safari/537.36","WebKit","Chrome","138.0.0.0","Windows","10.0","https://app.prolific.com/","en-US,en;q=0.9","6785052a054e7c96c09f69cd","686e379bc37a29ffa5cdc956","6877cc18143de63f7b3acf85","1","1","6785052a054e7c96c09f69cd","1","1","2025-07-16T16:47:10.329Z","","","","","","","","","","","AttribQ","","50","","","","","","","","","","","","","","","","","","","","","","","","","","","","",""
"8112","","<div style=""width:500px;"">
  <p>How much control did you have over the ball?</p>
  </div>","100","html-slider-response","66","2136227","0.0-5.0-2.11","120","1","2025-07-16 16:11:39","1f75c3e559b7213887762d5229550c2b","41.150.224.7","Mozilla/5.0 (Windows NT 10.0; Win64; x64) AppleWebKit/537.36 (KHTML, like Gecko) Chrome/138.0.0.0 Safari/537.36","WebKit","Chrome","138.0.0.0","Windows","10.0","https://app.prolific.com/","en-US,en;q=0.9","6785052a054e7c96c09f69cd","686e379bc37a29ffa5cdc956","6877cc18143de63f7b3acf85","1","1","6785052a054e7c96c09f69cd","1","1","2025-07-16T16:47:18.443Z","","","","","","","","","","","ControlQ","","50","","","","","","","","","","","","","","","","","","","","","","","","","","","","",""
"25349","","<div style=""width:500px;"">
  <p>How would you describe your current emotional state?</p>
  </div>","50","html-slider-response","67","2161578","0.0-5.0-3.11","120","1","2025-07-16 16:11:39","1f75c3e559b7213887762d5229550c2b","41.150.224.7","Mozilla/5.0 (Windows NT 10.0; Win64; x64) AppleWebKit/537.36 (KHTML, like Gecko) Chrome/138.0.0.0 Safari/537.36","WebKit","Chrome","138.0.0.0","Windows","10.0","https://app.prolific.com/","en-US,en;q=0.9","6785052a054e7c96c09f69cd","686e379bc37a29ffa5cdc956","6877cc18143de63f7b3acf85","1","1","6785052a054e7c96c09f69cd","1","1","2025-07-16T16:47:43.794Z","","","","","","","","","","","StressQ","","50","","","","","","","","","","","","","","","","","","","","","","","","","","","","",""
"16372","","<div style=""width:500px;"">
  <p>What best describes how you currently feel?</p>
  </div>","50","html-slider-response","68","2177952","0.0-5.0-4.11","120","1","2025-07-16 16:11:39","1f75c3e559b7213887762d5229550c2b","41.150.224.7","Mozilla/5.0 (Windows NT 10.0; Win64; x64) AppleWebKit/537.36 (KHTML, like Gecko) Chrome/138.0.0.0 Safari/537.36","WebKit","Chrome","138.0.0.0","Windows","10.0","https://app.prolific.com/","en-US,en;q=0.9","6785052a054e7c96c09f69cd","686e379bc37a29ffa5cdc956","6877cc18143de63f7b3acf85","1","1","6785052a054e7c96c09f69cd","1","1","2025-07-16T16:48:00.169Z","","","","","","","","","","","MotivationQ","","50","","","","","","","","","","","","","","","","","","","","","","","","","","","","",""
"","","","","ctl-task-cpt","69","2214398","0.0-5.0-0.12","120","1","2025-07-16 16:11:39","1f75c3e559b7213887762d5229550c2b","41.150.224.7","Mozilla/5.0 (Windows NT 10.0; Win64; x64) AppleWebKit/537.36 (KHTML, like Gecko) Chrome/138.0.0.0 Safari/537.36","WebKit","Chrome","138.0.0.0","Windows","10.0","https://app.prolific.com/","en-US,en;q=0.9","6785052a054e7c96c09f69cd","686e379bc37a29ffa5cdc956","6877cc18143de63f7b3acf85","1","1","6785052a054e7c96c09f69cd","1","1","2025-07-16T16:48:36.614Z","","","","","","","","","","","","","","win-only","2","g1:SE,g2:NW","0.7","13","0","2182260.6","6215.6","11221","33414.3","1","4","4","6","2","4","4","4","0","0.030303030303030304","3119.7","3000","920","[""left"",""up""]","{""num_key_presses"":6,""num_perfect"":5,""num_errors"":0,""num_randdir"":1,""num_randdir_good_moves"":1,""num_whilered"":0,""num_whileblue"":0,""num_blue"":1,""num_good_moves"":6}","[406.07142857142856,416.1808016640799,0.4,406.07142857142856,416.1808016640799,114.1,406.07142857142856,416.1808016640799,217.9,406.07142857142856,416.1808016640799,344.8,406.07142857142856,416.1808016640799,460.5,406.07142857142856,416.1808016640799,573.3,398.57142857142856,425.1808016640799,679.2,398.57142857142856,425.1808016640799,781,398.57142857142856,425.1808016640799,881.4,398.57142857142856,425.1808016640799,985.2,398.57142857142856,425.1808016640799,1085.8,398.57142857142856,425.1808016640799,1191.1,398.57142857142856,425.1808016640799,1295.5,398.57142857142856,425.1808016640799,1401.4,428.57142857142856,441.6808016640799,1505.6,593.5714285714286,593.1808016640799,1608.2,679.0714285714286,683.1808016640799,1713.6,515.5714285714286,534.6808016640799,1817,242.57142857142856,185.18080166407992,1923.5,188.57142857142856,162.68080166407992,2030.9,181.07142857142856,146.18080166407992,2138.8,181.07142857142856,146.18080166407992,2245,181.07142857142856,146.18080166407992,2349.2,181.07142857142856,146.18080166407992,2453.5,181.07142857142856,146.18080166407992,2558.7,181.07142857142856,146.18080166407992,2658.9,155.57142857142856,131.18080166407992,2760.9,151.07142857142856,129.68080166407992,2865.1,128.57142857142856,108.68080166407994,2968.7,88.07142857142857,83.18080166407994,3069,86.57142857142857,83.18080166407994,3173.3,86.57142857142857,83.18080166407994,3277.8,86.57142857142857,83.18080166407994,3385.1,95.57142857142857,90.68080166407994,3487.2,101.57142857142857,95.18080166407994,3592.3,101.57142857142857,98.18080166407994,3694.4,107.57142857142857,104.18080166407994,3796.9,112.07142857142857,108.68080166407994,3897.9,113.57142857142857,110.18080166407994,4003.3,115.07142857142857,111.68080166407994,4111.9,115.07142857142857,111.68080166407994,4211.9,115.07142857142857,111.68080166407994,4320.3,119.57142857142857,122.18080166407994,4425.7,121.07142857142857,122.18080166407994,4531.5,121.07142857142857,122.18080166407994,4639.5,121.07142857142857,122.18080166407994,4742.3,121.07142857142857,122.18080166407994,4846.6,121.07142857142857,122.18080166407994,4956.9]","[1603.7,1603.7,1000,0,603.7,""smooth"",""up"",""up"",""good_move"",5465,3861.1,3255,1604,606,""smooth"",""up"",""up"",""good_move"",9376.4,3911.2,2523.8,5465.2,1387.4,""oops"",""up"",""left"",""good_move"",15946.6,6569.9,2855.6,12599.5,491.5,""smooth"",""left"",""left"",""good_move"",19406.6,3459.8,3015.7,15946.8,444.1,""smooth"",""left"",""left"",""good_move"",22024.7,2618,2221.3,19406.7,396.7,""smooth"",""up"",""up"",""good_move""]","",""
"10731","","<div style=""width:500px;"">
  <p>What determined the result of this run?</p>
  </div>","100","html-slider-response","70","2225131","0.0-5.0-1.12","120","1","2025-07-16 16:11:39","1f75c3e559b7213887762d5229550c2b","41.150.224.7","Mozilla/5.0 (Windows NT 10.0; Win64; x64) AppleWebKit/537.36 (KHTML, like Gecko) Chrome/138.0.0.0 Safari/537.36","WebKit","Chrome","138.0.0.0","Windows","10.0","https://app.prolific.com/","en-US,en;q=0.9","6785052a054e7c96c09f69cd","686e379bc37a29ffa5cdc956","6877cc18143de63f7b3acf85","1","1","6785052a054e7c96c09f69cd","1","1","2025-07-16T16:48:47.347Z","","","","","","","","","","","AttribQ","","50","","","","","","","","","","","","","","","","","","","","","","","","","","","","",""
"5340","","<div style=""width:500px;"">
  <p>How much control did you have over the ball?</p>
  </div>","100","html-slider-response","71","2230474","0.0-5.0-2.12","120","1","2025-07-16 16:11:39","1f75c3e559b7213887762d5229550c2b","41.150.224.7","Mozilla/5.0 (Windows NT 10.0; Win64; x64) AppleWebKit/537.36 (KHTML, like Gecko) Chrome/138.0.0.0 Safari/537.36","WebKit","Chrome","138.0.0.0","Windows","10.0","https://app.prolific.com/","en-US,en;q=0.9","6785052a054e7c96c09f69cd","686e379bc37a29ffa5cdc956","6877cc18143de63f7b3acf85","1","1","6785052a054e7c96c09f69cd","1","1","2025-07-16T16:48:52.690Z","","","","","","","","","","","ControlQ","","50","","","","","","","","","","","","","","","","","","","","","","","","","","","","",""
"5142","","<div style=""width:500px;"">
  <p>How would you describe your current emotional state?</p>
  </div>","0","html-slider-response","72","2235619","0.0-5.0-3.12","120","1","2025-07-16 16:11:39","1f75c3e559b7213887762d5229550c2b","41.150.224.7","Mozilla/5.0 (Windows NT 10.0; Win64; x64) AppleWebKit/537.36 (KHTML, like Gecko) Chrome/138.0.0.0 Safari/537.36","WebKit","Chrome","138.0.0.0","Windows","10.0","https://app.prolific.com/","en-US,en;q=0.9","6785052a054e7c96c09f69cd","686e379bc37a29ffa5cdc956","6877cc18143de63f7b3acf85","1","1","6785052a054e7c96c09f69cd","1","1","2025-07-16T16:48:57.835Z","","","","","","","","","","","StressQ","","50","","","","","","","","","","","","","","","","","","","","","","","","","","","","",""
"5308","","<div style=""width:500px;"">
  <p>What best describes how you currently feel?</p>
  </div>","100","html-slider-response","73","2240929","0.0-5.0-4.12","120","1","2025-07-16 16:11:39","1f75c3e559b7213887762d5229550c2b","41.150.224.7","Mozilla/5.0 (Windows NT 10.0; Win64; x64) AppleWebKit/537.36 (KHTML, like Gecko) Chrome/138.0.0.0 Safari/537.36","WebKit","Chrome","138.0.0.0","Windows","10.0","https://app.prolific.com/","en-US,en;q=0.9","6785052a054e7c96c09f69cd","686e379bc37a29ffa5cdc956","6877cc18143de63f7b3acf85","1","1","6785052a054e7c96c09f69cd","1","1","2025-07-16T16:49:03.145Z","","","","","","","","","","","MotivationQ","","50","","","","","","","","","","","","","","","","","","","","","","","","","","","","",""
"","","","","ctl-task-cpt","74","2297890","0.0-5.0-0.13","120","1","2025-07-16 16:11:39","1f75c3e559b7213887762d5229550c2b","41.150.224.7","Mozilla/5.0 (Windows NT 10.0; Win64; x64) AppleWebKit/537.36 (KHTML, like Gecko) Chrome/138.0.0.0 Safari/537.36","WebKit","Chrome","138.0.0.0","Windows","10.0","https://app.prolific.com/","en-US,en;q=0.9","6785052a054e7c96c09f69cd","686e379bc37a29ffa5cdc956","6877cc18143de63f7b3acf85","1","1","6785052a054e7c96c09f69cd","1","1","2025-07-16T16:50:00.106Z","","","","","","","","","","","","","","win-only","3","g1:SW,g2:NE","0.8","14","0","2245235.4","2774.7","7795.8","53929.2","1","4","8","6","2","8","8","12","4","0.09090909090909091","1606.3","3000","1610","[""up"",""right""]","{""num_key_presses"":8,""num_perfect"":6,""num_errors"":0,""num_randdir"":2,""num_randdir_good_moves"":1,""num_whilered"":0,""num_whileblue"":0,""num_blue"":4,""num_good_moves"":7}","[422.57142857142856,407.1808016640799,0.2,422.57142857142856,407.1808016640799,116.8,422.57142857142856,407.1808016640799,219.2,422.57142857142856,407.1808016640799,344.1,422.57142857142856,407.1808016640799,474.3,422.57142857142856,407.1808016640799,594.8,422.57142857142856,407.1808016640799,724.5,422.57142857142856,407.1808016640799,829.9,650.5714285714286,299.1808016640799,937.8,836.5714285714286,122.18080166407994,1051.6,893.5714285714286,45.68080166407994,1162.7,893.5714285714286,20.180801664079937,1273,787.0714285714286,36.68080166407994,1386.2,769.0714285714286,86.18080166407994,1501.4,767.5714285714286,86.18080166407994,1611.2,767.5714285714286,87.68080166407994,1727.9,767.5714285714286,87.68080166407994,1843.4,767.5714285714286,87.68080166407994,1953,767.5714285714286,87.68080166407994,2061.1,767.5714285714286,87.68080166407994,2167.5,767.5714285714286,89.18080166407994,2269.9,767.5714285714286,89.18080166407994,2370.4,767.5714285714286,89.18080166407994,2504.1,770.5714285714286,89.18080166407994,2611.7,772.0714285714286,89.18080166407994,2719.8,772.0714285714286,89.18080166407994,2823.3,772.0714285714286,89.18080166407994,2931.2,772.0714285714286,89.18080166407994,3045.2,772.0714285714286,89.18080166407994,3152.8,773.5714285714286,89.18080166407994,3263.9,773.5714285714286,89.18080166407994,3378.8,773.5714285714286,89.18080166407994,3489.3,773.5714285714286,89.18080166407994,3602.8,773.5714285714286,89.18080166407994,3709.4,773.5714285714286,89.18080166407994,3841.4,773.5714285714286,89.18080166407994,3941.6,773.5714285714286,89.18080166407994,4041.9,773.5714285714286,89.18080166407994,4143.8,773.5714285714286,89.18080166407994,4244.6,773.5714285714286,89.18080166407994,4376.2,773.5714285714286,89.18080166407994,4504.4,773.5714285714286,89.18080166407994,4633.6,773.5714285714286,89.18080166407994,4733.8,773.5714285714286,89.18080166407994,4860.8,773.5714285714286,89.18080166407994,4988.4]","[2096.8,2096.8,1000,0,1096.8,""smooth"",""up"",""up"",""good_move"",8920.1,6823.1,2686.9,2097,4136.2,""smooth"",""right"",""right"",""good_move"",12133.5,3213.2,2102.2,8920.3,1111,""oops"",""right"",""up"",""good_move"",18446.3,6312.6,2294.8,12133.7,4017.8,""smooth"",""right"",""right"",""good_move"",21985.1,3538.8,2977.4,18446.4,561.4,""smooth"",""right"",""right"",""good_move"",27727.8,5742.5,1805.6,25456,466.2,""oops"",""up"",""down"",""bad_move"",42802.2,15074.1,3049.6,39026,726.6,""smooth"",""up"",""up"",""good_move"",45828.4,3025.9,2341.4,42802.5,684.5,""smooth"",""up"",""up"",""good_move""]","",""
"11494","","<div style=""width:500px;"">
  <p>What determined the result of this run?</p>
  </div>","0","html-slider-response","75","2309387","0.0-5.0-1.13","120","1","2025-07-16 16:11:39","1f75c3e559b7213887762d5229550c2b","41.150.224.7","Mozilla/5.0 (Windows NT 10.0; Win64; x64) AppleWebKit/537.36 (KHTML, like Gecko) Chrome/138.0.0.0 Safari/537.36","WebKit","Chrome","138.0.0.0","Windows","10.0","https://app.prolific.com/","en-US,en;q=0.9","6785052a054e7c96c09f69cd","686e379bc37a29ffa5cdc956","6877cc18143de63f7b3acf85","1","1","6785052a054e7c96c09f69cd","1","1","2025-07-16T16:50:11.603Z","","","","","","","","","","","AttribQ","","50","","","","","","","","","","","","","","","","","","","","","","","","","","","","",""
"8168","","<div style=""width:500px;"">
  <p>How much control did you have over the ball?</p>
  </div>","46","html-slider-response","76","2317557","0.0-5.0-2.13","120","1","2025-07-16 16:11:39","1f75c3e559b7213887762d5229550c2b","41.150.224.7","Mozilla/5.0 (Windows NT 10.0; Win64; x64) AppleWebKit/537.36 (KHTML, like Gecko) Chrome/138.0.0.0 Safari/537.36","WebKit","Chrome","138.0.0.0","Windows","10.0","https://app.prolific.com/","en-US,en;q=0.9","6785052a054e7c96c09f69cd","686e379bc37a29ffa5cdc956","6877cc18143de63f7b3acf85","1","1","6785052a054e7c96c09f69cd","1","1","2025-07-16T16:50:19.773Z","","","","","","","","","","","ControlQ","","50","","","","","","","","","","","","","","","","","","","","","","","","","","","","",""
"4822","","<div style=""width:500px;"">
  <p>How would you describe your current emotional state?</p>
  </div>","0","html-slider-response","77","2322380","0.0-5.0-3.13","120","1","2025-07-16 16:11:39","1f75c3e559b7213887762d5229550c2b","41.150.224.7","Mozilla/5.0 (Windows NT 10.0; Win64; x64) AppleWebKit/537.36 (KHTML, like Gecko) Chrome/138.0.0.0 Safari/537.36","WebKit","Chrome","138.0.0.0","Windows","10.0","https://app.prolific.com/","en-US,en;q=0.9","6785052a054e7c96c09f69cd","686e379bc37a29ffa5cdc956","6877cc18143de63f7b3acf85","1","1","6785052a054e7c96c09f69cd","1","1","2025-07-16T16:50:24.597Z","","","","","","","","","","","StressQ","","50","","","","","","","","","","","","","","","","","","","","","","","","","","","","",""
"2692","","<div style=""width:500px;"">
  <p>What best describes how you currently feel?</p>
  </div>","100","html-slider-response","78","2325074","0.0-5.0-4.13","120","1","2025-07-16 16:11:39","1f75c3e559b7213887762d5229550c2b","41.150.224.7","Mozilla/5.0 (Windows NT 10.0; Win64; x64) AppleWebKit/537.36 (KHTML, like Gecko) Chrome/138.0.0.0 Safari/537.36","WebKit","Chrome","138.0.0.0","Windows","10.0","https://app.prolific.com/","en-US,en;q=0.9","6785052a054e7c96c09f69cd","686e379bc37a29ffa5cdc956","6877cc18143de63f7b3acf85","1","1","6785052a054e7c96c09f69cd","1","1","2025-07-16T16:50:27.290Z","","","","","","","","","","","MotivationQ","","50","","","","","","","","","","","","","","","","","","","","","","","","","","","","",""
