"rt","response_timestamp","stimulus","response","trial_type","trial_index","time_elapsed","internal_node_id","run_id","condition","recorded_at","source_code_version","ip","user_agent","device","browser","browser_version","platform","platform_version","referer","accept_language","PROLIFIC_PID","STUDY_ID","SESSION_ID","WEEK","BATCH","prolific_id","week","batch","realtime","success","responses","item_order","radio_event_ids","radio_event_times","key_event_times","mouse_event_times","straightlining","zigzagging","honeypot","eventType","view_history","slider_start","which_type","canvas_config","goals_layout","control_level","trial_number","tutorial_trial_number","trial_start_time","phase1_start_time","phase2_start_time","phase3_start_time","goal_1_value","goal_1_distance","goal_2_value","goal_2_distance","goal_selected","outcome","outcome_total","participant_final_score","participant_initial_score","participant_final_score_prop","goal_choice_rt","allocated_time","allocated_time_remaining","goal_direction","counts","mouse_movements","key_presses","question_order","question_id"
"12337","1753263229634","<p style='font-size:40px;line-height:1.25'><strong>Welcome to the experiment!</strong></p><p style='font-size:1.1em;line-height:1.25'>Thank you for participanting in our experiment again! You will be asked to play the Dysfunctional Ball Game again. We will briefly recap the rules before we start.</p><p style='font-size:1.1em;line-height:1.25'>Press <strong>Next</strong> to continue.</p>","0","custom-html-button-response","0","12340","0.0-0.0","204","1","2025-07-23 09:33:37","1f75c3e559b7213887762d5229550c2b","156.155.58.187","Mozilla/5.0 (Windows NT 10.0; Win64; x64) AppleWebKit/537.36 (KHTML, like Gecko) Chrome/138.0.0.0 Safari/537.36","WebKit","Chrome","138.0.0.0","Windows","10.0","https://app.prolific.com/","en-US,en;q=0.9","60aad516e34718d318bfb44d","683db9eb0562dbf637994deb","6880ac668e5547734dfbe043","2","1","60aad516e34718d318bfb44d","2","1","2025-07-23T09:33:49.635Z","","","","","","","","","","","","","","","","","","","","","","","","","","","","","","","","","","","","","","","","","",""
"11150","","","","fullscreen","1","24504","0.0-1.0","204","1","2025-07-23 09:33:37","1f75c3e559b7213887762d5229550c2b","156.155.58.187","Mozilla/5.0 (Windows NT 10.0; Win64; x64) AppleWebKit/537.36 (KHTML, like Gecko) Chrome/138.0.0.0 Safari/537.36","WebKit","Chrome","138.0.0.0","Windows","10.0","https://app.prolific.com/","en-US,en;q=0.9","60aad516e34718d318bfb44d","683db9eb0562dbf637994deb","6880ac668e5547734dfbe043","2","1","60aad516e34718d318bfb44d","2","1","","true","","","","","","","","","","","","","","","","","","","","","","","","","","","","","","","","","","","","","","","","",""
"5504","1753263247304","<p style='font-size:1.1em;line-height:1.25'>In the following, we will ask you a few questions relating to your feelings in the last 24 hours.<br></p><p style='font-size:1.1em;line-height:1.25'>Press the <strong>Next</strong> button to continue.</p>","0","custom-html-button-response","2","30010","0.0-2.0-0.0","204","1","2025-07-23 09:33:37","1f75c3e559b7213887762d5229550c2b","156.155.58.187","Mozilla/5.0 (Windows NT 10.0; Win64; x64) AppleWebKit/537.36 (KHTML, like Gecko) Chrome/138.0.0.0 Safari/537.36","WebKit","Chrome","138.0.0.0","Windows","10.0","https://app.prolific.com/","en-US,en;q=0.9","60aad516e34718d318bfb44d","683db9eb0562dbf637994deb","6880ac668e5547734dfbe043","2","1","60aad516e34718d318bfb44d","2","1","2025-07-23T09:34:07.305Z","","","","","","","","","","","","","","","","","","","","","","","","","","","","","","","","","","","","","","","","","",""
"101371.70000004768","","","","survey-template","3","131385","0.0-2.0-1.0","204","1","2025-07-23 09:33:37","1f75c3e559b7213887762d5229550c2b","156.155.58.187","Mozilla/5.0 (Windows NT 10.0; Win64; x64) AppleWebKit/537.36 (KHTML, like Gecko) Chrome/138.0.0.0 Safari/537.36","WebKit","Chrome","138.0.0.0","Windows","10.0","https://app.prolific.com/","en-US,en;q=0.9","60aad516e34718d318bfb44d","683db9eb0562dbf637994deb","6880ac668e5547734dfbe043","2","1","60aad516e34718d318bfb44d","2","1","2025-07-23T09:35:48.680Z","","{""Q01"":""0"",""Q02"":""2"",""Q03"":""2"",""Q04"":""2"",""Q05"":""1"",""Q06"":""1"",""Q07"":""0"",""Q08"":""2"",""Q09"":""1"",""Q10"":""0"",""Q11"":""4"",""Q12"":""0"",""Q13"":""5"",""Q14"":""1"",""Q15"":""4"",""Q16"":""0"",""Q17"":""0"",""Q18"":""2"",""Q19"":""0"",""Q20"":""2"",""Q21"":""2"",""Q22"":""0""}","[0,1,2,3,4,5,6,7,8,9,10,11,12,13,14,15,16,17,18,19,20,21]","[""Q01"",""Q02"",""Q03"",""Q04"",""Q05"",""Q06"",""Q07"",""Q08"",""Q09"",""Q10"",""Q10"",""Q11"",""Q12"",""Q13"",""Q14"",""Q14"",""Q15"",""Q16"",""Q17"",""Q18"",""Q19"",""Q20"",""Q21"",""Q22""]","[3746.900000035763,5517.800000011921,7297,9366,12065.600000023842,16700.200000047684,18500.400000035763,21981.100000023842,26975.5,30147.600000023842,32450.700000047684,35292.700000047684,37850.60000002384,40191.10000002384,43678.200000047684,45081.30000001192,50188.80000001192,57553.700000047684,60140.80000001192,63530.60000002384,67394.10000002384,76190.40000003576,80825.40000003576,86301.30000001192]","[]","[0.800000011920929,3746.900000035763,5517.800000011921,7297,9366,12065.600000023842,16700.200000047684,18500.400000035763,21493.400000035763,21981.100000023842,26975.5,29249,30147.600000023842,32450.700000047684,35292.700000047684,37850.60000002384,40191.10000002384,42357.700000047684,43002.60000002384,43311.30000001192,43678.200000047684,45081.30000001192,50188.80000001192,55558.80000001192,56400,57553.700000047684,60140.80000001192,62360.90000003576,63530.60000002384,66875.60000002384,67394.10000002384,76190.40000003576,80825.40000003576,86301.30000001192,101368.70000004768]","0.36363636363636365","0.23809523809523808","0","drsp","","","","","","","","","","","","","","","","","","","","","","","","","","","","","","",""
"25164.5","","","","survey-template","4","156551","0.0-2.0-2.0","204","1","2025-07-23 09:33:37","1f75c3e559b7213887762d5229550c2b","156.155.58.187","Mozilla/5.0 (Windows NT 10.0; Win64; x64) AppleWebKit/537.36 (KHTML, like Gecko) Chrome/138.0.0.0 Safari/537.36","WebKit","Chrome","138.0.0.0","Windows","10.0","https://app.prolific.com/","en-US,en;q=0.9","60aad516e34718d318bfb44d","683db9eb0562dbf637994deb","6880ac668e5547734dfbe043","2","1","60aad516e34718d318bfb44d","2","1","2025-07-23T09:36:13.846Z","","{""Q01"":""1"",""Q02"":""3"",""Q03"":""1""}","[0,1,2]","[""Q01"",""Q02"",""Q03""]","[8320.099999964237,16471.599999964237,24166.69999998808]","[]","[8320.099999964237,16471.599999964237,22786.799999952316,23372,24166.69999998808,25163.899999976158]","0.6666666666666666","1","0","stress","","","","","","","","","","","","","","","","","","","","","","","","","","","","","","",""
"101132","","","","instructions","5","257684","0.0-3.0-0.0","204","1","2025-07-23 09:33:37","1f75c3e559b7213887762d5229550c2b","156.155.58.187","Mozilla/5.0 (Windows NT 10.0; Win64; x64) AppleWebKit/537.36 (KHTML, like Gecko) Chrome/138.0.0.0 Safari/537.36","WebKit","Chrome","138.0.0.0","Windows","10.0","https://app.prolific.com/","en-US,en;q=0.9","60aad516e34718d318bfb44d","683db9eb0562dbf637994deb","6880ac668e5547734dfbe043","2","1","60aad516e34718d318bfb44d","2","1","","","","","","","","","","","","","[{""page_index"":0,""viewing_time"":101132}]","","","","","","","","","","","","","","","","","","","","","","","","","","","","","",""
"17985","","<p>Before you start with this game please answer the following three questions yourself. </p>
  <p>Through this game, we measure several aspects of your cognitive performance, such as reaction times, multi-tasking capabilities </p>
  <p>and the ability to assess the situation you are in.</p>
  <p></p>
  <p><b>How good do you usually are in such tasks?</b></p>","58","html-slider-response","6","275670","0.0-4.0-0.0","204","1","2025-07-23 09:33:37","1f75c3e559b7213887762d5229550c2b","156.155.58.187","Mozilla/5.0 (Windows NT 10.0; Win64; x64) AppleWebKit/537.36 (KHTML, like Gecko) Chrome/138.0.0.0 Safari/537.36","WebKit","Chrome","138.0.0.0","Windows","10.0","https://app.prolific.com/","en-US,en;q=0.9","60aad516e34718d318bfb44d","683db9eb0562dbf637994deb","6880ac668e5547734dfbe043","2","1","60aad516e34718d318bfb44d","2","1","2025-07-23T09:38:12.965Z","","","","","","","","","","","PreSkillQ","","50","","","","","","","","","","","","","","","","","","","","","","","","","","","","",""
"7536","","<div style=""width:500px;"">
  <p>How well do you think you will perform in this task compared to other participants?</p>
  </div>","54","html-slider-response","7","283207","0.0-4.0-1.0","204","1","2025-07-23 09:33:37","1f75c3e559b7213887762d5229550c2b","156.155.58.187","Mozilla/5.0 (Windows NT 10.0; Win64; x64) AppleWebKit/537.36 (KHTML, like Gecko) Chrome/138.0.0.0 Safari/537.36","WebKit","Chrome","138.0.0.0","Windows","10.0","https://app.prolific.com/","en-US,en;q=0.9","60aad516e34718d318bfb44d","683db9eb0562dbf637994deb","6880ac668e5547734dfbe043","2","1","60aad516e34718d318bfb44d","2","1","2025-07-23T09:38:20.502Z","","","","","","","","","","","PrePerfQ","","50","","","","","","","","","","","","","","","","","","","","","","","","","","","","",""
"4485","","<div style=""width:500px;"">
  <p>What best describes how you currently feel?</p>
  </div>","68","html-slider-response","8","287693","0.0-4.0-2.0","204","1","2025-07-23 09:33:37","1f75c3e559b7213887762d5229550c2b","156.155.58.187","Mozilla/5.0 (Windows NT 10.0; Win64; x64) AppleWebKit/537.36 (KHTML, like Gecko) Chrome/138.0.0.0 Safari/537.36","WebKit","Chrome","138.0.0.0","Windows","10.0","https://app.prolific.com/","en-US,en;q=0.9","60aad516e34718d318bfb44d","683db9eb0562dbf637994deb","6880ac668e5547734dfbe043","2","1","60aad516e34718d318bfb44d","2","1","2025-07-23T09:38:24.988Z","","","","","","","","","","","PreMotivationQ","","50","","","","","","","","","","","","","","","","","","","","","","","","","","","","",""
"","","","","ctl-task-cpt","9","324861","0.0-5.0-0.0","204","1","2025-07-23 09:33:37","1f75c3e559b7213887762d5229550c2b","156.155.58.187","Mozilla/5.0 (Windows NT 10.0; Win64; x64) AppleWebKit/537.36 (KHTML, like Gecko) Chrome/138.0.0.0 Safari/537.36","WebKit","Chrome","138.0.0.0","Windows","10.0","https://app.prolific.com/","en-US,en;q=0.9","60aad516e34718d318bfb44d","683db9eb0562dbf637994deb","6880ac668e5547734dfbe043","2","1","60aad516e34718d318bfb44d","2","1","2025-07-23T09:39:02.156Z","","","","","","","","","","","","","","win-only","0","g1:NW,g2:SE","1","1","0","289708.6","1453.8","6457.1","34164.8","1","4","8","6","2","8","8","8","0","0.06060606060606061","1432.3","3000","570","[""down"",""right""]","{""num_key_presses"":6,""num_perfect"":6,""num_errors"":0,""num_randdir"":0,""num_randdir_good_moves"":0,""num_whilered"":0,""num_whileblue"":0,""num_blue"":3,""num_good_moves"":6}","[411.5714133126395,406.57142761775424,0.5,411.5714133126395,406.57142761775424,102.4,411.5714133126395,406.57142761775424,203.2,411.5714133126395,412.82142761775424,306.9,432.8214133126395,566.5714276177542,407,531.5714133126395,691.5714276177542,507.2,586.5714133126395,756.5714276177542,607.2,347.8214133126395,486.57142761775424,712.6,511.5714133126395,555.3214276177542,817.9,747.8214133126395,881.5714276177542,918.3,806.5714133126395,960.3214276177542,1021.9,821.5714133126395,956.5714276177542,1123,771.5714133126395,812.8214276177542,1229.1,761.5714133126395,771.5714276177542,1332.4,761.5714133126395,767.8214276177542,1438.6,761.5714133126395,767.8214276177542,1542.6,761.5714133126395,767.8214276177542,1643.7,876.5714133126395,827.8214276177542,1747.8,1101.5714133126396,861.5714276177542,1852.5,1144.0714133126396,874.0714276177542,1953.3,1222.8214133126396,940.3214276177542,2057.1,1312.8214133126396,960.3214276177542,2162.4,1314.0714133126396,960.3214276177542,2266.6,1314.0714133126396,960.3214276177542,2366.7,1314.0714133126396,960.3214276177542,2467.1,1314.0714133126396,960.3214276177542,2567.5,1314.0714133126396,960.3214276177542,2667.8,1314.0714133126396,960.3214276177542,2772.3,1314.0714133126396,960.3214276177542,2872.8,1314.0714133126396,960.3214276177542,2973,1314.0714133126396,960.3214276177542,3077.6,1314.0714133126396,960.3214276177542,3182.7,1314.0714133126396,960.3214276177542,3286.6,1314.0714133126396,960.3214276177542,3386.6,1314.0714133126396,960.3214276177542,3487,1314.0714133126396,960.3214276177542,3587.8,1314.0714133126396,960.3214276177542,3692.4,1314.0714133126396,960.3214276177542,3796.7,1314.0714133126396,960.3214276177542,3897.3,1314.0714133126396,960.3214276177542,3997.4,1314.0714133126396,960.3214276177542,4102.1,1314.0714133126396,960.3214276177542,4203.2,1314.0714133126396,960.3214276177542,4307.1,1314.0714133126396,960.3214276177542,4407.6,1314.0714133126396,960.3214276177542,4511.9,1314.0714133126396,960.3214276177542,4613.5,1314.0714133126396,960.3214276177542,4716.9,1314.0714133126396,960.3214276177542,4817.3,1314.0714133126396,960.3214276177542,4917.5]","[4565.1,4565,2156.4,2008.7,400,""smooth"",""down"",""down"",""good_move"",7438.6,2873.2,2475.8,4565.4,397.4,""smooth"",""down"",""down"",""good_move"",10722.2,3283.2,2902.2,7439,381,""smooth"",""down"",""down"",""good_move"",14976.3,4253.4,3867,10722.9,386.4,""smooth"",""right"",""right"",""good_move"",24118.2,9141.5,2578.6,21129.6,410,""smooth"",""right"",""right"",""good_move"",27619.4,3501.1,3005.4,24118.3,495.7,""smooth"",""right"",""right"",""good_move""]","",""
"6375","","<div style=""width:500px;"">
  <p>What determined the result of this run?</p>
  </div>","9","html-slider-response","10","331238","0.0-5.0-1.0","204","1","2025-07-23 09:33:37","1f75c3e559b7213887762d5229550c2b","156.155.58.187","Mozilla/5.0 (Windows NT 10.0; Win64; x64) AppleWebKit/537.36 (KHTML, like Gecko) Chrome/138.0.0.0 Safari/537.36","WebKit","Chrome","138.0.0.0","Windows","10.0","https://app.prolific.com/","en-US,en;q=0.9","60aad516e34718d318bfb44d","683db9eb0562dbf637994deb","6880ac668e5547734dfbe043","2","1","60aad516e34718d318bfb44d","2","1","2025-07-23T09:39:08.533Z","","","","","","","","","","","AttribQ","","50","","","","","","","","","","","","","","","","","","","","","","","","","","","","",""
"6307","","<div style=""width:500px;"">
  <p>How much control did you have over the ball?</p>
  </div>","100","html-slider-response","11","337545","0.0-5.0-2.0","204","1","2025-07-23 09:33:37","1f75c3e559b7213887762d5229550c2b","156.155.58.187","Mozilla/5.0 (Windows NT 10.0; Win64; x64) AppleWebKit/537.36 (KHTML, like Gecko) Chrome/138.0.0.0 Safari/537.36","WebKit","Chrome","138.0.0.0","Windows","10.0","https://app.prolific.com/","en-US,en;q=0.9","60aad516e34718d318bfb44d","683db9eb0562dbf637994deb","6880ac668e5547734dfbe043","2","1","60aad516e34718d318bfb44d","2","1","2025-07-23T09:39:14.841Z","","","","","","","","","","","ControlQ","","50","","","","","","","","","","","","","","","","","","","","","","","","","","","","",""
"4934","","<div style=""width:500px;"">
  <p>How would you describe your current emotional state?</p>
  </div>","32","html-slider-response","12","342481","0.0-5.0-3.0","204","1","2025-07-23 09:33:37","1f75c3e559b7213887762d5229550c2b","156.155.58.187","Mozilla/5.0 (Windows NT 10.0; Win64; x64) AppleWebKit/537.36 (KHTML, like Gecko) Chrome/138.0.0.0 Safari/537.36","WebKit","Chrome","138.0.0.0","Windows","10.0","https://app.prolific.com/","en-US,en;q=0.9","60aad516e34718d318bfb44d","683db9eb0562dbf637994deb","6880ac668e5547734dfbe043","2","1","60aad516e34718d318bfb44d","2","1","2025-07-23T09:39:19.776Z","","","","","","","","","","","StressQ","","50","","","","","","","","","","","","","","","","","","","","","","","","","","","","",""
"5152","","<div style=""width:500px;"">
  <p>What best describes how you currently feel?</p>
  </div>","59","html-slider-response","13","347633","0.0-5.0-4.0","204","1","2025-07-23 09:33:37","1f75c3e559b7213887762d5229550c2b","156.155.58.187","Mozilla/5.0 (Windows NT 10.0; Win64; x64) AppleWebKit/537.36 (KHTML, like Gecko) Chrome/138.0.0.0 Safari/537.36","WebKit","Chrome","138.0.0.0","Windows","10.0","https://app.prolific.com/","en-US,en;q=0.9","60aad516e34718d318bfb44d","683db9eb0562dbf637994deb","6880ac668e5547734dfbe043","2","1","60aad516e34718d318bfb44d","2","1","2025-07-23T09:39:24.928Z","","","","","","","","","","","MotivationQ","","50","","","","","","","","","","","","","","","","","","","","","","","","","","","","",""
"","","","","ctl-task-cpt","14","367176","0.0-5.0-0.1","204","1","2025-07-23 09:33:37","1f75c3e559b7213887762d5229550c2b","156.155.58.187","Mozilla/5.0 (Windows NT 10.0; Win64; x64) AppleWebKit/537.36 (KHTML, like Gecko) Chrome/138.0.0.0 Safari/537.36","WebKit","Chrome","138.0.0.0","Windows","10.0","https://app.prolific.com/","en-US,en;q=0.9","60aad516e34718d318bfb44d","683db9eb0562dbf637994deb","6880ac668e5547734dfbe043","2","1","60aad516e34718d318bfb44d","2","1","2025-07-23T09:39:44.471Z","","","","","","","","","","","","","","win-only","0","g1:NW,g2:SE","0.9","2","0","349647.9","1095.1","6096","16537.1","1","4","4","6","1","1","1","9","8","0.06818181818181818","1063.9","3000","1395","[""left"",""up""]","{""num_key_presses"":4,""num_perfect"":4,""num_errors"":0,""num_randdir"":0,""num_randdir_good_moves"":0,""num_whilered"":0,""num_whileblue"":0,""num_blue"":0,""num_good_moves"":4}","[422.8214133126395,409.07142761775424,1,422.8214133126395,409.07142761775424,101.9,422.8214133126395,409.07142761775424,205.5,422.8214133126395,417.82142761775424,305.6,476.5714133126395,547.8214276177542,410.5,591.5714133126395,656.5714276177542,511.9,647.8214133126395,726.5714276177542,616.1,255.3214133126395,299.07142761775424,720.5,105.3214133126395,127.82142761775425,820.5,104.0714133126395,127.82142761775425,921.3,104.0714133126395,126.57142761775425,1026.3,104.0714133126395,126.57142761775425,1131.6,104.0714133126395,126.57142761775425,1235.9,126.5714133126395,156.57142761775424,1336.5,410.3214133126395,341.57142761775424,1441.4,1001.5714133126395,526.5714276177542,1546,1185.3214133126396,546.5714276177542,1651.1,1092.8214133126396,521.5714276177542,1755.7,1071.5714133126396,517.8214276177542,1855.7,1057.8214133126396,515.3214276177542,1956.3,1057.8214133126396,515.3214276177542,2060.9,1057.8214133126396,515.3214276177542,2166.3,1057.8214133126396,515.3214276177542,2271.1,1057.8214133126396,515.3214276177542,2375.7,1057.8214133126396,515.3214276177542,2475.8,1057.8214133126396,515.3214276177542,2581.9,1057.8214133126396,515.3214276177542,2686.6,1057.8214133126396,515.3214276177542,2790.7,1057.8214133126396,515.3214276177542,2895.3,1057.8214133126396,515.3214276177542,2996,1057.8214133126396,515.3214276177542,3096.3,1057.8214133126396,515.3214276177542,3200.9,1057.8214133126396,515.3214276177542,3300.9,1057.8214133126396,515.3214276177542,3401.2,1057.8214133126396,515.3214276177542,3506.5,1057.8214133126396,515.3214276177542,3606.6,1057.8214133126396,515.3214276177542,3712.1,1057.8214133126396,515.3214276177542,3816.6,1057.8214133126396,515.3214276177542,3921.8,1057.8214133126396,515.3214276177542,4026.7,1057.8214133126396,515.3214276177542,4130.8,1057.8214133126396,515.3214276177542,4230.8,1057.8214133126396,515.3214276177542,4331.6,1057.8214133126396,515.3214276177542,4435.5,1057.8214133126396,515.3214276177542,4536.2,1057.8214133126396,515.3214276177542,4636.4,1057.8214133126396,515.3214276177542,4740.9,1057.8214133126396,515.3214276177542,4846.3,1057.8214133126396,515.3214276177542,4950.4]","[1453,1453,1000,0,453.1,""smooth"",""up"",""up"",""good_move"",4725.6,3272.4,2937.2,1453.2,335.2,""smooth"",""up"",""up"",""good_move"",7630.6,2904.7,2574.6,4725.9,330.1,""smooth"",""left"",""left"",""good_move"",10354.9,2724.1,2224.3,7630.8,499.8,""smooth"",""left"",""left"",""good_move""]","",""
"31338","","<div style=""width:500px;"">
  <p>What determined the result of this run?</p>
  </div>","5","html-slider-response","15","398515","0.0-5.0-1.1","204","1","2025-07-23 09:33:37","1f75c3e559b7213887762d5229550c2b","156.155.58.187","Mozilla/5.0 (Windows NT 10.0; Win64; x64) AppleWebKit/537.36 (KHTML, like Gecko) Chrome/138.0.0.0 Safari/537.36","WebKit","Chrome","138.0.0.0","Windows","10.0","https://app.prolific.com/","en-US,en;q=0.9","60aad516e34718d318bfb44d","683db9eb0562dbf637994deb","6880ac668e5547734dfbe043","2","1","60aad516e34718d318bfb44d","2","1","2025-07-23T09:40:15.810Z","","","","","","","","","","","AttribQ","","50","","","","","","","","","","","","","","","","","","","","","","","","","","","","",""
"2819","","<div style=""width:500px;"">
  <p>How much control did you have over the ball?</p>
  </div>","100","html-slider-response","16","401336","0.0-5.0-2.1","204","1","2025-07-23 09:33:37","1f75c3e559b7213887762d5229550c2b","156.155.58.187","Mozilla/5.0 (Windows NT 10.0; Win64; x64) AppleWebKit/537.36 (KHTML, like Gecko) Chrome/138.0.0.0 Safari/537.36","WebKit","Chrome","138.0.0.0","Windows","10.0","https://app.prolific.com/","en-US,en;q=0.9","60aad516e34718d318bfb44d","683db9eb0562dbf637994deb","6880ac668e5547734dfbe043","2","1","60aad516e34718d318bfb44d","2","1","2025-07-23T09:40:18.631Z","","","","","","","","","","","ControlQ","","50","","","","","","","","","","","","","","","","","","","","","","","","","","","","",""
"3615","","<div style=""width:500px;"">
  <p>How would you describe your current emotional state?</p>
  </div>","11","html-slider-response","17","404951","0.0-5.0-3.1","204","1","2025-07-23 09:33:37","1f75c3e559b7213887762d5229550c2b","156.155.58.187","Mozilla/5.0 (Windows NT 10.0; Win64; x64) AppleWebKit/537.36 (KHTML, like Gecko) Chrome/138.0.0.0 Safari/537.36","WebKit","Chrome","138.0.0.0","Windows","10.0","https://app.prolific.com/","en-US,en;q=0.9","60aad516e34718d318bfb44d","683db9eb0562dbf637994deb","6880ac668e5547734dfbe043","2","1","60aad516e34718d318bfb44d","2","1","2025-07-23T09:40:22.246Z","","","","","","","","","","","StressQ","","50","","","","","","","","","","","","","","","","","","","","","","","","","","","","",""
"2953","","<div style=""width:500px;"">
  <p>What best describes how you currently feel?</p>
  </div>","76","html-slider-response","18","407906","0.0-5.0-4.1","204","1","2025-07-23 09:33:37","1f75c3e559b7213887762d5229550c2b","156.155.58.187","Mozilla/5.0 (Windows NT 10.0; Win64; x64) AppleWebKit/537.36 (KHTML, like Gecko) Chrome/138.0.0.0 Safari/537.36","WebKit","Chrome","138.0.0.0","Windows","10.0","https://app.prolific.com/","en-US,en;q=0.9","60aad516e34718d318bfb44d","683db9eb0562dbf637994deb","6880ac668e5547734dfbe043","2","1","60aad516e34718d318bfb44d","2","1","2025-07-23T09:40:25.201Z","","","","","","","","","","","MotivationQ","","50","","","","","","","","","","","","","","","","","","","","","","","","","","","","",""
"","","","","ctl-task-cpt","19","430520","0.0-5.0-0.2","204","1","2025-07-23 09:33:37","1f75c3e559b7213887762d5229550c2b","156.155.58.187","Mozilla/5.0 (Windows NT 10.0; Win64; x64) AppleWebKit/537.36 (KHTML, like Gecko) Chrome/138.0.0.0 Safari/537.36","WebKit","Chrome","138.0.0.0","Windows","10.0","https://app.prolific.com/","en-US,en;q=0.9","60aad516e34718d318bfb44d","683db9eb0562dbf637994deb","6880ac668e5547734dfbe043","2","1","60aad516e34718d318bfb44d","2","1","2025-07-23T09:40:47.815Z","","","","","","","","","","","","","","win-only","0","g1:NW,g2:SE","0.8","3","0","409921.2","1423","6426.1","19595.5","1","4","8","6","1","1","1","10","9","0.07575757575757576","1611.8","3000","1580","[""left"",""up""]","{""num_key_presses"":4,""num_perfect"":4,""num_errors"":0,""num_randdir"":0,""num_randdir_good_moves"":0,""num_whilered"":0,""num_whileblue"":0,""num_blue"":1,""num_good_moves"":4}","[414.0714133126395,411.57142761775424,0.2,414.0714133126395,411.57142761775424,103.3,414.0714133126395,411.57142761775424,207.8,400.3214133126395,415.32142761775424,312.9,334.0714133126395,365.32142761775424,412.9,191.5714133126395,211.57142761775424,513,180.3214133126395,186.57142761775424,618.2,135.3214133126395,146.57142761775424,722.6,70.3214133126395,96.57142761775425,828.2,52.82141331263951,76.57142761775425,932.6,124.0714133126395,110.32142761775425,1033.5,312.8214133126395,239.07142761775424,1133.5,320.3214133126395,257.82142761775424,1237.7,281.5714133126395,227.82142761775424,1338.7,75.3214133126395,105.32142761775425,1443.3,56.57141331263951,82.82142761775425,1549.1,50.32141331263951,71.57142761775425,1652.7,51.57141331263951,75.32142761775425,1758.5,74.0714133126395,107.82142761775425,1858.7,186.5714133126395,259.07142761775424,1959.1,322.8214133126395,381.57142761775424,2063.2,506.5714133126395,459.07142761775424,2167.9,699.0714133126395,520.3214276177542,2272.3,801.5714133126395,531.5714276177542,2373.1,801.5714133126395,531.5714276177542,2479.5,801.5714133126395,531.5714276177542,2583.8,801.5714133126395,531.5714276177542,2689,801.5714133126395,531.5714276177542,2792.6,801.5714133126395,531.5714276177542,2893.1,801.5714133126395,531.5714276177542,2993.4,801.5714133126395,531.5714276177542,3098.6,801.5714133126395,531.5714276177542,3203,801.5714133126395,531.5714276177542,3307.5,801.5714133126395,531.5714276177542,3408.7,801.5714133126395,531.5714276177542,3513.4,801.5714133126395,531.5714276177542,3617.6,801.5714133126395,531.5714276177542,3718.7,801.5714133126395,531.5714276177542,3819.1,801.5714133126395,531.5714276177542,3923.3,801.5714133126395,531.5714276177542,4028.5,801.5714133126395,531.5714276177542,4129,801.5714133126395,531.5714276177542,4233.3,801.5714133126395,531.5714276177542,4339,801.5714133126395,531.5714276177542,4443.3,801.5714133126395,531.5714276177542,4548.1,801.5714133126395,531.5714276177542,4652.9,801.5714133126395,531.5714276177542,4758.2,801.5714133126395,531.5714276177542,4862.4,801.5714133126395,531.5714276177542,4963.5]","[1465.4,1465.4,1000,0,465.4,""smooth"",""up"",""up"",""good_move"",3819.5,2353.8,2052.2,1465.7,301.6,""smooth"",""up"",""up"",""good_move"",6967.4,3147.4,2848,3820,299.4,""smooth"",""left"",""left"",""good_move"",13083,6115.3,2079,10629.7,374.3,""smooth"",""left"",""left"",""good_move""]","",""
"7655","","<div style=""width:500px;"">
  <p>What determined the result of this run?</p>
  </div>","13","html-slider-response","20","438176","0.0-5.0-1.2","204","1","2025-07-23 09:33:37","1f75c3e559b7213887762d5229550c2b","156.155.58.187","Mozilla/5.0 (Windows NT 10.0; Win64; x64) AppleWebKit/537.36 (KHTML, like Gecko) Chrome/138.0.0.0 Safari/537.36","WebKit","Chrome","138.0.0.0","Windows","10.0","https://app.prolific.com/","en-US,en;q=0.9","60aad516e34718d318bfb44d","683db9eb0562dbf637994deb","6880ac668e5547734dfbe043","2","1","60aad516e34718d318bfb44d","2","1","2025-07-23T09:40:55.471Z","","","","","","","","","","","AttribQ","","50","","","","","","","","","","","","","","","","","","","","","","","","","","","","",""
"4986","","<div style=""width:500px;"">
  <p>How much control did you have over the ball?</p>
  </div>","100","html-slider-response","21","443163","0.0-5.0-2.2","204","1","2025-07-23 09:33:37","1f75c3e559b7213887762d5229550c2b","156.155.58.187","Mozilla/5.0 (Windows NT 10.0; Win64; x64) AppleWebKit/537.36 (KHTML, like Gecko) Chrome/138.0.0.0 Safari/537.36","WebKit","Chrome","138.0.0.0","Windows","10.0","https://app.prolific.com/","en-US,en;q=0.9","60aad516e34718d318bfb44d","683db9eb0562dbf637994deb","6880ac668e5547734dfbe043","2","1","60aad516e34718d318bfb44d","2","1","2025-07-23T09:41:00.458Z","","","","","","","","","","","ControlQ","","50","","","","","","","","","","","","","","","","","","","","","","","","","","","","",""
"2909","","<div style=""width:500px;"">
  <p>How would you describe your current emotional state?</p>
  </div>","17","html-slider-response","22","446073","0.0-5.0-3.2","204","1","2025-07-23 09:33:37","1f75c3e559b7213887762d5229550c2b","156.155.58.187","Mozilla/5.0 (Windows NT 10.0; Win64; x64) AppleWebKit/537.36 (KHTML, like Gecko) Chrome/138.0.0.0 Safari/537.36","WebKit","Chrome","138.0.0.0","Windows","10.0","https://app.prolific.com/","en-US,en;q=0.9","60aad516e34718d318bfb44d","683db9eb0562dbf637994deb","6880ac668e5547734dfbe043","2","1","60aad516e34718d318bfb44d","2","1","2025-07-23T09:41:03.368Z","","","","","","","","","","","StressQ","","50","","","","","","","","","","","","","","","","","","","","","","","","","","","","",""
"2571","","<div style=""width:500px;"">
  <p>What best describes how you currently feel?</p>
  </div>","79","html-slider-response","23","448645","0.0-5.0-4.2","204","1","2025-07-23 09:33:37","1f75c3e559b7213887762d5229550c2b","156.155.58.187","Mozilla/5.0 (Windows NT 10.0; Win64; x64) AppleWebKit/537.36 (KHTML, like Gecko) Chrome/138.0.0.0 Safari/537.36","WebKit","Chrome","138.0.0.0","Windows","10.0","https://app.prolific.com/","en-US,en;q=0.9","60aad516e34718d318bfb44d","683db9eb0562dbf637994deb","6880ac668e5547734dfbe043","2","1","60aad516e34718d318bfb44d","2","1","2025-07-23T09:41:05.940Z","","","","","","","","","","","MotivationQ","","50","","","","","","","","","","","","","","","","","","","","","","","","","","","","",""
"","","","","ctl-task-cpt","24","481268","0.0-5.0-0.3","204","1","2025-07-23 09:33:37","1f75c3e559b7213887762d5229550c2b","156.155.58.187","Mozilla/5.0 (Windows NT 10.0; Win64; x64) AppleWebKit/537.36 (KHTML, like Gecko) Chrome/138.0.0.0 Safari/537.36","WebKit","Chrome","138.0.0.0","Windows","10.0","https://app.prolific.com/","en-US,en;q=0.9","60aad516e34718d318bfb44d","683db9eb0562dbf637994deb","6880ac668e5547734dfbe043","2","1","60aad516e34718d318bfb44d","2","1","2025-07-23T09:41:38.563Z","","","","","","","","","","","","","","win-only","3","g1:SW,g2:NE","0.7","4","0","450660.3","1154.9","6156.5","29606.3","1","4","4","6","1","1","1","11","10","0.08333333333333333","1131.4","3000","245","[""down"",""left""]","{""num_key_presses"":6,""num_perfect"":4,""num_errors"":0,""num_randdir"":2,""num_randdir_good_moves"":1,""num_whilered"":0,""num_whileblue"":0,""num_blue"":2,""num_good_moves"":5}","[416.5714133126395,420.32142761775424,0.1,416.5714133126395,420.32142761775424,100.4,416.5714133126395,421.57142761775424,201.2,417.8214133126395,426.57142761775424,301.7,426.5714133126395,441.57142761775424,406.2,532.8214133126395,362.82142761775424,510.9,482.8214133126395,386.57142761775424,611.8,130.3214133126395,767.8214276177542,716.7,127.8214133126395,834.0714276177542,821.8,126.5714133126395,847.8214276177542,926.3,104.0714133126395,810.3214276177542,1031.2,99.0714133126395,780.3214276177542,1132.2,99.0714133126395,780.3214276177542,1236,99.0714133126395,781.5714276177542,1336,324.0714133126395,846.5714276177542,1441.5,486.5714133126395,851.5714276177542,1545.6,547.8214133126395,930.3214276177542,1645.9,606.5714133126395,960.3214276177542,1746.9,606.5714133126395,960.3214276177542,1850.6,606.5714133126395,960.3214276177542,1956,606.5714133126395,960.3214276177542,2057,606.5714133126395,960.3214276177542,2160.7,606.5714133126395,960.3214276177542,2261.2,606.5714133126395,960.3214276177542,2361.4,606.5714133126395,960.3214276177542,2461.7,606.5714133126395,960.3214276177542,2566,606.5714133126395,960.3214276177542,2666.8,606.5714133126395,960.3214276177542,2770.9,606.5714133126395,960.3214276177542,2876.7,606.5714133126395,960.3214276177542,2981.2,606.5714133126395,960.3214276177542,3086.6,606.5714133126395,960.3214276177542,3190.5,606.5714133126395,960.3214276177542,3290.6,606.5714133126395,960.3214276177542,3390.9,606.5714133126395,960.3214276177542,3495.5,606.5714133126395,960.3214276177542,3595.9,606.5714133126395,960.3214276177542,3701.6,606.5714133126395,960.3214276177542,3806.6,606.5714133126395,960.3214276177542,3911.4,606.5714133126395,960.3214276177542,4016.6,606.5714133126395,960.3214276177542,4121.2,606.5714133126395,960.3214276177542,4225.7,606.5714133126395,960.3214276177542,4325.9,606.5714133126395,960.3214276177542,4426.8,606.5714133126395,960.3214276177542,4527,606.5714133126395,960.3214276177542,4631.1,606.5714133126395,960.3214276177542,4731.4,606.5714133126395,960.3214276177542,4836.6,606.5714133126395,960.3214276177542,4940.8]","[5137.6,5137.6,2708.2,2004.6,424.8,""smooth"",""down"",""down"",""good_move"",11498.1,6360,2857.5,8165.3,475.3,""smooth"",""down"",""down"",""good_move"",14395.7,2897.5,2504.7,11498.2,392.8,""oops"",""left"",""up"",""bad_move"",17990.7,3594.5,2794.2,14396.2,800.3,""smooth"",""down"",""down"",""good_move"",20236,2245.2,1853.4,17990.8,391.8,""oops"",""left"",""left"",""good_move"",23364.2,3127.7,2829,20236.5,298.7,""smooth"",""left"",""left"",""good_move""]","",""
"20990","","<div style=""width:500px;"">
  <p>What determined the result of this run?</p>
  </div>","79","html-slider-response","25","502259","0.0-5.0-1.3","204","1","2025-07-23 09:33:37","1f75c3e559b7213887762d5229550c2b","156.155.58.187","Mozilla/5.0 (Windows NT 10.0; Win64; x64) AppleWebKit/537.36 (KHTML, like Gecko) Chrome/138.0.0.0 Safari/537.36","WebKit","Chrome","138.0.0.0","Windows","10.0","https://app.prolific.com/","en-US,en;q=0.9","60aad516e34718d318bfb44d","683db9eb0562dbf637994deb","6880ac668e5547734dfbe043","2","1","60aad516e34718d318bfb44d","2","1","2025-07-23T09:41:59.554Z","","","","","","","","","","","AttribQ","","50","","","","","","","","","","","","","","","","","","","","","","","","","","","","",""
"4318","","<div style=""width:500px;"">
  <p>How much control did you have over the ball?</p>
  </div>","80","html-slider-response","26","506578","0.0-5.0-2.3","204","1","2025-07-23 09:33:37","1f75c3e559b7213887762d5229550c2b","156.155.58.187","Mozilla/5.0 (Windows NT 10.0; Win64; x64) AppleWebKit/537.36 (KHTML, like Gecko) Chrome/138.0.0.0 Safari/537.36","WebKit","Chrome","138.0.0.0","Windows","10.0","https://app.prolific.com/","en-US,en;q=0.9","60aad516e34718d318bfb44d","683db9eb0562dbf637994deb","6880ac668e5547734dfbe043","2","1","60aad516e34718d318bfb44d","2","1","2025-07-23T09:42:03.873Z","","","","","","","","","","","ControlQ","","50","","","","","","","","","","","","","","","","","","","","","","","","","","","","",""
"3854","","<div style=""width:500px;"">
  <p>How would you describe your current emotional state?</p>
  </div>","42","html-slider-response","27","510433","0.0-5.0-3.3","204","1","2025-07-23 09:33:37","1f75c3e559b7213887762d5229550c2b","156.155.58.187","Mozilla/5.0 (Windows NT 10.0; Win64; x64) AppleWebKit/537.36 (KHTML, like Gecko) Chrome/138.0.0.0 Safari/537.36","WebKit","Chrome","138.0.0.0","Windows","10.0","https://app.prolific.com/","en-US,en;q=0.9","60aad516e34718d318bfb44d","683db9eb0562dbf637994deb","6880ac668e5547734dfbe043","2","1","60aad516e34718d318bfb44d","2","1","2025-07-23T09:42:07.728Z","","","","","","","","","","","StressQ","","50","","","","","","","","","","","","","","","","","","","","","","","","","","","","",""
"2624","","<div style=""width:500px;"">
  <p>What best describes how you currently feel?</p>
  </div>","71","html-slider-response","28","513059","0.0-5.0-4.3","204","1","2025-07-23 09:33:37","1f75c3e559b7213887762d5229550c2b","156.155.58.187","Mozilla/5.0 (Windows NT 10.0; Win64; x64) AppleWebKit/537.36 (KHTML, like Gecko) Chrome/138.0.0.0 Safari/537.36","WebKit","Chrome","138.0.0.0","Windows","10.0","https://app.prolific.com/","en-US,en;q=0.9","60aad516e34718d318bfb44d","683db9eb0562dbf637994deb","6880ac668e5547734dfbe043","2","1","60aad516e34718d318bfb44d","2","1","2025-07-23T09:42:10.354Z","","","","","","","","","","","MotivationQ","","50","","","","","","","","","","","","","","","","","","","","","","","","","","","","",""
"","","","","ctl-task-cpt","29","545872","0.0-5.0-0.4","204","1","2025-07-23 09:33:37","1f75c3e559b7213887762d5229550c2b","156.155.58.187","Mozilla/5.0 (Windows NT 10.0; Win64; x64) AppleWebKit/537.36 (KHTML, like Gecko) Chrome/138.0.0.0 Safari/537.36","WebKit","Chrome","138.0.0.0","Windows","10.0","https://app.prolific.com/","en-US,en;q=0.9","60aad516e34718d318bfb44d","683db9eb0562dbf637994deb","6880ac668e5547734dfbe043","2","1","60aad516e34718d318bfb44d","2","1","2025-07-23T09:42:43.167Z","","","","","","","","","","","","","","win-only","1","g1:NE,g2:SW","0.6","5","0","515073.9","1032.7","6037.8","29795.2","1","4","4","6","1","1","1","12","11","0.09090909090909091","1057.1","3000","500","[""up"",""right""]","{""num_key_presses"":6,""num_perfect"":5,""num_errors"":0,""num_randdir"":1,""num_randdir_good_moves"":0,""num_whilered"":0,""num_whileblue"":0,""num_blue"":2,""num_good_moves"":5}","[416.5714133126395,409.07142761775424,0.2,416.5714133126395,407.82142761775424,103.1,416.5714133126395,409.07142761775424,207.5,416.5714133126395,409.07142761775424,308.6,415.3214133126395,410.32142761775424,412.6,431.5714133126395,409.07142761775424,513.2,626.5714133126395,279.07142761775424,613.3,692.8214133126395,166.57142761775424,718,704.0714133126395,140.32142761775424,818,729.0714133126395,96.57142761775425,918.7,762.8214133126395,67.82142761775425,1023,764.0714133126395,65.32142761775425,1127.7,764.0714133126395,66.57142761775425,1228.2,765.3214133126395,129.07142761775424,1328.5,782.8214133126395,376.57142761775424,1429.5,825.3214133126395,495.32142761775424,1533,832.8214133126395,507.82142761775424,1633.1,832.8214133126395,507.82142761775424,1733.5,832.8214133126395,507.82142761775424,1833.5,832.8214133126395,507.82142761775424,1937.7,832.8214133126395,507.82142761775424,2038.4,832.8214133126395,507.82142761775424,2143.8,832.8214133126395,507.82142761775424,2248,832.8214133126395,507.82142761775424,2353.3,832.8214133126395,507.82142761775424,2454.1,832.8214133126395,507.82142761775424,2557.7,832.8214133126395,507.82142761775424,2657.8,832.8214133126395,507.82142761775424,2757.8,832.8214133126395,507.82142761775424,2858.4,832.8214133126395,507.82142761775424,2963.5,832.8214133126395,507.82142761775424,3068.6,832.8214133126395,507.82142761775424,3168.6,832.8214133126395,507.82142761775424,3272.9,832.8214133126395,507.82142761775424,3378,832.8214133126395,507.82142761775424,3478.2,832.8214133126395,507.82142761775424,3584.1,832.8214133126395,507.82142761775424,3688.7,832.8214133126395,507.82142761775424,3793.6,832.8214133126395,507.82142761775424,3897.9,832.8214133126395,507.82142761775424,4002.6,832.8214133126395,507.82142761775424,4102.6,832.8214133126395,507.82142761775424,4203.3,832.8214133126395,507.82142761775424,4303.7,832.8214133126395,507.82142761775424,4408.7,832.8214133126395,507.82142761775424,4513.8,832.8214133126395,507.82142761775424,4618.3,832.8214133126395,507.82142761775424,4724.1,832.8214133126395,507.82142761775424,4828.6,832.8214133126395,507.82142761775424,4932.6]","[9306.6,9306.6,2893.5,5947.4,465.7,""smooth"",""up"",""up"",""good_move"",12682.9,3375.9,2937.7,9307,438.2,""oops"",""up"",""left"",""bad_move"",15519.3,2836,2416.9,12683.3,419.1,""smooth"",""up"",""up"",""good_move"",18158.6,2638.8,2158.6,15519.8,480.2,""smooth"",""right"",""right"",""good_move"",21185.4,3026.6,2658.6,18158.8,368,""smooth"",""right"",""right"",""good_move"",23672.7,2487,2123.9,21185.7,363.1,""smooth"",""right"",""right"",""good_move""]","",""
"10815","","<div style=""width:500px;"">
  <p>What determined the result of this run?</p>
  </div>","82","html-slider-response","30","556688","0.0-5.0-1.4","204","1","2025-07-23 09:33:37","1f75c3e559b7213887762d5229550c2b","156.155.58.187","Mozilla/5.0 (Windows NT 10.0; Win64; x64) AppleWebKit/537.36 (KHTML, like Gecko) Chrome/138.0.0.0 Safari/537.36","WebKit","Chrome","138.0.0.0","Windows","10.0","https://app.prolific.com/","en-US,en;q=0.9","60aad516e34718d318bfb44d","683db9eb0562dbf637994deb","6880ac668e5547734dfbe043","2","1","60aad516e34718d318bfb44d","2","1","2025-07-23T09:42:53.983Z","","","","","","","","","","","AttribQ","","50","","","","","","","","","","","","","","","","","","","","","","","","","","","","",""
"8331","","<div style=""width:500px;"">
  <p>How much control did you have over the ball?</p>
  </div>","84","html-slider-response","31","565020","0.0-5.0-2.4","204","1","2025-07-23 09:33:37","1f75c3e559b7213887762d5229550c2b","156.155.58.187","Mozilla/5.0 (Windows NT 10.0; Win64; x64) AppleWebKit/537.36 (KHTML, like Gecko) Chrome/138.0.0.0 Safari/537.36","WebKit","Chrome","138.0.0.0","Windows","10.0","https://app.prolific.com/","en-US,en;q=0.9","60aad516e34718d318bfb44d","683db9eb0562dbf637994deb","6880ac668e5547734dfbe043","2","1","60aad516e34718d318bfb44d","2","1","2025-07-23T09:43:02.315Z","","","","","","","","","","","ControlQ","","50","","","","","","","","","","","","","","","","","","","","","","","","","","","","",""
"48999","","<div style=""width:500px;"">
  <p>How would you describe your current emotional state?</p>
  </div>","23","html-slider-response","32","614020","0.0-5.0-3.4","204","1","2025-07-23 09:33:37","1f75c3e559b7213887762d5229550c2b","156.155.58.187","Mozilla/5.0 (Windows NT 10.0; Win64; x64) AppleWebKit/537.36 (KHTML, like Gecko) Chrome/138.0.0.0 Safari/537.36","WebKit","Chrome","138.0.0.0","Windows","10.0","https://app.prolific.com/","en-US,en;q=0.9","60aad516e34718d318bfb44d","683db9eb0562dbf637994deb","6880ac668e5547734dfbe043","2","1","60aad516e34718d318bfb44d","2","1","2025-07-23T09:43:51.315Z","","","","","","","","","","","StressQ","","50","","","","","","","","","","","","","","","","","","","","","","","","","","","","",""
"15426","","<div style=""width:500px;"">
  <p>What best describes how you currently feel?</p>
  </div>","84","html-slider-response","33","629448","0.0-5.0-4.4","204","1","2025-07-23 09:33:37","1f75c3e559b7213887762d5229550c2b","156.155.58.187","Mozilla/5.0 (Windows NT 10.0; Win64; x64) AppleWebKit/537.36 (KHTML, like Gecko) Chrome/138.0.0.0 Safari/537.36","WebKit","Chrome","138.0.0.0","Windows","10.0","https://app.prolific.com/","en-US,en;q=0.9","60aad516e34718d318bfb44d","683db9eb0562dbf637994deb","6880ac668e5547734dfbe043","2","1","60aad516e34718d318bfb44d","2","1","2025-07-23T09:44:06.743Z","","","","","","","","","","","MotivationQ","","50","","","","","","","","","","","","","","","","","","","","","","","","","","","","",""
"","","","","ctl-task-cpt","34","667928","0.0-5.0-0.5","204","1","2025-07-23 09:33:37","1f75c3e559b7213887762d5229550c2b","156.155.58.187","Mozilla/5.0 (Windows NT 10.0; Win64; x64) AppleWebKit/537.36 (KHTML, like Gecko) Chrome/138.0.0.0 Safari/537.36","WebKit","Chrome","138.0.0.0","Windows","10.0","https://app.prolific.com/","en-US,en;q=0.9","60aad516e34718d318bfb44d","683db9eb0562dbf637994deb","6880ac668e5547734dfbe043","2","1","60aad516e34718d318bfb44d","2","1","2025-07-23T09:44:45.223Z","","","","","","","","","","","","","","win-only","3","g1:SW,g2:NE","0.5","6","0","631463.8","1233.7","6236.4","32965.8","1","4","8","6","1","-1","-1","11","12","0.08333333333333333","1809.4","3000","-2230","[""down"",""left""]","{""num_key_presses"":5,""num_perfect"":3,""num_errors"":0,""num_randdir"":2,""num_randdir_good_moves"":0,""num_whilered"":0,""num_whileblue"":0,""num_blue"":3,""num_good_moves"":3}","[414.0714133126395,415.32142761775424,0.2,414.0714133126395,415.32142761775424,102.2,414.0714133126395,416.57142761775424,207.7,414.0714133126395,416.57142761775424,311.9,426.5714133126395,455.32142761775424,412.8,416.5714133126395,490.32142761775424,512.9,364.0714133126395,579.0714276177542,616.9,311.5714133126395,651.5714276177542,717.3,204.0714133126395,720.3214276177542,817.4,116.5714133126395,751.5714276177542,922.5,142.8214133126395,766.5714276177542,1022.9,396.5714133126395,596.5714276177542,1126.5,531.5714133126395,447.82142761775424,1226.7,346.5714133126395,440.32142761775424,1327.5,50.32141331263951,641.5714276177542,1432.8,56.57141331263951,677.8214276177542,1537.3,61.57141331263951,687.8214276177542,1641.8,70.3214133126395,755.3214276177542,1747.4,74.0714133126395,767.8214276177542,1852.1,71.5714133126395,769.0714276177542,1956.8,84.0714133126395,767.8214276177542,2062.8,251.5714133126395,765.3214276177542,2166.7,459.0714133126395,726.5714276177542,2272,550.3214133126395,711.5714276177542,2372.1,556.5714133126395,710.3214276177542,2477.4,556.5714133126395,710.3214276177542,2582.6,556.5714133126395,710.3214276177542,2683.4,556.5714133126395,710.3214276177542,2787.3,556.5714133126395,710.3214276177542,2891.9,556.5714133126395,710.3214276177542,2992.7,556.5714133126395,710.3214276177542,3093.4,556.5714133126395,710.3214276177542,3196.5,556.5714133126395,710.3214276177542,3297.1,556.5714133126395,710.3214276177542,3402.6,556.5714133126395,710.3214276177542,3506.6,556.5714133126395,710.3214276177542,3607.6,556.5714133126395,710.3214276177542,3712.2,556.5714133126395,710.3214276177542,3817.6,556.5714133126395,710.3214276177542,3922.9,556.5714133126395,710.3214276177542,4026.9,556.5714133126395,710.3214276177542,4131.9,556.5714133126395,710.3214276177542,4232.6,556.5714133126395,710.3214276177542,4336.7,556.5714133126395,710.3214276177542,4436.7,556.5714133126395,710.3214276177542,4537.3,556.5714133126395,710.3214276177542,4642,556.5714133126395,710.3214276177542,4742.1,556.5714133126395,710.3214276177542,4842.4,556.5714133126395,710.3214276177542,4946.8]","[1490.6,1490.6,1000,0,490.6,""oops"",""down"",""right"",""bad_move"",4446.4,2955.6,2555.3,1490.8,400.3,""smooth"",""down"",""down"",""good_move"",7479,3032,2576.2,4447,455.8,""smooth"",""down"",""down"",""good_move"",17638.9,10159.8,2426.7,14763.9,448.3,""smooth"",""left"",""left"",""good_move"",23902.4,6263.3,2522.6,20848.7,531.1,""oops"",""left"",""right"",""bad_move""]","",""
"17432","","<div style=""width:500px;"">
  <p>What determined the result of this run?</p>
  </div>","19","html-slider-response","35","685361","0.0-5.0-1.5","204","1","2025-07-23 09:33:37","1f75c3e559b7213887762d5229550c2b","156.155.58.187","Mozilla/5.0 (Windows NT 10.0; Win64; x64) AppleWebKit/537.36 (KHTML, like Gecko) Chrome/138.0.0.0 Safari/537.36","WebKit","Chrome","138.0.0.0","Windows","10.0","https://app.prolific.com/","en-US,en;q=0.9","60aad516e34718d318bfb44d","683db9eb0562dbf637994deb","6880ac668e5547734dfbe043","2","1","60aad516e34718d318bfb44d","2","1","2025-07-23T09:45:02.657Z","","","","","","","","","","","AttribQ","","50","","","","","","","","","","","","","","","","","","","","","","","","","","","","",""
"24563","","<div style=""width:500px;"">
  <p>How much control did you have over the ball?</p>
  </div>","61","html-slider-response","36","709925","0.0-5.0-2.5","204","1","2025-07-23 09:33:37","1f75c3e559b7213887762d5229550c2b","156.155.58.187","Mozilla/5.0 (Windows NT 10.0; Win64; x64) AppleWebKit/537.36 (KHTML, like Gecko) Chrome/138.0.0.0 Safari/537.36","WebKit","Chrome","138.0.0.0","Windows","10.0","https://app.prolific.com/","en-US,en;q=0.9","60aad516e34718d318bfb44d","683db9eb0562dbf637994deb","6880ac668e5547734dfbe043","2","1","60aad516e34718d318bfb44d","2","1","2025-07-23T09:45:27.220Z","","","","","","","","","","","ControlQ","","50","","","","","","","","","","","","","","","","","","","","","","","","","","","","",""
"5886","","<div style=""width:500px;"">
  <p>How would you describe your current emotional state?</p>
  </div>","27","html-slider-response","37","715812","0.0-5.0-3.5","204","1","2025-07-23 09:33:37","1f75c3e559b7213887762d5229550c2b","156.155.58.187","Mozilla/5.0 (Windows NT 10.0; Win64; x64) AppleWebKit/537.36 (KHTML, like Gecko) Chrome/138.0.0.0 Safari/537.36","WebKit","Chrome","138.0.0.0","Windows","10.0","https://app.prolific.com/","en-US,en;q=0.9","60aad516e34718d318bfb44d","683db9eb0562dbf637994deb","6880ac668e5547734dfbe043","2","1","60aad516e34718d318bfb44d","2","1","2025-07-23T09:45:33.108Z","","","","","","","","","","","StressQ","","50","","","","","","","","","","","","","","","","","","","","","","","","","","","","",""
"24960","","<div style=""width:500px;"">
  <p>What best describes how you currently feel?</p>
  </div>","74","html-slider-response","38","740774","0.0-5.0-4.5","204","1","2025-07-23 09:33:37","1f75c3e559b7213887762d5229550c2b","156.155.58.187","Mozilla/5.0 (Windows NT 10.0; Win64; x64) AppleWebKit/537.36 (KHTML, like Gecko) Chrome/138.0.0.0 Safari/537.36","WebKit","Chrome","138.0.0.0","Windows","10.0","https://app.prolific.com/","en-US,en;q=0.9","60aad516e34718d318bfb44d","683db9eb0562dbf637994deb","6880ac668e5547734dfbe043","2","1","60aad516e34718d318bfb44d","2","1","2025-07-23T09:45:58.069Z","","","","","","","","","","","MotivationQ","","50","","","","","","","","","","","","","","","","","","","","","","","","","","","","",""
"","","","","ctl-task-cpt","39","765712","0.0-5.0-0.6","204","1","2025-07-23 09:33:37","1f75c3e559b7213887762d5229550c2b","156.155.58.187","Mozilla/5.0 (Windows NT 10.0; Win64; x64) AppleWebKit/537.36 (KHTML, like Gecko) Chrome/138.0.0.0 Safari/537.36","WebKit","Chrome","138.0.0.0","Windows","10.0","https://app.prolific.com/","en-US,en;q=0.9","60aad516e34718d318bfb44d","683db9eb0562dbf637994deb","6880ac668e5547734dfbe043","2","1","60aad516e34718d318bfb44d","2","1","2025-07-23T09:46:23.007Z","","","","","","","","","","","","","","win-only","0","g1:NW,g2:SE","0.4","7","0","742789.3","1685.4","6686.6","21920.3","1","4","4","6","1","1","1","12","11","0.09090909090909091","1409.9","3000","1115","[""left"",""up""]","{""num_key_presses"":4,""num_perfect"":3,""num_errors"":0,""num_randdir"":1,""num_randdir_good_moves"":1,""num_whilered"":0,""num_whileblue"":0,""num_blue"":1,""num_good_moves"":4}","[416.5714133126395,411.57142761775424,0.2,416.5714133126395,410.32142761775424,101,416.5714133126395,412.82142761775424,205,430.3214133126395,436.57142761775424,306.2,495.3214133126395,527.8214276177542,406.3,551.5714133126395,632.8214276177542,510.5,549.0714133126395,646.5714276177542,615.8,246.5714133126395,300.32142761775424,720.1,206.5714133126395,261.57142761775424,820.4,205.3214133126395,256.57142761775424,920.7,146.5714133126395,216.57142761775424,1024.9,17.821413312639507,154.07142761775424,1131,21.571413312639507,121.57142761775425,1235.7,21.571413312639507,121.57142761775425,1340.1,21.571413312639507,119.07142761775425,1440.9,24.071413312639507,121.57142761775425,1546,64.0714133126395,136.57142761775424,1649.8,354.0714133126395,286.57142761775424,1751,371.5714133126395,310.32142761775424,1854.9,371.5714133126395,311.57142761775424,1956.7,460.3214133126395,377.82142761775424,2059.7,467.8214133126395,384.07142761775424,2160.5,467.8214133126395,384.07142761775424,2260.9,467.8214133126395,384.07142761775424,2364.9,467.8214133126395,385.32142761775424,2464.9,467.8214133126395,385.32142761775424,2566.2,467.8214133126395,385.32142761775424,2669.8,467.8214133126395,385.32142761775424,2770.2,467.8214133126395,385.32142761775424,2876.8,467.8214133126395,385.32142761775424,2980.6,467.8214133126395,385.32142761775424,3087,467.8214133126395,385.32142761775424,3189.8,467.8214133126395,385.32142761775424,3290.5,467.8214133126395,385.32142761775424,3395.3,467.8214133126395,385.32142761775424,3495.8,467.8214133126395,385.32142761775424,3599.8,467.8214133126395,385.32142761775424,3700.4,467.8214133126395,385.32142761775424,3800.8,467.8214133126395,385.32142761775424,3906.2,467.8214133126395,385.32142761775424,4009.9,467.8214133126395,385.32142761775424,4110.5,467.8214133126395,385.32142761775424,4211.1,467.8214133126395,385.32142761775424,4315.6,467.8214133126395,385.32142761775424,4419.8,467.8214133126395,385.32142761775424,4520,467.8214133126395,385.32142761775424,4620.9,467.8214133126395,385.32142761775424,4724.8,467.8214133126395,385.32142761775424,4825,467.8214133126395,385.32142761775424,4925.4]","[1454.5,1454.5,1000,0,454.5,""smooth"",""up"",""up"",""good_move"",4641.3,3186.4,2746.3,1454.9,440.1,""oops"",""up"",""up"",""good_move"",11566.8,6925.2,3004.1,8048.9,513.8,""smooth"",""left"",""left"",""good_move"",15146.4,3579.4,3077.7,11567,501.7,""smooth"",""left"",""left"",""good_move""]","",""
"12997","","<div style=""width:500px;"">
  <p>What determined the result of this run?</p>
  </div>","87","html-slider-response","40","778710","0.0-5.0-1.6","204","1","2025-07-23 09:33:37","1f75c3e559b7213887762d5229550c2b","156.155.58.187","Mozilla/5.0 (Windows NT 10.0; Win64; x64) AppleWebKit/537.36 (KHTML, like Gecko) Chrome/138.0.0.0 Safari/537.36","WebKit","Chrome","138.0.0.0","Windows","10.0","https://app.prolific.com/","en-US,en;q=0.9","60aad516e34718d318bfb44d","683db9eb0562dbf637994deb","6880ac668e5547734dfbe043","2","1","60aad516e34718d318bfb44d","2","1","2025-07-23T09:46:36.005Z","","","","","","","","","","","AttribQ","","50","","","","","","","","","","","","","","","","","","","","","","","","","","","","",""
"15809","","<div style=""width:500px;"">
  <p>How much control did you have over the ball?</p>
  </div>","79","html-slider-response","41","794520","0.0-5.0-2.6","204","1","2025-07-23 09:33:37","1f75c3e559b7213887762d5229550c2b","156.155.58.187","Mozilla/5.0 (Windows NT 10.0; Win64; x64) AppleWebKit/537.36 (KHTML, like Gecko) Chrome/138.0.0.0 Safari/537.36","WebKit","Chrome","138.0.0.0","Windows","10.0","https://app.prolific.com/","en-US,en;q=0.9","60aad516e34718d318bfb44d","683db9eb0562dbf637994deb","6880ac668e5547734dfbe043","2","1","60aad516e34718d318bfb44d","2","1","2025-07-23T09:46:51.815Z","","","","","","","","","","","ControlQ","","50","","","","","","","","","","","","","","","","","","","","","","","","","","","","",""
"12217","","<div style=""width:500px;"">
  <p>How would you describe your current emotional state?</p>
  </div>","29","html-slider-response","42","806738","0.0-5.0-3.6","204","1","2025-07-23 09:33:37","1f75c3e559b7213887762d5229550c2b","156.155.58.187","Mozilla/5.0 (Windows NT 10.0; Win64; x64) AppleWebKit/537.36 (KHTML, like Gecko) Chrome/138.0.0.0 Safari/537.36","WebKit","Chrome","138.0.0.0","Windows","10.0","https://app.prolific.com/","en-US,en;q=0.9","60aad516e34718d318bfb44d","683db9eb0562dbf637994deb","6880ac668e5547734dfbe043","2","1","60aad516e34718d318bfb44d","2","1","2025-07-23T09:47:04.034Z","","","","","","","","","","","StressQ","","50","","","","","","","","","","","","","","","","","","","","","","","","","","","","",""
"5849","","<div style=""width:500px;"">
  <p>What best describes how you currently feel?</p>
  </div>","75","html-slider-response","43","812589","0.0-5.0-4.6","204","1","2025-07-23 09:33:37","1f75c3e559b7213887762d5229550c2b","156.155.58.187","Mozilla/5.0 (Windows NT 10.0; Win64; x64) AppleWebKit/537.36 (KHTML, like Gecko) Chrome/138.0.0.0 Safari/537.36","WebKit","Chrome","138.0.0.0","Windows","10.0","https://app.prolific.com/","en-US,en;q=0.9","60aad516e34718d318bfb44d","683db9eb0562dbf637994deb","6880ac668e5547734dfbe043","2","1","60aad516e34718d318bfb44d","2","1","2025-07-23T09:47:09.884Z","","","","","","","","","","","MotivationQ","","50","","","","","","","","","","","","","","","","","","","","","","","","","","","","",""
"","","","","ctl-task-cpt","44","850148","0.0-5.0-0.7","204","1","2025-07-23 09:33:37","1f75c3e559b7213887762d5229550c2b","156.155.58.187","Mozilla/5.0 (Windows NT 10.0; Win64; x64) AppleWebKit/537.36 (KHTML, like Gecko) Chrome/138.0.0.0 Safari/537.36","WebKit","Chrome","138.0.0.0","Windows","10.0","https://app.prolific.com/","en-US,en;q=0.9","60aad516e34718d318bfb44d","683db9eb0562dbf637994deb","6880ac668e5547734dfbe043","2","1","60aad516e34718d318bfb44d","2","1","2025-07-23T09:47:47.443Z","","","","","","","","","","","","","","win-only","3","g1:SW,g2:NE","0.3","8","0","814604.2","1542.1","6545.2","34541.1","1","4","8","6","1","-1","-1","11","12","0.08333333333333333","1289.8","3000","-3015","[""down"",""left""]","{""num_key_presses"":5,""num_perfect"":1,""num_errors"":0,""num_randdir"":4,""num_randdir_good_moves"":3,""num_whilered"":0,""num_whileblue"":0,""num_blue"":3,""num_good_moves"":4}","[415.3214133126395,419.07142761775424,0.2,415.3214133126395,417.82142761775424,103.1,414.0714133126395,421.57142761775424,203.7,410.3214133126395,430.32142761775424,303.8,415.3214133126395,481.57142761775424,404.1,441.5714133126395,504.07142761775424,504.2,530.3214133126395,451.57142761775424,609.1,431.5714133126395,434.07142761775424,713.6,196.5714133126395,799.0714276177542,818.1,186.5714133126395,851.5714276177542,918.5,161.5714133126395,847.8214276177542,1018.5,94.0714133126395,789.0714276177542,1118.8,81.5714133126395,767.8214276177542,1224.3,80.3214133126395,765.3214276177542,1325,80.3214133126395,765.3214276177542,1429,125.3214133126395,792.8214276177542,1529.3,329.0714133126395,839.0714276177542,1633.8,345.3214133126395,841.5714276177542,1734,352.8214133126395,844.0714276177542,1834.1,361.5714133126395,850.3214276177542,1938.7,365.3214133126395,852.8214276177542,2044.1,365.3214133126395,852.8214276177542,2148.2,365.3214133126395,852.8214276177542,2248.7,365.3214133126395,852.8214276177542,2354.2,365.3214133126395,852.8214276177542,2458.9,365.3214133126395,852.8214276177542,2559.2,365.3214133126395,852.8214276177542,2663.2,365.3214133126395,852.8214276177542,2764.1,365.3214133126395,852.8214276177542,2869.5,365.3214133126395,852.8214276177542,2973.3,365.3214133126395,852.8214276177542,3078.6,365.3214133126395,852.8214276177542,3179.3,365.3214133126395,852.8214276177542,3283.1,365.3214133126395,852.8214276177542,3384.4,365.3214133126395,852.8214276177542,3488.6,365.3214133126395,852.8214276177542,3589,365.3214133126395,852.8214276177542,3689.5,365.3214133126395,852.8214276177542,3795.1,365.3214133126395,852.8214276177542,3898.5,365.3214133126395,852.8214276177542,4003.2,365.3214133126395,852.8214276177542,4109.2,365.3214133126395,852.8214276177542,4213.6,365.3214133126395,852.8214276177542,4314.4,365.3214133126395,852.8214276177542,4418,365.3214133126395,852.8214276177542,4518.4,365.3214133126395,852.8214276177542,4618.9,365.3214133126395,852.8214276177542,4718.9,365.3214133126395,852.8214276177542,4824.5,365.3214133126395,852.8214276177542,4928.5]","[1603.3,1603.3,1000,0,603.3,""smooth"",""down"",""down"",""good_move"",8619.4,7015.8,3169.8,5031,418.6,""oops"",""down"",""left"",""good_move"",11755,3135.5,2448.1,8619.6,687.3,""oops"",""down"",""left"",""good_move"",22383.4,10628.2,2501.8,19406,475.6,""oops"",""down"",""up"",""bad_move"",25185.3,2801.5,2180.1,22383.8,621.5,""oops"",""down"",""down"",""good_move""]","",""
"15054","","<div style=""width:500px;"">
  <p>What determined the result of this run?</p>
  </div>","66","html-slider-response","45","865203","0.0-5.0-1.7","204","1","2025-07-23 09:33:37","1f75c3e559b7213887762d5229550c2b","156.155.58.187","Mozilla/5.0 (Windows NT 10.0; Win64; x64) AppleWebKit/537.36 (KHTML, like Gecko) Chrome/138.0.0.0 Safari/537.36","WebKit","Chrome","138.0.0.0","Windows","10.0","https://app.prolific.com/","en-US,en;q=0.9","60aad516e34718d318bfb44d","683db9eb0562dbf637994deb","6880ac668e5547734dfbe043","2","1","60aad516e34718d318bfb44d","2","1","2025-07-23T09:48:02.498Z","","","","","","","","","","","AttribQ","","50","","","","","","","","","","","","","","","","","","","","","","","","","","","","",""
"9524","","<div style=""width:500px;"">
  <p>How much control did you have over the ball?</p>
  </div>","36","html-slider-response","46","874728","0.0-5.0-2.7","204","1","2025-07-23 09:33:37","1f75c3e559b7213887762d5229550c2b","156.155.58.187","Mozilla/5.0 (Windows NT 10.0; Win64; x64) AppleWebKit/537.36 (KHTML, like Gecko) Chrome/138.0.0.0 Safari/537.36","WebKit","Chrome","138.0.0.0","Windows","10.0","https://app.prolific.com/","en-US,en;q=0.9","60aad516e34718d318bfb44d","683db9eb0562dbf637994deb","6880ac668e5547734dfbe043","2","1","60aad516e34718d318bfb44d","2","1","2025-07-23T09:48:12.023Z","","","","","","","","","","","ControlQ","","50","","","","","","","","","","","","","","","","","","","","","","","","","","","","",""
"10072","","<div style=""width:500px;"">
  <p>How would you describe your current emotional state?</p>
  </div>","61","html-slider-response","47","884800","0.0-5.0-3.7","204","1","2025-07-23 09:33:37","1f75c3e559b7213887762d5229550c2b","156.155.58.187","Mozilla/5.0 (Windows NT 10.0; Win64; x64) AppleWebKit/537.36 (KHTML, like Gecko) Chrome/138.0.0.0 Safari/537.36","WebKit","Chrome","138.0.0.0","Windows","10.0","https://app.prolific.com/","en-US,en;q=0.9","60aad516e34718d318bfb44d","683db9eb0562dbf637994deb","6880ac668e5547734dfbe043","2","1","60aad516e34718d318bfb44d","2","1","2025-07-23T09:48:22.095Z","","","","","","","","","","","StressQ","","50","","","","","","","","","","","","","","","","","","","","","","","","","","","","",""
"40274","","<div style=""width:500px;"">
  <p>What best describes how you currently feel?</p>
  </div>","69","html-slider-response","48","925075","0.0-5.0-4.7","204","1","2025-07-23 09:33:37","1f75c3e559b7213887762d5229550c2b","156.155.58.187","Mozilla/5.0 (Windows NT 10.0; Win64; x64) AppleWebKit/537.36 (KHTML, like Gecko) Chrome/138.0.0.0 Safari/537.36","WebKit","Chrome","138.0.0.0","Windows","10.0","https://app.prolific.com/","en-US,en;q=0.9","60aad516e34718d318bfb44d","683db9eb0562dbf637994deb","6880ac668e5547734dfbe043","2","1","60aad516e34718d318bfb44d","2","1","2025-07-23T09:49:02.371Z","","","","","","","","","","","MotivationQ","","50","","","","","","","","","","","","","","","","","","","","","","","","","","","","",""
"","","","","ctl-task-cpt","49","959669","0.0-5.0-0.8","204","1","2025-07-23 09:33:37","1f75c3e559b7213887762d5229550c2b","156.155.58.187","Mozilla/5.0 (Windows NT 10.0; Win64; x64) AppleWebKit/537.36 (KHTML, like Gecko) Chrome/138.0.0.0 Safari/537.36","WebKit","Chrome","138.0.0.0","Windows","10.0","https://app.prolific.com/","en-US,en;q=0.9","60aad516e34718d318bfb44d","683db9eb0562dbf637994deb","6880ac668e5547734dfbe043","2","1","60aad516e34718d318bfb44d","2","1","2025-07-23T09:49:36.964Z","","","","","","","","","","","","","","win-only","0","g1:NW,g2:SE","0.2","9","0","927091.1","2871.1","7877.2","31575.8","1","4","8","6","1","-1","-1","10","11","0.07575757575757576","1491.7","3000","-3015","[""left"",""up""]","{""num_key_presses"":6,""num_perfect"":2,""num_errors"":0,""num_randdir"":4,""num_randdir_good_moves"":2,""num_whilered"":0,""num_whileblue"":0,""num_blue"":1,""num_good_moves"":4}","[415.3214133126395,416.57142761775424,0.3,415.3214133126395,416.57142761775424,104.4,415.3214133126395,416.57142761775424,205,415.3214133126395,416.57142761775424,309.6,410.3214133126395,447.82142761775424,409.6,425.3214133126395,509.07142761775424,509.8,465.3214133126395,561.5714276177542,614.1,242.8214133126395,281.57142761775424,715.7,151.5714133126395,161.57142761775424,819.5,151.5714133126395,160.32142761775424,920.2,155.3214133126395,156.57142761775424,1025.1,131.5714133126395,129.07142761775424,1130.6,129.0714133126395,124.07142761775425,1235.3,125.3214133126395,119.07142761775425,1340.6,121.5714133126395,115.32142761775425,1444.5,121.5714133126395,111.57142761775425,1546.1,121.5714133126395,111.57142761775425,1650.1,121.5714133126395,114.07142761775425,1754.7,166.5714133126395,137.82142761775424,1859.1,356.5714133126395,177.82142761775424,1959.1,649.0714133126395,211.57142761775424,2059.8,921.5714133126395,251.57142761775424,2159.8,932.8214133126395,254.07142761775424,2264.7,932.8214133126395,255.32142761775424,2366.1,932.8214133126395,256.57142761775424,2469.3,932.8214133126395,256.57142761775424,2569.5,932.8214133126395,256.57142761775424,2669.9,932.8214133126395,256.57142761775424,2774.8,932.8214133126395,256.57142761775424,2879.3,932.8214133126395,256.57142761775424,2984.1,932.8214133126395,256.57142761775424,3084.1,932.8214133126395,256.57142761775424,3185,932.8214133126395,256.57142761775424,3289.3,932.8214133126395,256.57142761775424,3394.6,932.8214133126395,256.57142761775424,3496.1,932.8214133126395,256.57142761775424,3599,932.8214133126395,256.57142761775424,3699.3,932.8214133126395,256.57142761775424,3804.2,932.8214133126395,256.57142761775424,3904.3,932.8214133126395,256.57142761775424,4005.3,932.8214133126395,256.57142761775424,4109.4,932.8214133126395,256.57142761775424,4215.1,932.8214133126395,256.57142761775424,4319.1,932.8214133126395,256.57142761775424,4419.5,932.8214133126395,256.57142761775424,4520.5,932.8214133126395,256.57142761775424,4624.5,932.8214133126395,256.57142761775424,4725.6,932.8214133126395,256.57142761775424,4829.7,932.8214133126395,256.57142761775424,4934.3]","[1534.5,1534.5,1000,0,534.5,""smooth"",""up"",""up"",""good_move"",5771.1,4236.3,2947.9,1534.8,1288.4,""oops"",""up"",""right"",""bad_move"",8336.3,2564.8,2098.6,5771.5,466.2,""smooth"",""up"",""up"",""good_move"",11478.5,3142.1,2806.2,8336.4,335.9,""oops"",""left"",""down"",""bad_move"",14408.2,2929.2,2193.6,11479,735.6,""oops"",""left"",""left"",""good_move"",20404.3,5996,2185.8,17798.9,419.7,""oops"",""left"",""up"",""good_move""]","",""
"7751","","<div style=""width:500px;"">
  <p>What determined the result of this run?</p>
  </div>","72","html-slider-response","50","967422","0.0-5.0-1.8","204","1","2025-07-23 09:33:37","1f75c3e559b7213887762d5229550c2b","156.155.58.187","Mozilla/5.0 (Windows NT 10.0; Win64; x64) AppleWebKit/537.36 (KHTML, like Gecko) Chrome/138.0.0.0 Safari/537.36","WebKit","Chrome","138.0.0.0","Windows","10.0","https://app.prolific.com/","en-US,en;q=0.9","60aad516e34718d318bfb44d","683db9eb0562dbf637994deb","6880ac668e5547734dfbe043","2","1","60aad516e34718d318bfb44d","2","1","2025-07-23T09:49:44.717Z","","","","","","","","","","","AttribQ","","50","","","","","","","","","","","","","","","","","","","","","","","","","","","","",""
"9427","","<div style=""width:500px;"">
  <p>How much control did you have over the ball?</p>
  </div>","75","html-slider-response","51","976849","0.0-5.0-2.8","204","1","2025-07-23 09:33:37","1f75c3e559b7213887762d5229550c2b","156.155.58.187","Mozilla/5.0 (Windows NT 10.0; Win64; x64) AppleWebKit/537.36 (KHTML, like Gecko) Chrome/138.0.0.0 Safari/537.36","WebKit","Chrome","138.0.0.0","Windows","10.0","https://app.prolific.com/","en-US,en;q=0.9","60aad516e34718d318bfb44d","683db9eb0562dbf637994deb","6880ac668e5547734dfbe043","2","1","60aad516e34718d318bfb44d","2","1","2025-07-23T09:49:54.144Z","","","","","","","","","","","ControlQ","","50","","","","","","","","","","","","","","","","","","","","","","","","","","","","",""
"9232","","<div style=""width:500px;"">
  <p>How would you describe your current emotional state?</p>
  </div>","22","html-slider-response","52","986082","0.0-5.0-3.8","204","1","2025-07-23 09:33:37","1f75c3e559b7213887762d5229550c2b","156.155.58.187","Mozilla/5.0 (Windows NT 10.0; Win64; x64) AppleWebKit/537.36 (KHTML, like Gecko) Chrome/138.0.0.0 Safari/537.36","WebKit","Chrome","138.0.0.0","Windows","10.0","https://app.prolific.com/","en-US,en;q=0.9","60aad516e34718d318bfb44d","683db9eb0562dbf637994deb","6880ac668e5547734dfbe043","2","1","60aad516e34718d318bfb44d","2","1","2025-07-23T09:50:03.377Z","","","","","","","","","","","StressQ","","50","","","","","","","","","","","","","","","","","","","","","","","","","","","","",""
"12021","","<div style=""width:500px;"">
  <p>What best describes how you currently feel?</p>
  </div>","78","html-slider-response","53","998104","0.0-5.0-4.8","204","1","2025-07-23 09:33:37","1f75c3e559b7213887762d5229550c2b","156.155.58.187","Mozilla/5.0 (Windows NT 10.0; Win64; x64) AppleWebKit/537.36 (KHTML, like Gecko) Chrome/138.0.0.0 Safari/537.36","WebKit","Chrome","138.0.0.0","Windows","10.0","https://app.prolific.com/","en-US,en;q=0.9","60aad516e34718d318bfb44d","683db9eb0562dbf637994deb","6880ac668e5547734dfbe043","2","1","60aad516e34718d318bfb44d","2","1","2025-07-23T09:50:15.399Z","","","","","","","","","","","MotivationQ","","50","","","","","","","","","","","","","","","","","","","","","","","","","","","","",""
"","","","","ctl-task-cpt","54","1039439","0.0-5.0-0.9","204","1","2025-07-23 09:33:37","1f75c3e559b7213887762d5229550c2b","156.155.58.187","Mozilla/5.0 (Windows NT 10.0; Win64; x64) AppleWebKit/537.36 (KHTML, like Gecko) Chrome/138.0.0.0 Safari/537.36","WebKit","Chrome","138.0.0.0","Windows","10.0","https://app.prolific.com/","en-US,en;q=0.9","60aad516e34718d318bfb44d","683db9eb0562dbf637994deb","6880ac668e5547734dfbe043","2","1","60aad516e34718d318bfb44d","2","1","2025-07-23T09:50:56.734Z","","","","","","","","","","","","","","win-only","1","g1:NE,g2:SW","0.4","10","0","1000120.1","3403.4","8407.9","38316.6","1","4","4","6","1","-1","-1","9","10","0.06818181818181818","2700","3000","-3015","[""up"",""right""]","{""num_key_presses"":7,""num_perfect"":3,""num_errors"":0,""num_randdir"":4,""num_randdir_good_moves"":2,""num_whilered"":0,""num_whileblue"":0,""num_blue"":3,""num_good_moves"":5}","[415.3214133126395,416.57142761775424,0.2,415.3214133126395,416.57142761775424,102.4,415.3214133126395,416.57142761775424,203,415.3214133126395,417.82142761775424,306.7,416.5714133126395,419.07142761775424,407.5,362.8214133126395,486.57142761775424,507.6,371.5714133126395,517.8214276177542,612.3,555.3214133126395,322.82142761775424,717.5,556.5714133126395,299.07142761775424,817.5,626.5714133126395,206.57142761775424,922.1,626.5714133126395,206.57142761775424,1022.3,631.5714133126395,190.32142761775424,1128.1,639.0714133126395,185.32142761775424,1232.8,639.0714133126395,185.32142761775424,1337.6,639.0714133126395,185.32142761775424,1442.9,639.0714133126395,185.32142761775424,1546.8,639.0714133126395,185.32142761775424,1647,617.8214133126395,155.32142761775424,1752,637.8214133126395,99.07142761775425,1852,691.5714133126395,87.82142761775425,1953.2,752.8214133126395,91.57142761775425,2057,836.5714133126395,87.82142761775425,2157.9,836.5714133126395,87.82142761775425,2262.6,836.5714133126395,87.82142761775425,2363.1,836.5714133126395,87.82142761775425,2467.6,811.5714133126395,75.32142761775425,2572.5,801.5714133126395,69.07142761775425,2678,800.3214133126395,67.82142761775425,2783,800.3214133126395,69.07142761775425,2883.3,807.8214133126395,81.57142761775425,2986.9,910.3214133126395,226.57142761775424,3088.1,1005.3214133126395,320.32142761775424,3192.3,1006.5714133126395,321.57142761775424,3292.3,1006.5714133126395,321.57142761775424,3393.4,1006.5714133126395,321.57142761775424,3497.5,1006.5714133126395,321.57142761775424,3598,1006.5714133126395,321.57142761775424,3702.2,1006.5714133126395,321.57142761775424,3802.9,1006.5714133126395,321.57142761775424,3907.3,1006.5714133126395,321.57142761775424,4011.8,1006.5714133126395,321.57142761775424,4112.8,1006.5714133126395,321.57142761775424,4213.6,1006.5714133126395,321.57142761775424,4317,1006.5714133126395,321.57142761775424,4417.5,1006.5714133126395,321.57142761775424,4523.6,1006.5714133126395,321.57142761775424,4627.4,1006.5714133126395,321.57142761775424,4732.8,1006.5714133126395,321.57142761775424,4833,1006.5714133126395,321.57142761775424,4937.3]","[1464.7,1464.7,1000,0,464.7,""smooth"",""up"",""up"",""good_move"",4088.1,2623.1,2267.8,1465,355.3,""smooth"",""up"",""up"",""good_move"",6857.1,2768.9,2394.9,4088.2,374,""oops"",""right"",""right"",""good_move"",16486.7,9629.3,2105,13928.3,453.4,""oops"",""right"",""down"",""bad_move"",18894.6,2407.4,1846.8,16487.2,560.6,""oops"",""right"",""up"",""good_move"",21416.5,2521.6,2138.6,18894.9,383,""oops"",""right"",""left"",""bad_move"",24244.7,2827.8,2343.4,21416.9,484.4,""smooth"",""right"",""right"",""good_move""]","",""
"14976","","<div style=""width:500px;"">
  <p>What determined the result of this run?</p>
  </div>","70","html-slider-response","55","1054416","0.0-5.0-1.9","204","1","2025-07-23 09:33:37","1f75c3e559b7213887762d5229550c2b","156.155.58.187","Mozilla/5.0 (Windows NT 10.0; Win64; x64) AppleWebKit/537.36 (KHTML, like Gecko) Chrome/138.0.0.0 Safari/537.36","WebKit","Chrome","138.0.0.0","Windows","10.0","https://app.prolific.com/","en-US,en;q=0.9","60aad516e34718d318bfb44d","683db9eb0562dbf637994deb","6880ac668e5547734dfbe043","2","1","60aad516e34718d318bfb44d","2","1","2025-07-23T09:51:11.711Z","","","","","","","","","","","AttribQ","","50","","","","","","","","","","","","","","","","","","","","","","","","","","","","",""
"31162","","<div style=""width:500px;"">
  <p>How much control did you have over the ball?</p>
  </div>","40","html-slider-response","56","1085579","0.0-5.0-2.9","204","1","2025-07-23 09:33:37","1f75c3e559b7213887762d5229550c2b","156.155.58.187","Mozilla/5.0 (Windows NT 10.0; Win64; x64) AppleWebKit/537.36 (KHTML, like Gecko) Chrome/138.0.0.0 Safari/537.36","WebKit","Chrome","138.0.0.0","Windows","10.0","https://app.prolific.com/","en-US,en;q=0.9","60aad516e34718d318bfb44d","683db9eb0562dbf637994deb","6880ac668e5547734dfbe043","2","1","60aad516e34718d318bfb44d","2","1","2025-07-23T09:51:42.874Z","","","","","","","","","","","ControlQ","","50","","","","","","","","","","","","","","","","","","","","","","","","","","","","",""
"10529","","<div style=""width:500px;"">
  <p>How would you describe your current emotional state?</p>
  </div>","28","html-slider-response","57","1096109","0.0-5.0-3.9","204","1","2025-07-23 09:33:37","1f75c3e559b7213887762d5229550c2b","156.155.58.187","Mozilla/5.0 (Windows NT 10.0; Win64; x64) AppleWebKit/537.36 (KHTML, like Gecko) Chrome/138.0.0.0 Safari/537.36","WebKit","Chrome","138.0.0.0","Windows","10.0","https://app.prolific.com/","en-US,en;q=0.9","60aad516e34718d318bfb44d","683db9eb0562dbf637994deb","6880ac668e5547734dfbe043","2","1","60aad516e34718d318bfb44d","2","1","2025-07-23T09:51:53.405Z","","","","","","","","","","","StressQ","","50","","","","","","","","","","","","","","","","","","","","","","","","","","","","",""
"8129","","<div style=""width:500px;"">
  <p>What best describes how you currently feel?</p>
  </div>","81","html-slider-response","58","1104239","0.0-5.0-4.9","204","1","2025-07-23 09:33:37","1f75c3e559b7213887762d5229550c2b","156.155.58.187","Mozilla/5.0 (Windows NT 10.0; Win64; x64) AppleWebKit/537.36 (KHTML, like Gecko) Chrome/138.0.0.0 Safari/537.36","WebKit","Chrome","138.0.0.0","Windows","10.0","https://app.prolific.com/","en-US,en;q=0.9","60aad516e34718d318bfb44d","683db9eb0562dbf637994deb","6880ac668e5547734dfbe043","2","1","60aad516e34718d318bfb44d","2","1","2025-07-23T09:52:01.534Z","","","","","","","","","","","MotivationQ","","50","","","","","","","","","","","","","","","","","","","","","","","","","","","","",""
"","","","","ctl-task-cpt","59","1139139","0.0-5.0-0.10","204","1","2025-07-23 09:33:37","1f75c3e559b7213887762d5229550c2b","156.155.58.187","Mozilla/5.0 (Windows NT 10.0; Win64; x64) AppleWebKit/537.36 (KHTML, like Gecko) Chrome/138.0.0.0 Safari/537.36","WebKit","Chrome","138.0.0.0","Windows","10.0","https://app.prolific.com/","en-US,en;q=0.9","60aad516e34718d318bfb44d","683db9eb0562dbf637994deb","6880ac668e5547734dfbe043","2","1","60aad516e34718d318bfb44d","2","1","2025-07-23T09:52:36.434Z","","","","","","","","","","","","","","win-only","0","g1:NW,g2:SE","0.5","11","0","1106254.6","2563.7","7565.8","31882.2","1","4","4","6","1","-1","-1","8","9","0.06060606060606061","1117.8","3000","-3005","[""left"",""up""]","{""num_key_presses"":6,""num_perfect"":2,""num_errors"":0,""num_randdir"":4,""num_randdir_good_moves"":1,""num_whilered"":0,""num_whileblue"":0,""num_blue"":1,""num_good_moves"":3}","[416.5714133126395,407.82142761775424,0.4,416.5714133126395,407.82142761775424,102.5,416.5714133126395,407.82142761775424,206.7,416.5714133126395,407.82142761775424,306.7,416.5714133126395,407.82142761775424,407.5,415.3214133126395,410.32142761775424,512.7,414.0714133126395,411.57142761775424,616.5,265.3214133126395,237.82142761775424,717.1,90.3214133126395,50.32142761775425,822.5,90.3214133126395,56.57142761775425,922.5,90.3214133126395,57.82142761775425,1026.9,89.0714133126395,61.57142761775425,1127.2,89.0714133126395,61.57142761775425,1227.6,91.5714133126395,71.57142761775425,1332,379.0714133126395,252.82142761775424,1436.9,546.5714133126395,336.57142761775424,1537,552.8214133126395,341.57142761775424,1637.5,559.0714133126395,349.07142761775424,1737.6,559.0714133126395,350.32142761775424,1842.4,559.0714133126395,350.32142761775424,1942.7,559.0714133126395,350.32142761775424,2047.3,559.0714133126395,350.32142761775424,2147.3,559.0714133126395,350.32142761775424,2252.4,559.0714133126395,350.32142761775424,2352.6,559.0714133126395,350.32142761775424,2456.8,559.0714133126395,350.32142761775424,2557.2,559.0714133126395,350.32142761775424,2657.6,559.0714133126395,350.32142761775424,2759.6,559.0714133126395,350.32142761775424,2862.4,559.0714133126395,350.32142761775424,2962.5,559.0714133126395,350.32142761775424,3067.1,559.0714133126395,350.32142761775424,3167.3,559.0714133126395,350.32142761775424,3271.7,559.0714133126395,350.32142761775424,3372.1,559.0714133126395,350.32142761775424,3472.3,559.0714133126395,350.32142761775424,3572.6,559.0714133126395,350.32142761775424,3673.3,559.0714133126395,350.32142761775424,3776.8,559.0714133126395,350.32142761775424,3877.1,559.0714133126395,350.32142761775424,3977.3,559.0714133126395,350.32142761775424,4082.4,559.0714133126395,350.32142761775424,4182.7,559.0714133126395,350.32142761775424,4286.7,559.0714133126395,350.32142761775424,4392.4,559.0714133126395,350.32142761775424,4497.4,559.0714133126395,350.32142761775424,4602.6,559.0714133126395,350.32142761775424,4702.6,559.0714133126395,350.32142761775424,4807.4,559.0714133126395,350.32142761775424,4907.6]","[1524.3,1524.3,1000,0,524.3,""smooth"",""up"",""up"",""good_move"",6856.5,5331.8,2221,1524.7,3110.8,""oops"",""up"",""up"",""good_move"",9630.1,2773.5,2388.2,6856.6,385.3,""oops"",""left"",""right"",""bad_move"",15694.6,6064.3,2447,12891.8,355.8,""oops"",""left"",""right"",""bad_move"",18888.5,3193.6,2712.1,15694.9,481.5,""smooth"",""left"",""left"",""good_move"",21758,2869.3,2390.3,18888.8,479,""oops"",""left"",""right"",""bad_move""]","",""
"13079","","<div style=""width:500px;"">
  <p>What determined the result of this run?</p>
  </div>","10","html-slider-response","60","1152218","0.0-5.0-1.10","204","1","2025-07-23 09:33:37","1f75c3e559b7213887762d5229550c2b","156.155.58.187","Mozilla/5.0 (Windows NT 10.0; Win64; x64) AppleWebKit/537.36 (KHTML, like Gecko) Chrome/138.0.0.0 Safari/537.36","WebKit","Chrome","138.0.0.0","Windows","10.0","https://app.prolific.com/","en-US,en;q=0.9","60aad516e34718d318bfb44d","683db9eb0562dbf637994deb","6880ac668e5547734dfbe043","2","1","60aad516e34718d318bfb44d","2","1","2025-07-23T09:52:49.514Z","","","","","","","","","","","AttribQ","","50","","","","","","","","","","","","","","","","","","","","","","","","","","","","",""
"13761","","<div style=""width:500px;"">
  <p>How much control did you have over the ball?</p>
  </div>","3","html-slider-response","61","1165981","0.0-5.0-2.10","204","1","2025-07-23 09:33:37","1f75c3e559b7213887762d5229550c2b","156.155.58.187","Mozilla/5.0 (Windows NT 10.0; Win64; x64) AppleWebKit/537.36 (KHTML, like Gecko) Chrome/138.0.0.0 Safari/537.36","WebKit","Chrome","138.0.0.0","Windows","10.0","https://app.prolific.com/","en-US,en;q=0.9","60aad516e34718d318bfb44d","683db9eb0562dbf637994deb","6880ac668e5547734dfbe043","2","1","60aad516e34718d318bfb44d","2","1","2025-07-23T09:53:03.276Z","","","","","","","","","","","ControlQ","","50","","","","","","","","","","","","","","","","","","","","","","","","","","","","",""
"19124","","<div style=""width:500px;"">
  <p>How would you describe your current emotional state?</p>
  </div>","31","html-slider-response","62","1185105","0.0-5.0-3.10","204","1","2025-07-23 09:33:37","1f75c3e559b7213887762d5229550c2b","156.155.58.187","Mozilla/5.0 (Windows NT 10.0; Win64; x64) AppleWebKit/537.36 (KHTML, like Gecko) Chrome/138.0.0.0 Safari/537.36","WebKit","Chrome","138.0.0.0","Windows","10.0","https://app.prolific.com/","en-US,en;q=0.9","60aad516e34718d318bfb44d","683db9eb0562dbf637994deb","6880ac668e5547734dfbe043","2","1","60aad516e34718d318bfb44d","2","1","2025-07-23T09:53:22.401Z","","","","","","","","","","","StressQ","","50","","","","","","","","","","","","","","","","","","","","","","","","","","","","",""
"19822","","<div style=""width:500px;"">
  <p>What best describes how you currently feel?</p>
  </div>","78","html-slider-response","63","1204928","0.0-5.0-4.10","204","1","2025-07-23 09:33:37","1f75c3e559b7213887762d5229550c2b","156.155.58.187","Mozilla/5.0 (Windows NT 10.0; Win64; x64) AppleWebKit/537.36 (KHTML, like Gecko) Chrome/138.0.0.0 Safari/537.36","WebKit","Chrome","138.0.0.0","Windows","10.0","https://app.prolific.com/","en-US,en;q=0.9","60aad516e34718d318bfb44d","683db9eb0562dbf637994deb","6880ac668e5547734dfbe043","2","1","60aad516e34718d318bfb44d","2","1","2025-07-23T09:53:42.223Z","","","","","","","","","","","MotivationQ","","50","","","","","","","","","","","","","","","","","","","","","","","","","","","","",""
"","","","","ctl-task-cpt","64","1230092","0.0-5.0-0.11","204","1","2025-07-23 09:33:37","1f75c3e559b7213887762d5229550c2b","156.155.58.187","Mozilla/5.0 (Windows NT 10.0; Win64; x64) AppleWebKit/537.36 (KHTML, like Gecko) Chrome/138.0.0.0 Safari/537.36","WebKit","Chrome","138.0.0.0","Windows","10.0","https://app.prolific.com/","en-US,en;q=0.9","60aad516e34718d318bfb44d","683db9eb0562dbf637994deb","6880ac668e5547734dfbe043","2","1","60aad516e34718d318bfb44d","2","1","2025-07-23T09:54:07.387Z","","","","","","","","","","","","","","win-only","3","g1:SW,g2:NE","0.6","12","0","1206943.5","6711.4","11711.7","22145.1","1","4","8","6","1","1","1","9","8","0.06818181818181818","1057.7","3000","1210","[""down"",""left""]","{""num_key_presses"":4,""num_perfect"":4,""num_errors"":0,""num_randdir"":0,""num_randdir_good_moves"":0,""num_whilered"":0,""num_whileblue"":0,""num_blue"":0,""num_good_moves"":4}","[416.5714133126395,412.82142761775424,0.3,416.5714133126395,411.57142761775424,104.7,416.5714133126395,412.82142761775424,209.1,416.5714133126395,412.82142761775424,310.8,416.5714133126395,414.07142761775424,414.9,380.3214133126395,504.07142761775424,518.8,244.0714133126395,682.8214276177542,619.8,112.8214133126395,767.8214276177542,724.3,106.5714133126395,776.5714276177542,824.4,106.5714133126395,781.5714276177542,925.2,106.5714133126395,781.5714276177542,1029.6,106.5714133126395,781.5714276177542,1130.4,106.5714133126395,781.5714276177542,1234.1,111.5714133126395,780.3214276177542,1334.1,276.5714133126395,782.8214276177542,1439.7,722.8214133126395,775.3214276177542,1543.9,1021.5714133126395,661.5714276177542,1644.1,1156.5714133126396,579.0714276177542,1744.1,1156.5714133126396,579.0714276177542,1849.2,1156.5714133126396,579.0714276177542,1949.7,1156.5714133126396,579.0714276177542,2053.8,1156.5714133126396,579.0714276177542,2154.8,1156.5714133126396,579.0714276177542,2260,1156.5714133126396,579.0714276177542,2364.5,1156.5714133126396,579.0714276177542,2469.3,1156.5714133126396,579.0714276177542,2569.9,1156.5714133126396,579.0714276177542,2670.4,1156.5714133126396,579.0714276177542,2774.2,1156.5714133126396,579.0714276177542,2879.7,1156.5714133126396,579.0714276177542,2980.4,1156.5714133126396,579.0714276177542,3084.6,1156.5714133126396,579.0714276177542,3188.8,1156.5714133126396,579.0714276177542,3289.1,1156.5714133126396,579.0714276177542,3390.5,1156.5714133126396,579.0714276177542,3490.5,1156.5714133126396,579.0714276177542,3594.6,1156.5714133126396,579.0714276177542,3698.7,1156.5714133126396,579.0714276177542,3801.6,1156.5714133126396,579.0714276177542,3905,1156.5714133126396,579.0714276177542,4010.1,1156.5714133126396,579.0714276177542,4114.3,1156.5714133126396,579.0714276177542,4219.8,1156.5714133126396,579.0714276177542,4324.3,1156.5714133126396,579.0714276177542,4424.7,1156.5714133126396,579.0714276177542,4529.5,1156.5714133126396,579.0714276177542,4634.5,1156.5714133126396,579.0714276177542,4739.5,1156.5714133126396,579.0714276177542,4839.7,1156.5714133126396,579.0714276177542,4945.2]","[1530,1530,1000,0,530,""smooth"",""down"",""down"",""good_move"",3743.8,2213.4,1835.7,1530.4,377.7,""smooth"",""down"",""down"",""good_move"",7001.4,3257.3,2721.4,3744.1,535.9,""smooth"",""left"",""left"",""good_move"",10345.3,3343.7,2955.5,7001.6,388.2,""smooth"",""left"",""left"",""good_move""]","",""
"13155","","<div style=""width:500px;"">
  <p>What determined the result of this run?</p>
  </div>","60","html-slider-response","65","1243247","0.0-5.0-1.11","204","1","2025-07-23 09:33:37","1f75c3e559b7213887762d5229550c2b","156.155.58.187","Mozilla/5.0 (Windows NT 10.0; Win64; x64) AppleWebKit/537.36 (KHTML, like Gecko) Chrome/138.0.0.0 Safari/537.36","WebKit","Chrome","138.0.0.0","Windows","10.0","https://app.prolific.com/","en-US,en;q=0.9","60aad516e34718d318bfb44d","683db9eb0562dbf637994deb","6880ac668e5547734dfbe043","2","1","60aad516e34718d318bfb44d","2","1","2025-07-23T09:54:20.543Z","","","","","","","","","","","AttribQ","","50","","","","","","","","","","","","","","","","","","","","","","","","","","","","",""
"9239","","<div style=""width:500px;"">
  <p>How much control did you have over the ball?</p>
  </div>","65","html-slider-response","66","1252488","0.0-5.0-2.11","204","1","2025-07-23 09:33:37","1f75c3e559b7213887762d5229550c2b","156.155.58.187","Mozilla/5.0 (Windows NT 10.0; Win64; x64) AppleWebKit/537.36 (KHTML, like Gecko) Chrome/138.0.0.0 Safari/537.36","WebKit","Chrome","138.0.0.0","Windows","10.0","https://app.prolific.com/","en-US,en;q=0.9","60aad516e34718d318bfb44d","683db9eb0562dbf637994deb","6880ac668e5547734dfbe043","2","1","60aad516e34718d318bfb44d","2","1","2025-07-23T09:54:29.783Z","","","","","","","","","","","ControlQ","","50","","","","","","","","","","","","","","","","","","","","","","","","","","","","",""
"9321","","<div style=""width:500px;"">
  <p>How would you describe your current emotional state?</p>
  </div>","23","html-slider-response","67","1261810","0.0-5.0-3.11","204","1","2025-07-23 09:33:37","1f75c3e559b7213887762d5229550c2b","156.155.58.187","Mozilla/5.0 (Windows NT 10.0; Win64; x64) AppleWebKit/537.36 (KHTML, like Gecko) Chrome/138.0.0.0 Safari/537.36","WebKit","Chrome","138.0.0.0","Windows","10.0","https://app.prolific.com/","en-US,en;q=0.9","60aad516e34718d318bfb44d","683db9eb0562dbf637994deb","6880ac668e5547734dfbe043","2","1","60aad516e34718d318bfb44d","2","1","2025-07-23T09:54:39.105Z","","","","","","","","","","","StressQ","","50","","","","","","","","","","","","","","","","","","","","","","","","","","","","",""
"9659","","<div style=""width:500px;"">
  <p>What best describes how you currently feel?</p>
  </div>","74","html-slider-response","68","1271470","0.0-5.0-4.11","204","1","2025-07-23 09:33:37","1f75c3e559b7213887762d5229550c2b","156.155.58.187","Mozilla/5.0 (Windows NT 10.0; Win64; x64) AppleWebKit/537.36 (KHTML, like Gecko) Chrome/138.0.0.0 Safari/537.36","WebKit","Chrome","138.0.0.0","Windows","10.0","https://app.prolific.com/","en-US,en;q=0.9","60aad516e34718d318bfb44d","683db9eb0562dbf637994deb","6880ac668e5547734dfbe043","2","1","60aad516e34718d318bfb44d","2","1","2025-07-23T09:54:48.765Z","","","","","","","","","","","MotivationQ","","50","","","","","","","","","","","","","","","","","","","","","","","","","","","","",""
"","","","","ctl-task-cpt","69","1317191","0.0-5.0-0.12","204","1","2025-07-23 09:33:37","1f75c3e559b7213887762d5229550c2b","156.155.58.187","Mozilla/5.0 (Windows NT 10.0; Win64; x64) AppleWebKit/537.36 (KHTML, like Gecko) Chrome/138.0.0.0 Safari/537.36","WebKit","Chrome","138.0.0.0","Windows","10.0","https://app.prolific.com/","en-US,en;q=0.9","60aad516e34718d318bfb44d","683db9eb0562dbf637994deb","6880ac668e5547734dfbe043","2","1","60aad516e34718d318bfb44d","2","1","2025-07-23T09:55:34.486Z","","","","","","","","","","","","","","win-only","0","g1:NW,g2:SE","0.7","13","0","1273486.2","3433.6","8436","42701.3","1","4","8","6","1","-1","-1","8","9","0.06060606060606061","1544.4","3000","-3015","[""left"",""up""]","{""num_key_presses"":7,""num_perfect"":4,""num_errors"":0,""num_randdir"":3,""num_randdir_good_moves"":1,""num_whilered"":0,""num_whileblue"":0,""num_blue"":3,""num_good_moves"":5}","[426.5714133126395,421.57142761775424,0.2,426.5714133126395,421.57142761775424,102.8,426.5714133126395,421.57142761775424,207,421.5714133126395,421.57142761775424,307.7,381.5714133126395,431.57142761775424,407.7,332.8214133126395,411.57142761775424,512.3,326.5714133126395,376.57142761775424,616.9,304.0714133126395,359.07142761775424,717.4,346.5714133126395,347.82142761775424,818.3,346.5714133126395,347.82142761775424,922.1,346.5714133126395,330.32142761775424,1027.1,32.82141331263951,106.57142761775425,1127.2,19.071413312639507,56.57142761775425,1227.2,12.821413312639507,39.07142761775425,1327.6,67.8214133126395,61.57142761775425,1432.5,69.0714133126395,69.07142761775425,1537.4,69.0714133126395,69.07142761775425,1637.5,69.0714133126395,76.57142761775425,1742.6,196.5714133126395,185.32142761775424,1846.5,689.0714133126395,331.57142761775424,1947.1,1039.0714133126396,381.57142761775424,2047.2,1125.3214133126396,407.82142761775424,2152.2,1189.0714133126396,441.57142761775424,2257,1191.5714133126396,446.57142761775424,2362.2,1191.5714133126396,446.57142761775424,2462.6,1191.5714133126396,446.57142761775424,2567.4,1191.5714133126396,446.57142761775424,2673.3,1191.5714133126396,446.57142761775424,2777.9,1191.5714133126396,446.57142761775424,2881.9,1191.5714133126396,446.57142761775424,2986.8,1191.5714133126396,446.57142761775424,3087.6,1191.5714133126396,446.57142761775424,3187.7,1191.5714133126396,446.57142761775424,3291.7,1191.5714133126396,446.57142761775424,3392.6,1191.5714133126396,446.57142761775424,3498.2,1191.5714133126396,446.57142761775424,3602.2,1191.5714133126396,446.57142761775424,3702.2,1191.5714133126396,446.57142761775424,3807.1,1191.5714133126396,446.57142761775424,3911.6,1191.5714133126396,446.57142761775424,4012.5,1191.5714133126396,446.57142761775424,4112.7,1191.5714133126396,446.57142761775424,4217.2,1191.5714133126396,446.57142761775424,4317.3,1191.5714133126396,446.57142761775424,4422.9,1191.5714133126396,446.57142761775424,4528.2,1191.5714133126396,446.57142761775424,4631.8,1191.5714133126396,446.57142761775424,4737.8,1191.5714133126396,446.57142761775424,4841.9,1191.5714133126396,446.57142761775424,4943.1]","[1466.3,1466.3,1000,0,466.3,""smooth"",""up"",""up"",""good_move"",4072.8,2606.1,2221.8,1466.7,384.3,""smooth"",""up"",""up"",""good_move"",6878.9,2805.7,2456.8,4073.2,348.9,""oops"",""left"",""right"",""bad_move"",19064.7,12185.5,3202.4,15488.1,374.2,""oops"",""left"",""right"",""bad_move"",22468.5,3403.7,2898.1,19064.8,505.7,""smooth"",""left"",""left"",""good_move"",26024.4,3555.5,3041.3,22468.9,514.2,""smooth"",""left"",""left"",""good_move"",28732.2,2707.4,2366,26024.8,341.4,""oops"",""left"",""left"",""good_move""]","",""
"14776","","<div style=""width:500px;"">
  <p>What determined the result of this run?</p>
  </div>","68","html-slider-response","70","1331968","0.0-5.0-1.12","204","1","2025-07-23 09:33:37","1f75c3e559b7213887762d5229550c2b","156.155.58.187","Mozilla/5.0 (Windows NT 10.0; Win64; x64) AppleWebKit/537.36 (KHTML, like Gecko) Chrome/138.0.0.0 Safari/537.36","WebKit","Chrome","138.0.0.0","Windows","10.0","https://app.prolific.com/","en-US,en;q=0.9","60aad516e34718d318bfb44d","683db9eb0562dbf637994deb","6880ac668e5547734dfbe043","2","1","60aad516e34718d318bfb44d","2","1","2025-07-23T09:55:49.263Z","","","","","","","","","","","AttribQ","","50","","","","","","","","","","","","","","","","","","","","","","","","","","","","",""
"11211","","<div style=""width:500px;"">
  <p>How much control did you have over the ball?</p>
  </div>","35","html-slider-response","71","1343180","0.0-5.0-2.12","204","1","2025-07-23 09:33:37","1f75c3e559b7213887762d5229550c2b","156.155.58.187","Mozilla/5.0 (Windows NT 10.0; Win64; x64) AppleWebKit/537.36 (KHTML, like Gecko) Chrome/138.0.0.0 Safari/537.36","WebKit","Chrome","138.0.0.0","Windows","10.0","https://app.prolific.com/","en-US,en;q=0.9","60aad516e34718d318bfb44d","683db9eb0562dbf637994deb","6880ac668e5547734dfbe043","2","1","60aad516e34718d318bfb44d","2","1","2025-07-23T09:56:00.475Z","","","","","","","","","","","ControlQ","","50","","","","","","","","","","","","","","","","","","","","","","","","","","","","",""
"15593","","<div style=""width:500px;"">
  <p>How would you describe your current emotional state?</p>
  </div>","34","html-slider-response","72","1358773","0.0-5.0-3.12","204","1","2025-07-23 09:33:37","1f75c3e559b7213887762d5229550c2b","156.155.58.187","Mozilla/5.0 (Windows NT 10.0; Win64; x64) AppleWebKit/537.36 (KHTML, like Gecko) Chrome/138.0.0.0 Safari/537.36","WebKit","Chrome","138.0.0.0","Windows","10.0","https://app.prolific.com/","en-US,en;q=0.9","60aad516e34718d318bfb44d","683db9eb0562dbf637994deb","6880ac668e5547734dfbe043","2","1","60aad516e34718d318bfb44d","2","1","2025-07-23T09:56:16.069Z","","","","","","","","","","","StressQ","","50","","","","","","","","","","","","","","","","","","","","","","","","","","","","",""
"19049","","<div style=""width:500px;"">
  <p>What best describes how you currently feel?</p>
  </div>","63","html-slider-response","73","1377824","0.0-5.0-4.12","204","1","2025-07-23 09:33:37","1f75c3e559b7213887762d5229550c2b","156.155.58.187","Mozilla/5.0 (Windows NT 10.0; Win64; x64) AppleWebKit/537.36 (KHTML, like Gecko) Chrome/138.0.0.0 Safari/537.36","WebKit","Chrome","138.0.0.0","Windows","10.0","https://app.prolific.com/","en-US,en;q=0.9","60aad516e34718d318bfb44d","683db9eb0562dbf637994deb","6880ac668e5547734dfbe043","2","1","60aad516e34718d318bfb44d","2","1","2025-07-23T09:56:35.119Z","","","","","","","","","","","MotivationQ","","50","","","","","","","","","","","","","","","","","","","","","","","","","","","","",""
"","","","","ctl-task-cpt","74","1400293","0.0-5.0-0.13","204","1","2025-07-23 09:33:37","1f75c3e559b7213887762d5229550c2b","156.155.58.187","Mozilla/5.0 (Windows NT 10.0; Win64; x64) AppleWebKit/537.36 (KHTML, like Gecko) Chrome/138.0.0.0 Safari/537.36","WebKit","Chrome","138.0.0.0","Windows","10.0","https://app.prolific.com/","en-US,en;q=0.9","60aad516e34718d318bfb44d","683db9eb0562dbf637994deb","6880ac668e5547734dfbe043","2","1","60aad516e34718d318bfb44d","2","1","2025-07-23T09:56:57.588Z","","","","","","","","","","","","","","win-only","2","g1:SE,g2:NW","0.8","14","0","1379839.9","3478.2","8482.4","19450.2","1","4","4","6","1","1","1","9","8","0.06818181818181818","1177.1","3000","1515","[""down"",""right""]","{""num_key_presses"":4,""num_perfect"":4,""num_errors"":0,""num_randdir"":0,""num_randdir_good_moves"":0,""num_whilered"":0,""num_whileblue"":0,""num_blue"":0,""num_good_moves"":4}","[414.0714133126395,407.82142761775424,0.3,414.0714133126395,407.82142761775424,102.2,414.0714133126395,407.82142761775424,203.1,411.5714133126395,415.32142761775424,303.5,409.0714133126395,426.57142761775424,407.6,436.5714133126395,506.57142761775424,508,516.5714133126395,616.5714276177542,612.9,586.5714133126395,661.5714276177542,716.9,680.3214133126395,740.3214276177542,817,711.5714133126395,761.5714276177542,917.9,756.5714133126395,770.3214276177542,1018.2,776.5714133126395,772.8214276177542,1119.3,779.0714133126395,772.8214276177542,1223,779.0714133126395,772.8214276177542,1323.2,779.0714133126395,771.5714276177542,1428.3,852.8214133126395,814.0714276177542,1532.1,902.8214133126395,831.5714276177542,1632.9,914.0714133126395,837.8214276177542,1733.3,1011.5714133126395,859.0714276177542,1837.1,1096.5714133126396,832.8214276177542,1937.7,1104.0714133126396,786.5714276177542,2037.7,1106.5714133126396,766.5714276177542,2143.5,1106.5714133126396,764.0714276177542,2243.7,1105.3214133126396,762.8214276177542,2347.2,1105.3214133126396,762.8214276177542,2447.6,1105.3214133126396,762.8214276177542,2547.6,1105.3214133126396,762.8214276177542,2652.7,1105.3214133126396,762.8214276177542,2758.2,1105.3214133126396,762.8214276177542,2863.4,1105.3214133126396,762.8214276177542,2967.7,1105.3214133126396,762.8214276177542,3067.7,1105.3214133126396,762.8214276177542,3172.2,1105.3214133126396,762.8214276177542,3273.5,1105.3214133126396,762.8214276177542,4542.2,1105.3214133126396,762.8214276177542,4656.4,1105.3214133126396,762.8214276177542,4757.8,1105.3214133126396,762.8214276177542,4857.8,1105.3214133126396,762.8214276177542,4958.2]","[1491.3,1491.3,1000,0,491.3,""smooth"",""down"",""down"",""good_move"",4223.1,2731.4,2408.1,1491.7,323.3,""smooth"",""down"",""down"",""good_move"",7894.7,3671.4,3291.3,4223.3,380.1,""smooth"",""right"",""right"",""good_move"",10879.1,2984.2,2669,7894.9,315.2,""smooth"",""right"",""right"",""good_move""]","",""
"11880","","<div style=""width:500px;"">
  <p>What determined the result of this run?</p>
  </div>","8","html-slider-response","75","1412175","0.0-5.0-1.13","204","1","2025-07-23 09:33:37","1f75c3e559b7213887762d5229550c2b","156.155.58.187","Mozilla/5.0 (Windows NT 10.0; Win64; x64) AppleWebKit/537.36 (KHTML, like Gecko) Chrome/138.0.0.0 Safari/537.36","WebKit","Chrome","138.0.0.0","Windows","10.0","https://app.prolific.com/","en-US,en;q=0.9","60aad516e34718d318bfb44d","683db9eb0562dbf637994deb","6880ac668e5547734dfbe043","2","1","60aad516e34718d318bfb44d","2","1","2025-07-23T09:57:09.470Z","","","","","","","","","","","AttribQ","","50","","","","","","","","","","","","","","","","","","","","","","","","","","","","",""
"10229","","<div style=""width:500px;"">
  <p>How much control did you have over the ball?</p>
  </div>","89","html-slider-response","76","1422405","0.0-5.0-2.13","204","1","2025-07-23 09:33:37","1f75c3e559b7213887762d5229550c2b","156.155.58.187","Mozilla/5.0 (Windows NT 10.0; Win64; x64) AppleWebKit/537.36 (KHTML, like Gecko) Chrome/138.0.0.0 Safari/537.36","WebKit","Chrome","138.0.0.0","Windows","10.0","https://app.prolific.com/","en-US,en;q=0.9","60aad516e34718d318bfb44d","683db9eb0562dbf637994deb","6880ac668e5547734dfbe043","2","1","60aad516e34718d318bfb44d","2","1","2025-07-23T09:57:19.700Z","","","","","","","","","","","ControlQ","","50","","","","","","","","","","","","","","","","","","","","","","","","","","","","",""
"18846","","<div style=""width:500px;"">
  <p>How would you describe your current emotional state?</p>
  </div>","24","html-slider-response","77","1441252","0.0-5.0-3.13","204","1","2025-07-23 09:33:37","1f75c3e559b7213887762d5229550c2b","156.155.58.187","Mozilla/5.0 (Windows NT 10.0; Win64; x64) AppleWebKit/537.36 (KHTML, like Gecko) Chrome/138.0.0.0 Safari/537.36","WebKit","Chrome","138.0.0.0","Windows","10.0","https://app.prolific.com/","en-US,en;q=0.9","60aad516e34718d318bfb44d","683db9eb0562dbf637994deb","6880ac668e5547734dfbe043","2","1","60aad516e34718d318bfb44d","2","1","2025-07-23T09:57:38.547Z","","","","","","","","","","","StressQ","","50","","","","","","","","","","","","","","","","","","","","","","","","","","","","",""
"8369","","<div style=""width:500px;"">
  <p>What best describes how you currently feel?</p>
  </div>","73","html-slider-response","78","1449622","0.0-5.0-4.13","204","1","2025-07-23 09:33:37","1f75c3e559b7213887762d5229550c2b","156.155.58.187","Mozilla/5.0 (Windows NT 10.0; Win64; x64) AppleWebKit/537.36 (KHTML, like Gecko) Chrome/138.0.0.0 Safari/537.36","WebKit","Chrome","138.0.0.0","Windows","10.0","https://app.prolific.com/","en-US,en;q=0.9","60aad516e34718d318bfb44d","683db9eb0562dbf637994deb","6880ac668e5547734dfbe043","2","1","60aad516e34718d318bfb44d","2","1","2025-07-23T09:57:46.917Z","","","","","","","","","","","MotivationQ","","50","","","","","","","","","","","","","","","","","","","","","","","","","","","","",""
