"rt","response_timestamp","stimulus","response","trial_type","trial_index","time_elapsed","internal_node_id","run_id","condition","recorded_at","source_code_version","ip","user_agent","device","browser","browser_version","platform","platform_version","referer","accept_language","PROLIFIC_PID","STUDY_ID","SESSION_ID","WEEK","BATCH","prolific_id","week","batch","realtime","success","responses","item_order","radio_event_ids","radio_event_times","key_event_times","mouse_event_times","straightlining","zigzagging","honeypot","eventType","view_history","slider_start","which_type","canvas_config","goals_layout","control_level","trial_number","tutorial_trial_number","trial_start_time","phase1_start_time","phase2_start_time","phase3_start_time","goal_1_value","goal_1_distance","goal_2_value","goal_2_distance","goal_selected","outcome","outcome_total","participant_final_score","participant_initial_score","participant_final_score_prop","goal_choice_rt","allocated_time","allocated_time_remaining","goal_direction","counts","mouse_movements","key_presses","question_order","question_id"
"2598","1753267705532","<p style='font-size:40px;line-height:1.25'><strong>Welcome to the experiment!</strong></p><p style='font-size:1.1em;line-height:1.25'>Thank you for participanting in our experiment again! You will be asked to play the Dysfunctional Ball Game again. We will briefly recap the rules before we start.</p><p style='font-size:1.1em;line-height:1.25'>Press <strong>Next</strong> to continue.</p>","0","custom-html-button-response","0","2599","0.0-0.0","211","1","2025-07-23 10:48:22","1f75c3e559b7213887762d5229550c2b","89.154.153.225","Mozilla/5.0 (Macintosh; Intel Mac OS X 10_15_7) AppleWebKit/537.36 (KHTML, like Gecko) Chrome/138.0.0.0 Safari/537.36","Macintosh","Chrome","138.0.0.0","OS X","10_15_7","https://app.prolific.com/","pt-PT,pt;q=0.9,en-US;q=0.8,en;q=0.7,ca;q=0.6,fr;q=0.5,de;q=0.4,it;q=0.3","66db15814e7818d8b9593ad5","683dba2a8a9dda3513610c04","6880bc92ae773178346190a6","3","0","66db15814e7818d8b9593ad5","3","0","2025-07-23T10:48:25.534Z","","","","","","","","","","","","","","","","","","","","","","","","","","","","","","","","","","","","","","","","","",""
"3405","","","","fullscreen","1","7008","0.0-1.0","211","1","2025-07-23 10:48:22","1f75c3e559b7213887762d5229550c2b","89.154.153.225","Mozilla/5.0 (Macintosh; Intel Mac OS X 10_15_7) AppleWebKit/537.36 (KHTML, like Gecko) Chrome/138.0.0.0 Safari/537.36","Macintosh","Chrome","138.0.0.0","OS X","10_15_7","https://app.prolific.com/","pt-PT,pt;q=0.9,en-US;q=0.8,en;q=0.7,ca;q=0.6,fr;q=0.5,de;q=0.4,it;q=0.3","66db15814e7818d8b9593ad5","683dba2a8a9dda3513610c04","6880bc92ae773178346190a6","3","0","66db15814e7818d8b9593ad5","3","0","","true","","","","","","","","","","","","","","","","","","","","","","","","","","","","","","","","","","","","","","","","",""
"2308","1753267712252","<p style='font-size:1.1em;line-height:1.25'>In the following, we will ask you a few questions relating to your feelings in the last 24 hours.<br></p><p style='font-size:1.1em;line-height:1.25'>Press the <strong>Next</strong> button to continue.</p>","0","custom-html-button-response","2","9318","0.0-2.0-0.0","211","1","2025-07-23 10:48:22","1f75c3e559b7213887762d5229550c2b","89.154.153.225","Mozilla/5.0 (Macintosh; Intel Mac OS X 10_15_7) AppleWebKit/537.36 (KHTML, like Gecko) Chrome/138.0.0.0 Safari/537.36","Macintosh","Chrome","138.0.0.0","OS X","10_15_7","https://app.prolific.com/","pt-PT,pt;q=0.9,en-US;q=0.8,en;q=0.7,ca;q=0.6,fr;q=0.5,de;q=0.4,it;q=0.3","66db15814e7818d8b9593ad5","683dba2a8a9dda3513610c04","6880bc92ae773178346190a6","3","0","66db15814e7818d8b9593ad5","3","0","2025-07-23T10:48:32.252Z","","","","","","","","","","","","","","","","","","","","","","","","","","","","","","","","","","","","","","","","","",""
"53589.30000001192","","","","survey-template","3","62911","0.0-2.0-1.0","211","1","2025-07-23 10:48:22","1f75c3e559b7213887762d5229550c2b","89.154.153.225","Mozilla/5.0 (Macintosh; Intel Mac OS X 10_15_7) AppleWebKit/537.36 (KHTML, like Gecko) Chrome/138.0.0.0 Safari/537.36","Macintosh","Chrome","138.0.0.0","OS X","10_15_7","https://app.prolific.com/","pt-PT,pt;q=0.9,en-US;q=0.8,en;q=0.7,ca;q=0.6,fr;q=0.5,de;q=0.4,it;q=0.3","66db15814e7818d8b9593ad5","683dba2a8a9dda3513610c04","6880bc92ae773178346190a6","3","0","66db15814e7818d8b9593ad5","3","0","2025-07-23T10:49:25.845Z","","{""Q01"":""1"",""Q02"":""1"",""Q03"":""0"",""Q04"":""1"",""Q05"":""0"",""Q06"":""1"",""Q07"":""1"",""Q08"":""0"",""Q09"":""0"",""Q10"":""1"",""Q11"":""1"",""Q12"":""2"",""Q13"":""5"",""Q14"":""2"",""Q15"":""1"",""Q16"":""0"",""Q17"":""1"",""Q18"":""1"",""Q19"":""1"",""Q20"":""0"",""Q21"":""0"",""Q22"":""0""}","[0,1,2,3,4,5,6,7,8,9,10,11,12,13,14,15,16,17,18,19,20,21]","[""Q01"",""Q02"",""Q03"",""Q04"",""Q05"",""Q06"",""Q07"",""Q08"",""Q09"",""Q10"",""Q11"",""Q12"",""Q13"",""Q14"",""Q15"",""Q16"",""Q17"",""Q18"",""Q19"",""Q20"",""Q21"",""Q22""]","[3032.800000011921,4682.800000011921,6184.0999999940395,7106.5,8281.699999988079,10001.199999988079,11410.5,12564.59999999404,13807.90000000596,15497.09999999404,16950.69999998808,19515.80000001192,21934,26116.69999998808,31984,36559.59999999404,38157.59999999404,39434.80000001192,46678.19999998808,50131.40000000596,50785.69999998808,52348.19999998808]","[]","[0.09999999403953552,3032.800000011921,3796.699999988079,4682.800000011921,5561.0999999940395,6184.0999999940395,7106.5,8281.699999988079,10001.199999988079,11410.5,12564.59999999404,13807.90000000596,15497.09999999404,16950.69999998808,19515.80000001192,21934,26116.69999998808,31984,36559.59999999404,38157.59999999404,39434.80000001192,46678.19999998808,50131.40000000596,50785.69999998808,51573.59999999404,52348.19999998808,53582.80000001192]","0.5","0.5238095238095238","0","drsp","","","","","","","","","","","","","","","","","","","","","","","","","","","","","","",""
"12208.90000000596","","","","survey-template","4","75123","0.0-2.0-2.0","211","1","2025-07-23 10:48:22","1f75c3e559b7213887762d5229550c2b","89.154.153.225","Mozilla/5.0 (Macintosh; Intel Mac OS X 10_15_7) AppleWebKit/537.36 (KHTML, like Gecko) Chrome/138.0.0.0 Safari/537.36","Macintosh","Chrome","138.0.0.0","OS X","10_15_7","https://app.prolific.com/","pt-PT,pt;q=0.9,en-US;q=0.8,en;q=0.7,ca;q=0.6,fr;q=0.5,de;q=0.4,it;q=0.3","66db15814e7818d8b9593ad5","683dba2a8a9dda3513610c04","6880bc92ae773178346190a6","3","0","66db15814e7818d8b9593ad5","3","0","2025-07-23T10:49:38.057Z","","{""Q01"":""1"",""Q02"":""2"",""Q03"":""0""}","[0,1,2]","[""Q01"",""Q02"",""Q03""]","[3260.5999999940395,6554.5999999940395,10174.5]","[]","[3260.5999999940395,6554.5999999940395,10174.5,12208]","0.3333333333333333","0","0","stress","","","","","","","","","","","","","","","","","","","","","","","","","","","","","","",""
"25018","","","","instructions","5","100142","0.0-3.0-0.0","211","1","2025-07-23 10:48:22","1f75c3e559b7213887762d5229550c2b","89.154.153.225","Mozilla/5.0 (Macintosh; Intel Mac OS X 10_15_7) AppleWebKit/537.36 (KHTML, like Gecko) Chrome/138.0.0.0 Safari/537.36","Macintosh","Chrome","138.0.0.0","OS X","10_15_7","https://app.prolific.com/","pt-PT,pt;q=0.9,en-US;q=0.8,en;q=0.7,ca;q=0.6,fr;q=0.5,de;q=0.4,it;q=0.3","66db15814e7818d8b9593ad5","683dba2a8a9dda3513610c04","6880bc92ae773178346190a6","3","0","66db15814e7818d8b9593ad5","3","0","","","","","","","","","","","","","[{""page_index"":0,""viewing_time"":25017}]","","","","","","","","","","","","","","","","","","","","","","","","","","","","","",""
"6612","","<p>Before you start with this game please answer the following three questions yourself. </p>
  <p>Through this game, we measure several aspects of your cognitive performance, such as reaction times, multi-tasking capabilities </p>
  <p>and the ability to assess the situation you are in.</p>
  <p></p>
  <p><b>How good do you usually are in such tasks?</b></p>","46","html-slider-response","6","106756","0.0-4.0-0.0","211","1","2025-07-23 10:48:22","1f75c3e559b7213887762d5229550c2b","89.154.153.225","Mozilla/5.0 (Macintosh; Intel Mac OS X 10_15_7) AppleWebKit/537.36 (KHTML, like Gecko) Chrome/138.0.0.0 Safari/537.36","Macintosh","Chrome","138.0.0.0","OS X","10_15_7","https://app.prolific.com/","pt-PT,pt;q=0.9,en-US;q=0.8,en;q=0.7,ca;q=0.6,fr;q=0.5,de;q=0.4,it;q=0.3","66db15814e7818d8b9593ad5","683dba2a8a9dda3513610c04","6880bc92ae773178346190a6","3","0","66db15814e7818d8b9593ad5","3","0","2025-07-23T10:50:09.690Z","","","","","","","","","","","PreSkillQ","","50","","","","","","","","","","","","","","","","","","","","","","","","","","","","",""
"2618","","<div style=""width:500px;"">
  <p>How well do you think you will perform in this task compared to other participants?</p>
  </div>","38","html-slider-response","7","109375","0.0-4.0-1.0","211","1","2025-07-23 10:48:22","1f75c3e559b7213887762d5229550c2b","89.154.153.225","Mozilla/5.0 (Macintosh; Intel Mac OS X 10_15_7) AppleWebKit/537.36 (KHTML, like Gecko) Chrome/138.0.0.0 Safari/537.36","Macintosh","Chrome","138.0.0.0","OS X","10_15_7","https://app.prolific.com/","pt-PT,pt;q=0.9,en-US;q=0.8,en;q=0.7,ca;q=0.6,fr;q=0.5,de;q=0.4,it;q=0.3","66db15814e7818d8b9593ad5","683dba2a8a9dda3513610c04","6880bc92ae773178346190a6","3","0","66db15814e7818d8b9593ad5","3","0","2025-07-23T10:50:12.309Z","","","","","","","","","","","PrePerfQ","","50","","","","","","","","","","","","","","","","","","","","","","","","","","","","",""
"2781","","<div style=""width:500px;"">
  <p>What best describes how you currently feel?</p>
  </div>","54","html-slider-response","8","112158","0.0-4.0-2.0","211","1","2025-07-23 10:48:22","1f75c3e559b7213887762d5229550c2b","89.154.153.225","Mozilla/5.0 (Macintosh; Intel Mac OS X 10_15_7) AppleWebKit/537.36 (KHTML, like Gecko) Chrome/138.0.0.0 Safari/537.36","Macintosh","Chrome","138.0.0.0","OS X","10_15_7","https://app.prolific.com/","pt-PT,pt;q=0.9,en-US;q=0.8,en;q=0.7,ca;q=0.6,fr;q=0.5,de;q=0.4,it;q=0.3","66db15814e7818d8b9593ad5","683dba2a8a9dda3513610c04","6880bc92ae773178346190a6","3","0","66db15814e7818d8b9593ad5","3","0","2025-07-23T10:50:15.092Z","","","","","","","","","","","PreMotivationQ","","50","","","","","","","","","","","","","","","","","","","","","","","","","","","","",""
"","","","","ctl-task-cpt","9","141763","0.0-5.0-0.0","211","1","2025-07-23 10:48:22","1f75c3e559b7213887762d5229550c2b","89.154.153.225","Mozilla/5.0 (Macintosh; Intel Mac OS X 10_15_7) AppleWebKit/537.36 (KHTML, like Gecko) Chrome/138.0.0.0 Safari/537.36","Macintosh","Chrome","138.0.0.0","OS X","10_15_7","https://app.prolific.com/","pt-PT,pt;q=0.9,en-US;q=0.8,en;q=0.7,ca;q=0.6,fr;q=0.5,de;q=0.4,it;q=0.3","66db15814e7818d8b9593ad5","683dba2a8a9dda3513610c04","6880bc92ae773178346190a6","3","0","66db15814e7818d8b9593ad5","3","0","2025-07-23T10:50:44.697Z","","","","","","","","","","","","","","win-only","3","g1:SW,g2:NE","1","1","0","113270.4","1472","6476.2","26597.7","1","4","4","6","2","4","4","4","0","0.030303030303030304","1368.8","3000","1010","[""up"",""right""]","{""num_key_presses"":6,""num_perfect"":6,""num_errors"":0,""num_randdir"":0,""num_randdir_good_moves"":0,""num_whilered"":0,""num_whileblue"":0,""num_blue"":1,""num_good_moves"":6}","[739,735.796875,0.5,739,735.796875,103.8,739,735.796875,204.1,739,735.796875,309.4,739,735.796875,413.8,739,735.796875,514.3,739,735.796875,618.9,739,735.796875,719.6,821,635.796875,824.6,1199,299.796875,929.3,1239,283.796875,1033.5,1295,237.796875,1134.1,1321,209.796875,1238.8,1321,209.796875,1339.2,1321,209.796875,1439.3,1321,209.796875,1539.5,1405,721.796875,1640,1427,869.796875,1743.8,1427,869.796875,1844.2,1427,869.796875,1944.3,1427,869.796875,2049.4,1427,869.796875,2155,1427,869.796875,2259.2,1427,869.796875,2359.3,1427,869.796875,2464.2,1427,869.796875,2564.4,1427,869.796875,2668.8,1427,869.796875,2769.4,1427,869.796875,2874,1427,869.796875,2974.1,1427,869.796875,3074.1,1427,869.796875,3174.1,1427,869.796875,3279.5,1427,869.796875,3384.1,1427,869.796875,3489.2,1427,869.796875,3589.4,1427,869.796875,3693.5,1427,869.796875,3794,1427,869.796875,3899.3,1427,869.796875,4004.2,1427,869.796875,4109.2,1427,869.796875,4209.2,1427,869.796875,4309.4,1427,869.796875,4409.5,1427,869.796875,4513.9,1427,869.796875,4614.3,1427,869.796875,4714.8,1427,869.796875,4819.5,1427,869.796875,4919.6]","[1380.4,1380.3,1000,0.1,380.3,""smooth"",""up"",""up"",""good_move"",5031.6,3650.7,3309.8,1381,340.8,""smooth"",""up"",""up"",""good_move"",8089.7,3057.9,2767.1,5031.9,290.7,""smooth"",""up"",""up"",""good_move"",10864.6,2774.6,2486.3,8090,288.3,""smooth"",""right"",""right"",""good_move"",13766,2900.8,2613,10865.3,287.7,""smooth"",""right"",""right"",""good_move"",20033.5,6267.2,2496.3,17110,427.2,""smooth"",""right"",""right"",""good_move""]","",""
"1828","","<div style=""width:500px;"">
  <p>What determined the result of this run?</p>
  </div>","77","html-slider-response","10","143592","0.0-5.0-1.0","211","1","2025-07-23 10:48:22","1f75c3e559b7213887762d5229550c2b","89.154.153.225","Mozilla/5.0 (Macintosh; Intel Mac OS X 10_15_7) AppleWebKit/537.36 (KHTML, like Gecko) Chrome/138.0.0.0 Safari/537.36","Macintosh","Chrome","138.0.0.0","OS X","10_15_7","https://app.prolific.com/","pt-PT,pt;q=0.9,en-US;q=0.8,en;q=0.7,ca;q=0.6,fr;q=0.5,de;q=0.4,it;q=0.3","66db15814e7818d8b9593ad5","683dba2a8a9dda3513610c04","6880bc92ae773178346190a6","3","0","66db15814e7818d8b9593ad5","3","0","2025-07-23T10:50:46.526Z","","","","","","","","","","","AttribQ","","50","","","","","","","","","","","","","","","","","","","","","","","","","","","","",""
"2170","","<div style=""width:500px;"">
  <p>How much control did you have over the ball?</p>
  </div>","94","html-slider-response","11","145764","0.0-5.0-2.0","211","1","2025-07-23 10:48:22","1f75c3e559b7213887762d5229550c2b","89.154.153.225","Mozilla/5.0 (Macintosh; Intel Mac OS X 10_15_7) AppleWebKit/537.36 (KHTML, like Gecko) Chrome/138.0.0.0 Safari/537.36","Macintosh","Chrome","138.0.0.0","OS X","10_15_7","https://app.prolific.com/","pt-PT,pt;q=0.9,en-US;q=0.8,en;q=0.7,ca;q=0.6,fr;q=0.5,de;q=0.4,it;q=0.3","66db15814e7818d8b9593ad5","683dba2a8a9dda3513610c04","6880bc92ae773178346190a6","3","0","66db15814e7818d8b9593ad5","3","0","2025-07-23T10:50:48.698Z","","","","","","","","","","","ControlQ","","50","","","","","","","","","","","","","","","","","","","","","","","","","","","","",""
"3837","","<div style=""width:500px;"">
  <p>How would you describe your current emotional state?</p>
  </div>","32","html-slider-response","12","149602","0.0-5.0-3.0","211","1","2025-07-23 10:48:22","1f75c3e559b7213887762d5229550c2b","89.154.153.225","Mozilla/5.0 (Macintosh; Intel Mac OS X 10_15_7) AppleWebKit/537.36 (KHTML, like Gecko) Chrome/138.0.0.0 Safari/537.36","Macintosh","Chrome","138.0.0.0","OS X","10_15_7","https://app.prolific.com/","pt-PT,pt;q=0.9,en-US;q=0.8,en;q=0.7,ca;q=0.6,fr;q=0.5,de;q=0.4,it;q=0.3","66db15814e7818d8b9593ad5","683dba2a8a9dda3513610c04","6880bc92ae773178346190a6","3","0","66db15814e7818d8b9593ad5","3","0","2025-07-23T10:50:52.536Z","","","","","","","","","","","StressQ","","50","","","","","","","","","","","","","","","","","","","","","","","","","","","","",""
"2256","","<div style=""width:500px;"">
  <p>What best describes how you currently feel?</p>
  </div>","56","html-slider-response","13","151860","0.0-5.0-4.0","211","1","2025-07-23 10:48:22","1f75c3e559b7213887762d5229550c2b","89.154.153.225","Mozilla/5.0 (Macintosh; Intel Mac OS X 10_15_7) AppleWebKit/537.36 (KHTML, like Gecko) Chrome/138.0.0.0 Safari/537.36","Macintosh","Chrome","138.0.0.0","OS X","10_15_7","https://app.prolific.com/","pt-PT,pt;q=0.9,en-US;q=0.8,en;q=0.7,ca;q=0.6,fr;q=0.5,de;q=0.4,it;q=0.3","66db15814e7818d8b9593ad5","683dba2a8a9dda3513610c04","6880bc92ae773178346190a6","3","0","66db15814e7818d8b9593ad5","3","0","2025-07-23T10:50:54.794Z","","","","","","","","","","","MotivationQ","","50","","","","","","","","","","","","","","","","","","","","","","","","","","","","",""
"","","","","ctl-task-cpt","14","171918","0.0-5.0-0.1","211","1","2025-07-23 10:48:22","1f75c3e559b7213887762d5229550c2b","89.154.153.225","Mozilla/5.0 (Macintosh; Intel Mac OS X 10_15_7) AppleWebKit/537.36 (KHTML, like Gecko) Chrome/138.0.0.0 Safari/537.36","Macintosh","Chrome","138.0.0.0","OS X","10_15_7","https://app.prolific.com/","pt-PT,pt;q=0.9,en-US;q=0.8,en;q=0.7,ca;q=0.6,fr;q=0.5,de;q=0.4,it;q=0.3","66db15814e7818d8b9593ad5","683dba2a8a9dda3513610c04","6880bc92ae773178346190a6","3","0","66db15814e7818d8b9593ad5","3","0","2025-07-23T10:51:14.852Z","","","","","","","","","","","","","","win-only","3","g1:SW,g2:NE","0.9","2","0","152970.7","1145.1","6145.7","17051.4","1","4","8","6","1","1","1","5","4","0.03787878787878788","1297.1","3000","1730","[""down"",""left""]","{""num_key_presses"":4,""num_perfect"":4,""num_errors"":0,""num_randdir"":0,""num_randdir_good_moves"":0,""num_whilered"":0,""num_whileblue"":0,""num_blue"":0,""num_good_moves"":4}","[723,719.796875,0.2,723,719.796875,100.5,723,719.796875,201.6,723,719.796875,305.6,723,719.796875,406,723,719.796875,505.9,723,719.796875,612.3,723,719.796875,716.1,723,719.796875,820.5,463,983.796875,921.7,149,1301.796875,1021.9,137,1311.796875,1126.2,137,1311.796875,1227.5,137,1311.796875,1331.7,137,1311.796875,1438.2,257,1293.796875,1540.8,993,1247.796875,1646.5,1033,1247.796875,1750.9,1033,1247.796875,1855.5,1033,1247.796875,1956.1,1033,1247.796875,2061.2,1033,1247.796875,2163.6,1033,1247.796875,2265.7,1033,1247.796875,2366.1,1033,1247.796875,2471.4,1033,1247.796875,2575.4,1033,1247.796875,2681.7,1033,1247.796875,2785.6,1033,1247.796875,2886.1,1033,1247.796875,2986.5,1033,1247.796875,3091.9,1033,1247.796875,3192.3,1033,1247.796875,3295.4,1033,1247.796875,3397.6,1033,1247.796875,3500.3,1033,1247.796875,3606.4,1033,1247.796875,3711.1,1033,1247.796875,3816.9,1033,1247.796875,3921.1,1033,1247.796875,4021.7,1033,1247.796875,4125.4,1033,1247.796875,4225.9,1033,1247.796875,4326.8,1033,1247.796875,4431.4,1033,1247.796875,4532.6,1033,1247.796875,4637.2,1033,1247.796875,4742,1033,1247.796875,4845.3,1033,1247.796875,4946.4]","[1342.1,1342.1,1000,0.1,342.1,""smooth"",""down"",""down"",""good_move"",4395.1,3052.6,2732.7,1342.5,319.9,""smooth"",""down"",""down"",""good_move"",7981.5,3586.1,3269.4,4395.4,316.7,""smooth"",""left"",""left"",""good_move"",10817.2,2835.5,2514.8,7981.7,320.7,""smooth"",""left"",""left"",""good_move""]","",""
"2426","","<div style=""width:500px;"">
  <p>What determined the result of this run?</p>
  </div>","81","html-slider-response","15","174345","0.0-5.0-1.1","211","1","2025-07-23 10:48:22","1f75c3e559b7213887762d5229550c2b","89.154.153.225","Mozilla/5.0 (Macintosh; Intel Mac OS X 10_15_7) AppleWebKit/537.36 (KHTML, like Gecko) Chrome/138.0.0.0 Safari/537.36","Macintosh","Chrome","138.0.0.0","OS X","10_15_7","https://app.prolific.com/","pt-PT,pt;q=0.9,en-US;q=0.8,en;q=0.7,ca;q=0.6,fr;q=0.5,de;q=0.4,it;q=0.3","66db15814e7818d8b9593ad5","683dba2a8a9dda3513610c04","6880bc92ae773178346190a6","3","0","66db15814e7818d8b9593ad5","3","0","2025-07-23T10:51:17.280Z","","","","","","","","","","","AttribQ","","50","","","","","","","","","","","","","","","","","","","","","","","","","","","","",""
"1547","","<div style=""width:500px;"">
  <p>How much control did you have over the ball?</p>
  </div>","96","html-slider-response","16","175894","0.0-5.0-2.1","211","1","2025-07-23 10:48:22","1f75c3e559b7213887762d5229550c2b","89.154.153.225","Mozilla/5.0 (Macintosh; Intel Mac OS X 10_15_7) AppleWebKit/537.36 (KHTML, like Gecko) Chrome/138.0.0.0 Safari/537.36","Macintosh","Chrome","138.0.0.0","OS X","10_15_7","https://app.prolific.com/","pt-PT,pt;q=0.9,en-US;q=0.8,en;q=0.7,ca;q=0.6,fr;q=0.5,de;q=0.4,it;q=0.3","66db15814e7818d8b9593ad5","683dba2a8a9dda3513610c04","6880bc92ae773178346190a6","3","0","66db15814e7818d8b9593ad5","3","0","2025-07-23T10:51:18.828Z","","","","","","","","","","","ControlQ","","50","","","","","","","","","","","","","","","","","","","","","","","","","","","","",""
"4370","","<div style=""width:500px;"">
  <p>How would you describe your current emotional state?</p>
  </div>","32","html-slider-response","17","180265","0.0-5.0-3.1","211","1","2025-07-23 10:48:22","1f75c3e559b7213887762d5229550c2b","89.154.153.225","Mozilla/5.0 (Macintosh; Intel Mac OS X 10_15_7) AppleWebKit/537.36 (KHTML, like Gecko) Chrome/138.0.0.0 Safari/537.36","Macintosh","Chrome","138.0.0.0","OS X","10_15_7","https://app.prolific.com/","pt-PT,pt;q=0.9,en-US;q=0.8,en;q=0.7,ca;q=0.6,fr;q=0.5,de;q=0.4,it;q=0.3","66db15814e7818d8b9593ad5","683dba2a8a9dda3513610c04","6880bc92ae773178346190a6","3","0","66db15814e7818d8b9593ad5","3","0","2025-07-23T10:51:23.200Z","","","","","","","","","","","StressQ","","50","","","","","","","","","","","","","","","","","","","","","","","","","","","","",""
"2651","","<div style=""width:500px;"">
  <p>What best describes how you currently feel?</p>
  </div>","59","html-slider-response","18","182918","0.0-5.0-4.1","211","1","2025-07-23 10:48:22","1f75c3e559b7213887762d5229550c2b","89.154.153.225","Mozilla/5.0 (Macintosh; Intel Mac OS X 10_15_7) AppleWebKit/537.36 (KHTML, like Gecko) Chrome/138.0.0.0 Safari/537.36","Macintosh","Chrome","138.0.0.0","OS X","10_15_7","https://app.prolific.com/","pt-PT,pt;q=0.9,en-US;q=0.8,en;q=0.7,ca;q=0.6,fr;q=0.5,de;q=0.4,it;q=0.3","66db15814e7818d8b9593ad5","683dba2a8a9dda3513610c04","6880bc92ae773178346190a6","3","0","66db15814e7818d8b9593ad5","3","0","2025-07-23T10:51:25.852Z","","","","","","","","","","","MotivationQ","","50","","","","","","","","","","","","","","","","","","","","","","","","","","","","",""
"","","","","ctl-task-cpt","19","218127","0.0-5.0-0.2","211","1","2025-07-23 10:48:22","1f75c3e559b7213887762d5229550c2b","89.154.153.225","Mozilla/5.0 (Macintosh; Intel Mac OS X 10_15_7) AppleWebKit/537.36 (KHTML, like Gecko) Chrome/138.0.0.0 Safari/537.36","Macintosh","Chrome","138.0.0.0","OS X","10_15_7","https://app.prolific.com/","pt-PT,pt;q=0.9,en-US;q=0.8,en;q=0.7,ca;q=0.6,fr;q=0.5,de;q=0.4,it;q=0.3","66db15814e7818d8b9593ad5","683dba2a8a9dda3513610c04","6880bc92ae773178346190a6","3","0","66db15814e7818d8b9593ad5","3","0","2025-07-23T10:52:01.061Z","","","","","","","","","","","","","","win-only","0","g1:NW,g2:SE","0.8","3","0","184029.8","1233","6236.6","32201.7","1","4","8","6","2","8","7","12","5","0.09090909090909091","1949.2","3000","660","[""down"",""right""]","{""num_key_presses"":8,""num_perfect"":6,""num_errors"":1,""num_randdir"":1,""num_randdir_good_moves"":1,""num_whilered"":0,""num_whileblue"":1,""num_blue"":3,""num_good_moves"":7}","[735,721.796875,0.1,735,721.796875,102.7,735,721.796875,203.3,735,721.796875,307.6,735,721.796875,408.3,735,721.796875,513.8,735,721.796875,614,735,721.796875,718.3,735,721.796875,822.6,907,967.796875,923,1107,1253.796875,1028.5,1189,1345.796875,1132.2,1241,1347.796875,1232.4,1339,1337.796875,1332.6,1345,1335.796875,1438.3,1345,1335.796875,1542.9,1345,1335.796875,1643.3,1345,1335.796875,1748.8,1345,1335.796875,1853.3,1345,1335.796875,1958.2,1345,1335.796875,2063,1345,1335.796875,2163,1373,933.796875,2268.1,1385,799.796875,2368.1,1385,799.796875,2468.2,1385,799.796875,2573.1,1385,799.796875,2673.9,1385,799.796875,2778,1385,799.796875,2882.3,1385,799.796875,2987.8,1385,799.796875,3088.7,1385,799.796875,3193,1385,799.796875,3293.4,1385,799.796875,3393.4,1385,799.796875,3498.4,1385,799.796875,3598.4,1385,799.796875,3703.8,1385,799.796875,3807.9,1385,799.796875,3908.1,1385,799.796875,4008.1,1385,799.796875,4112.8,1385,799.796875,4214,1385,799.796875,4318.2,1385,799.796875,4422.9,1385,799.796875,4523.4,1385,799.796875,4628.3,1385,799.796875,4732.3,1385,799.796875,4832.8,1385,799.796875,4938.2]","[1364.2,1364.2,1000,0,364.2,""smooth"",""down"",""down"",""good_move"",3465.1,2100.4,1767.4,1364.7,333,""oops"",""down"",""down"",""good_move"",6670.2,3204.9,2889.2,3465.3,315.7,""smooth"",""right"",""right"",""good_move"",9072,2401.5,2096.9,6670.5,304.6,""smooth"",""right"",""right"",""good_move"",11714.9,2642.4,2343.7,9072.5,298.7,""smooth"",""down"",""down"",""good_move"",14451.9,2736.9,2434.8,11715,302.1,""while_blue"",""right"",""left"",""bad_move"",23369.8,8917.4,2256.5,20734.7,378.6,""smooth"",""right"",""right"",""good_move"",25876.4,2506.5,2138.5,23369.9,368,""smooth"",""right"",""right"",""good_move""]","",""
"1949","","<div style=""width:500px;"">
  <p>What determined the result of this run?</p>
  </div>","93","html-slider-response","20","220077","0.0-5.0-1.2","211","1","2025-07-23 10:48:22","1f75c3e559b7213887762d5229550c2b","89.154.153.225","Mozilla/5.0 (Macintosh; Intel Mac OS X 10_15_7) AppleWebKit/537.36 (KHTML, like Gecko) Chrome/138.0.0.0 Safari/537.36","Macintosh","Chrome","138.0.0.0","OS X","10_15_7","https://app.prolific.com/","pt-PT,pt;q=0.9,en-US;q=0.8,en;q=0.7,ca;q=0.6,fr;q=0.5,de;q=0.4,it;q=0.3","66db15814e7818d8b9593ad5","683dba2a8a9dda3513610c04","6880bc92ae773178346190a6","3","0","66db15814e7818d8b9593ad5","3","0","2025-07-23T10:52:03.011Z","","","","","","","","","","","AttribQ","","50","","","","","","","","","","","","","","","","","","","","","","","","","","","","",""
"2554","","<div style=""width:500px;"">
  <p>How much control did you have over the ball?</p>
  </div>","68","html-slider-response","21","222632","0.0-5.0-2.2","211","1","2025-07-23 10:48:22","1f75c3e559b7213887762d5229550c2b","89.154.153.225","Mozilla/5.0 (Macintosh; Intel Mac OS X 10_15_7) AppleWebKit/537.36 (KHTML, like Gecko) Chrome/138.0.0.0 Safari/537.36","Macintosh","Chrome","138.0.0.0","OS X","10_15_7","https://app.prolific.com/","pt-PT,pt;q=0.9,en-US;q=0.8,en;q=0.7,ca;q=0.6,fr;q=0.5,de;q=0.4,it;q=0.3","66db15814e7818d8b9593ad5","683dba2a8a9dda3513610c04","6880bc92ae773178346190a6","3","0","66db15814e7818d8b9593ad5","3","0","2025-07-23T10:52:05.566Z","","","","","","","","","","","ControlQ","","50","","","","","","","","","","","","","","","","","","","","","","","","","","","","",""
"3411","","<div style=""width:500px;"">
  <p>How would you describe your current emotional state?</p>
  </div>","32","html-slider-response","22","226044","0.0-5.0-3.2","211","1","2025-07-23 10:48:22","1f75c3e559b7213887762d5229550c2b","89.154.153.225","Mozilla/5.0 (Macintosh; Intel Mac OS X 10_15_7) AppleWebKit/537.36 (KHTML, like Gecko) Chrome/138.0.0.0 Safari/537.36","Macintosh","Chrome","138.0.0.0","OS X","10_15_7","https://app.prolific.com/","pt-PT,pt;q=0.9,en-US;q=0.8,en;q=0.7,ca;q=0.6,fr;q=0.5,de;q=0.4,it;q=0.3","66db15814e7818d8b9593ad5","683dba2a8a9dda3513610c04","6880bc92ae773178346190a6","3","0","66db15814e7818d8b9593ad5","3","0","2025-07-23T10:52:08.978Z","","","","","","","","","","","StressQ","","50","","","","","","","","","","","","","","","","","","","","","","","","","","","","",""
"1778","","<div style=""width:500px;"">
  <p>What best describes how you currently feel?</p>
  </div>","69","html-slider-response","23","227823","0.0-5.0-4.2","211","1","2025-07-23 10:48:22","1f75c3e559b7213887762d5229550c2b","89.154.153.225","Mozilla/5.0 (Macintosh; Intel Mac OS X 10_15_7) AppleWebKit/537.36 (KHTML, like Gecko) Chrome/138.0.0.0 Safari/537.36","Macintosh","Chrome","138.0.0.0","OS X","10_15_7","https://app.prolific.com/","pt-PT,pt;q=0.9,en-US;q=0.8,en;q=0.7,ca;q=0.6,fr;q=0.5,de;q=0.4,it;q=0.3","66db15814e7818d8b9593ad5","683dba2a8a9dda3513610c04","6880bc92ae773178346190a6","3","0","66db15814e7818d8b9593ad5","3","0","2025-07-23T10:52:10.757Z","","","","","","","","","","","MotivationQ","","50","","","","","","","","","","","","","","","","","","","","","","","","","","","","",""
"","","","","ctl-task-cpt","24","246827","0.0-5.0-0.3","211","1","2025-07-23 10:48:22","1f75c3e559b7213887762d5229550c2b","89.154.153.225","Mozilla/5.0 (Macintosh; Intel Mac OS X 10_15_7) AppleWebKit/537.36 (KHTML, like Gecko) Chrome/138.0.0.0 Safari/537.36","Macintosh","Chrome","138.0.0.0","OS X","10_15_7","https://app.prolific.com/","pt-PT,pt;q=0.9,en-US;q=0.8,en;q=0.7,ca;q=0.6,fr;q=0.5,de;q=0.4,it;q=0.3","66db15814e7818d8b9593ad5","683dba2a8a9dda3513610c04","6880bc92ae773178346190a6","3","0","66db15814e7818d8b9593ad5","3","0","2025-07-23T10:52:29.762Z","","","","","","","","","","","","","","win-only","2","g1:SE,g2:NW","0.7","4","0","228934.3","931.4","5936.2","15995.8","1","4","4","6","1","1","1","13","12","0.09848484848484848","1412.1","3000","1655","[""down"",""right""]","{""num_key_presses"":4,""num_perfect"":2,""num_errors"":0,""num_randdir"":2,""num_randdir_good_moves"":2,""num_whilered"":0,""num_whileblue"":0,""num_blue"":0,""num_good_moves"":4}","[739,719.796875,0.1,739,719.796875,104.1,739,719.796875,205.2,739,719.796875,309.5,739,719.796875,414.2,739,719.796875,514.3,739,719.796875,619.5,739,719.796875,724.9,739,719.796875,830.1,741,719.796875,934.6,1297,1361.796875,1035,1393,1461.796875,1140.1,1391,1369.796875,1240.1,1391,1365.796875,1344.4,1391,1365.796875,1444.7,1391,1365.796875,1550.3,1705,1295.796875,1654.6,2061,1233.796875,1755.3,2061,1233.796875,1859.3,2061,1233.796875,1959.6,2061,1233.796875,2059.8,2061,1233.796875,2159.8,2061,1233.796875,2265.1,2061,1233.796875,2369.4,2061,1233.796875,2469.5,2061,1233.796875,2574.8,2061,1233.796875,2679.8,2061,1233.796875,2779.8,2061,1233.796875,2884,2061,1233.796875,2989.3,2061,1233.796875,3090,2061,1233.796875,3194.4,2061,1233.796875,3294.6,2061,1233.796875,3399.7,2061,1233.796875,3499.8,2061,1233.796875,3599.9,2061,1233.796875,3704.4,2061,1233.796875,3804.6,2061,1233.796875,3908.7,2061,1233.796875,4009.8,2061,1233.796875,4115,2061,1233.796875,4219.9,2061,1233.796875,4324.9,2061,1233.796875,4433.1,2061,1233.796875,4534,2061,1233.796875,4634,2061,1233.796875,4734.9,2061,1233.796875,4839.6,2061,1233.796875,4945.1]","[1373,1373,1000,0,373,""smooth"",""down"",""down"",""good_move"",4293.4,2920,2585.9,1373.4,334.1,""smooth"",""down"",""down"",""good_move"",7550.2,3256.6,2953.1,4293.6,303.5,""oops"",""right"",""right"",""good_move"",9973.5,2422.8,2063.6,7550.7,359.2,""oops"",""right"",""right"",""good_move""]","",""
"4092","","<div style=""width:500px;"">
  <p>What determined the result of this run?</p>
  </div>","62","html-slider-response","25","250920","0.0-5.0-1.3","211","1","2025-07-23 10:48:22","1f75c3e559b7213887762d5229550c2b","89.154.153.225","Mozilla/5.0 (Macintosh; Intel Mac OS X 10_15_7) AppleWebKit/537.36 (KHTML, like Gecko) Chrome/138.0.0.0 Safari/537.36","Macintosh","Chrome","138.0.0.0","OS X","10_15_7","https://app.prolific.com/","pt-PT,pt;q=0.9,en-US;q=0.8,en;q=0.7,ca;q=0.6,fr;q=0.5,de;q=0.4,it;q=0.3","66db15814e7818d8b9593ad5","683dba2a8a9dda3513610c04","6880bc92ae773178346190a6","3","0","66db15814e7818d8b9593ad5","3","0","2025-07-23T10:52:33.854Z","","","","","","","","","","","AttribQ","","50","","","","","","","","","","","","","","","","","","","","","","","","","","","","",""
"2312","","<div style=""width:500px;"">
  <p>How much control did you have over the ball?</p>
  </div>","60","html-slider-response","26","253234","0.0-5.0-2.3","211","1","2025-07-23 10:48:22","1f75c3e559b7213887762d5229550c2b","89.154.153.225","Mozilla/5.0 (Macintosh; Intel Mac OS X 10_15_7) AppleWebKit/537.36 (KHTML, like Gecko) Chrome/138.0.0.0 Safari/537.36","Macintosh","Chrome","138.0.0.0","OS X","10_15_7","https://app.prolific.com/","pt-PT,pt;q=0.9,en-US;q=0.8,en;q=0.7,ca;q=0.6,fr;q=0.5,de;q=0.4,it;q=0.3","66db15814e7818d8b9593ad5","683dba2a8a9dda3513610c04","6880bc92ae773178346190a6","3","0","66db15814e7818d8b9593ad5","3","0","2025-07-23T10:52:36.168Z","","","","","","","","","","","ControlQ","","50","","","","","","","","","","","","","","","","","","","","","","","","","","","","",""
"2145","","<div style=""width:500px;"">
  <p>How would you describe your current emotional state?</p>
  </div>","33","html-slider-response","27","255380","0.0-5.0-3.3","211","1","2025-07-23 10:48:22","1f75c3e559b7213887762d5229550c2b","89.154.153.225","Mozilla/5.0 (Macintosh; Intel Mac OS X 10_15_7) AppleWebKit/537.36 (KHTML, like Gecko) Chrome/138.0.0.0 Safari/537.36","Macintosh","Chrome","138.0.0.0","OS X","10_15_7","https://app.prolific.com/","pt-PT,pt;q=0.9,en-US;q=0.8,en;q=0.7,ca;q=0.6,fr;q=0.5,de;q=0.4,it;q=0.3","66db15814e7818d8b9593ad5","683dba2a8a9dda3513610c04","6880bc92ae773178346190a6","3","0","66db15814e7818d8b9593ad5","3","0","2025-07-23T10:52:38.314Z","","","","","","","","","","","StressQ","","50","","","","","","","","","","","","","","","","","","","","","","","","","","","","",""
"1849","","<div style=""width:500px;"">
  <p>What best describes how you currently feel?</p>
  </div>","59","html-slider-response","28","257230","0.0-5.0-4.3","211","1","2025-07-23 10:48:22","1f75c3e559b7213887762d5229550c2b","89.154.153.225","Mozilla/5.0 (Macintosh; Intel Mac OS X 10_15_7) AppleWebKit/537.36 (KHTML, like Gecko) Chrome/138.0.0.0 Safari/537.36","Macintosh","Chrome","138.0.0.0","OS X","10_15_7","https://app.prolific.com/","pt-PT,pt;q=0.9,en-US;q=0.8,en;q=0.7,ca;q=0.6,fr;q=0.5,de;q=0.4,it;q=0.3","66db15814e7818d8b9593ad5","683dba2a8a9dda3513610c04","6880bc92ae773178346190a6","3","0","66db15814e7818d8b9593ad5","3","0","2025-07-23T10:52:40.164Z","","","","","","","","","","","MotivationQ","","50","","","","","","","","","","","","","","","","","","","","","","","","","","","","",""
"","","","","ctl-task-cpt","29","279751","0.0-5.0-0.4","211","1","2025-07-23 10:48:22","1f75c3e559b7213887762d5229550c2b","89.154.153.225","Mozilla/5.0 (Macintosh; Intel Mac OS X 10_15_7) AppleWebKit/537.36 (KHTML, like Gecko) Chrome/138.0.0.0 Safari/537.36","Macintosh","Chrome","138.0.0.0","OS X","10_15_7","https://app.prolific.com/","pt-PT,pt;q=0.9,en-US;q=0.8,en;q=0.7,ca;q=0.6,fr;q=0.5,de;q=0.4,it;q=0.3","66db15814e7818d8b9593ad5","683dba2a8a9dda3513610c04","6880bc92ae773178346190a6","3","0","66db15814e7818d8b9593ad5","3","0","2025-07-23T10:53:02.685Z","","","","","","","","","","","","","","win-only","3","g1:SW,g2:NE","0.6","5","0","258341.7","1052","6055.8","19510.6","1","4","4","6","1","1","1","14","13","0.10606060606060606","1728.1","3000","1645","[""down"",""left""]","{""num_key_presses"":4,""num_perfect"":3,""num_errors"":0,""num_randdir"":1,""num_randdir_good_moves"":1,""num_whilered"":0,""num_whileblue"":0,""num_blue"":1,""num_good_moves"":4}","[725,735.796875,0.2,725,735.796875,104,725,735.796875,208.6,785,725.796875,314.2,1155,605.796875,418.2,1203,577.796875,518.3,1203,575.796875,619.1,1203,575.796875,723.3,1203,575.796875,824.1,1203,575.796875,928.7,1089,633.796875,1033.3,669,937.796875,1139.1,669,937.796875,1243.1,553,1029.796875,1343.9,197,1239.796875,1448.9,185,1245.796875,1553.7,185,1245.796875,1654.2,185,1245.796875,1758.3,185,1245.796875,1859.2,483,1221.796875,1963.9,1443,1267.796875,2069.3,1443,1267.796875,2174.3,1443,1267.796875,2279,1443,1267.796875,2379,1443,1267.796875,2483.6,1443,1267.796875,2584.6,1443,1267.796875,2688.2,1443,1267.796875,2788.9,1443,1267.796875,2889.3,1443,1267.796875,2993.9,1443,1267.796875,3098.5,1443,1267.796875,3199.1,1443,1267.796875,3304.1,1443,1267.796875,3408.9,1443,1267.796875,3514.2,1443,1267.796875,3618.2,1443,1267.796875,3723.6,1443,1267.796875,3828.9,1443,1267.796875,3934.2,1443,1267.796875,4038.4,1443,1267.796875,4138.7,1443,1267.796875,4243.8,1443,1267.796875,4350,1443,1267.796875,4454,1443,1267.796875,4554.2,1443,1267.796875,4658.6,1443,1267.796875,4759,1443,1267.796875,4861.3,1443,1267.796875,4963.5]","[4396.4,4396.4,2052.1,2009.4,334.9,""oops"",""down"",""left"",""good_move"",7736.5,3339.8,2942.6,4396.8,397.1,""smooth"",""down"",""down"",""good_move"",11076.3,3339.5,3010.6,7736.8,328.9,""smooth"",""down"",""down"",""good_move"",13364.5,2288.1,1975.9,11076.4,312.2,""smooth"",""left"",""left"",""good_move""]","",""
"6753","","<div style=""width:500px;"">
  <p>What determined the result of this run?</p>
  </div>","56","html-slider-response","30","286505","0.0-5.0-1.4","211","1","2025-07-23 10:48:22","1f75c3e559b7213887762d5229550c2b","89.154.153.225","Mozilla/5.0 (Macintosh; Intel Mac OS X 10_15_7) AppleWebKit/537.36 (KHTML, like Gecko) Chrome/138.0.0.0 Safari/537.36","Macintosh","Chrome","138.0.0.0","OS X","10_15_7","https://app.prolific.com/","pt-PT,pt;q=0.9,en-US;q=0.8,en;q=0.7,ca;q=0.6,fr;q=0.5,de;q=0.4,it;q=0.3","66db15814e7818d8b9593ad5","683dba2a8a9dda3513610c04","6880bc92ae773178346190a6","3","0","66db15814e7818d8b9593ad5","3","0","2025-07-23T10:53:09.439Z","","","","","","","","","","","AttribQ","","50","","","","","","","","","","","","","","","","","","","","","","","","","","","","",""
"3150","","<div style=""width:500px;"">
  <p>How much control did you have over the ball?</p>
  </div>","57","html-slider-response","31","289656","0.0-5.0-2.4","211","1","2025-07-23 10:48:22","1f75c3e559b7213887762d5229550c2b","89.154.153.225","Mozilla/5.0 (Macintosh; Intel Mac OS X 10_15_7) AppleWebKit/537.36 (KHTML, like Gecko) Chrome/138.0.0.0 Safari/537.36","Macintosh","Chrome","138.0.0.0","OS X","10_15_7","https://app.prolific.com/","pt-PT,pt;q=0.9,en-US;q=0.8,en;q=0.7,ca;q=0.6,fr;q=0.5,de;q=0.4,it;q=0.3","66db15814e7818d8b9593ad5","683dba2a8a9dda3513610c04","6880bc92ae773178346190a6","3","0","66db15814e7818d8b9593ad5","3","0","2025-07-23T10:53:12.590Z","","","","","","","","","","","ControlQ","","50","","","","","","","","","","","","","","","","","","","","","","","","","","","","",""
"2215","","<div style=""width:500px;"">
  <p>How would you describe your current emotional state?</p>
  </div>","36","html-slider-response","32","291872","0.0-5.0-3.4","211","1","2025-07-23 10:48:22","1f75c3e559b7213887762d5229550c2b","89.154.153.225","Mozilla/5.0 (Macintosh; Intel Mac OS X 10_15_7) AppleWebKit/537.36 (KHTML, like Gecko) Chrome/138.0.0.0 Safari/537.36","Macintosh","Chrome","138.0.0.0","OS X","10_15_7","https://app.prolific.com/","pt-PT,pt;q=0.9,en-US;q=0.8,en;q=0.7,ca;q=0.6,fr;q=0.5,de;q=0.4,it;q=0.3","66db15814e7818d8b9593ad5","683dba2a8a9dda3513610c04","6880bc92ae773178346190a6","3","0","66db15814e7818d8b9593ad5","3","0","2025-07-23T10:53:14.806Z","","","","","","","","","","","StressQ","","50","","","","","","","","","","","","","","","","","","","","","","","","","","","","",""
"1698","","<div style=""width:500px;"">
  <p>What best describes how you currently feel?</p>
  </div>","61","html-slider-response","33","293571","0.0-5.0-4.4","211","1","2025-07-23 10:48:22","1f75c3e559b7213887762d5229550c2b","89.154.153.225","Mozilla/5.0 (Macintosh; Intel Mac OS X 10_15_7) AppleWebKit/537.36 (KHTML, like Gecko) Chrome/138.0.0.0 Safari/537.36","Macintosh","Chrome","138.0.0.0","OS X","10_15_7","https://app.prolific.com/","pt-PT,pt;q=0.9,en-US;q=0.8,en;q=0.7,ca;q=0.6,fr;q=0.5,de;q=0.4,it;q=0.3","66db15814e7818d8b9593ad5","683dba2a8a9dda3513610c04","6880bc92ae773178346190a6","3","0","66db15814e7818d8b9593ad5","3","0","2025-07-23T10:53:16.505Z","","","","","","","","","","","MotivationQ","","50","","","","","","","","","","","","","","","","","","","","","","","","","","","","",""
"","","","","ctl-task-cpt","34","332461","0.0-5.0-0.5","211","1","2025-07-23 10:48:22","1f75c3e559b7213887762d5229550c2b","89.154.153.225","Mozilla/5.0 (Macintosh; Intel Mac OS X 10_15_7) AppleWebKit/537.36 (KHTML, like Gecko) Chrome/138.0.0.0 Safari/537.36","Macintosh","Chrome","138.0.0.0","OS X","10_15_7","https://app.prolific.com/","pt-PT,pt;q=0.9,en-US;q=0.8,en;q=0.7,ca;q=0.6,fr;q=0.5,de;q=0.4,it;q=0.3","66db15814e7818d8b9593ad5","683dba2a8a9dda3513610c04","6880bc92ae773178346190a6","3","0","66db15814e7818d8b9593ad5","3","0","2025-07-23T10:53:55.395Z","","","","","","","","","","","","","","win-only","1","g1:NE,g2:SW","0.5","6","0","294682","1018.5","6020.5","35880.3","1","4","8","6","2","-8","-8","6","14","0.045454545454545456","1356.6","3000","-3005","[""down"",""left""]","{""num_key_presses"":9,""num_perfect"":5,""num_errors"":0,""num_randdir"":4,""num_randdir_good_moves"":2,""num_whilered"":0,""num_whileblue"":0,""num_blue"":1,""num_good_moves"":7}","[735,737.796875,0.1,735,737.796875,101.7,735,737.796875,210.5,735,737.796875,312.2,735,737.796875,416.9,735,737.796875,517.4,735,737.796875,617.4,735,737.796875,721.5,735,737.796875,822.2,321,1071.796875,927.4,101,1297.796875,1032,97,1303.796875,1132.1,89,1311.796875,1237,89,1311.796875,1337.1,89,1311.796875,1437.2,89,1311.796875,1542.1,861,1135.796875,1647.7,1297,1127.796875,1751.9,1297,1127.796875,1856.9,1297,1127.796875,1957,1297,1127.796875,2062.7,1297,1127.796875,2167.1,1297,1127.796875,2267.1,1297,1127.796875,2371.8,1297,1127.796875,2472.3,1297,1127.796875,2577.5,1297,1127.796875,2682,1297,1127.796875,2786.9,1297,1127.796875,2892.6,1297,1127.796875,2997.4,1297,1127.796875,3097.6,1297,1127.796875,3202.3,1297,1127.796875,3302.6,1297,1127.796875,3406.7,1297,1127.796875,3507.2,1297,1127.796875,3612.3,1297,1127.796875,3712.6,1297,1127.796875,3817.7,1297,1127.796875,3917.7,1297,1127.796875,4022,1297,1127.796875,4122.5,1297,1127.796875,4227.7,1297,1127.796875,4332.2,1297,1127.796875,4437.1,1297,1127.796875,4542.6,1297,1127.796875,4646.5,1297,1127.796875,4746.8,1297,1127.796875,4851.6,1297,1127.796875,4951.6]","[1307.8,1307.8,1000,0,307.8,""smooth"",""down"",""down"",""good_move"",4807.6,3499.5,3159.3,1308.1,340.2,""smooth"",""down"",""down"",""good_move"",7655.7,2847.9,2543.2,4807.8,304.7,""oops"",""left"",""down"",""good_move"",10231.8,2575.8,2264.6,7656,311.2,""smooth"",""left"",""left"",""good_move"",15891.2,5659.2,2679.6,12835.5,376.1,""oops"",""left"",""right"",""bad_move"",18982.9,3091.5,2774.1,15891.5,317.3,""oops"",""left"",""up"",""bad_move"",22494.8,3511.5,3184.5,18983.3,327,""oops"",""left"",""down"",""good_move"",24770.7,2275.7,1965.5,22495,310.2,""smooth"",""left"",""left"",""good_move"",27445.9,2674.9,2380,24771,294.9,""smooth"",""left"",""left"",""good_move""]","",""
"1910","","<div style=""width:500px;"">
  <p>What determined the result of this run?</p>
  </div>","21","html-slider-response","35","334371","0.0-5.0-1.5","211","1","2025-07-23 10:48:22","1f75c3e559b7213887762d5229550c2b","89.154.153.225","Mozilla/5.0 (Macintosh; Intel Mac OS X 10_15_7) AppleWebKit/537.36 (KHTML, like Gecko) Chrome/138.0.0.0 Safari/537.36","Macintosh","Chrome","138.0.0.0","OS X","10_15_7","https://app.prolific.com/","pt-PT,pt;q=0.9,en-US;q=0.8,en;q=0.7,ca;q=0.6,fr;q=0.5,de;q=0.4,it;q=0.3","66db15814e7818d8b9593ad5","683dba2a8a9dda3513610c04","6880bc92ae773178346190a6","3","0","66db15814e7818d8b9593ad5","3","0","2025-07-23T10:53:57.305Z","","","","","","","","","","","AttribQ","","50","","","","","","","","","","","","","","","","","","","","","","","","","","","","",""
"1994","","<div style=""width:500px;"">
  <p>How much control did you have over the ball?</p>
  </div>","25","html-slider-response","36","336365","0.0-5.0-2.5","211","1","2025-07-23 10:48:22","1f75c3e559b7213887762d5229550c2b","89.154.153.225","Mozilla/5.0 (Macintosh; Intel Mac OS X 10_15_7) AppleWebKit/537.36 (KHTML, like Gecko) Chrome/138.0.0.0 Safari/537.36","Macintosh","Chrome","138.0.0.0","OS X","10_15_7","https://app.prolific.com/","pt-PT,pt;q=0.9,en-US;q=0.8,en;q=0.7,ca;q=0.6,fr;q=0.5,de;q=0.4,it;q=0.3","66db15814e7818d8b9593ad5","683dba2a8a9dda3513610c04","6880bc92ae773178346190a6","3","0","66db15814e7818d8b9593ad5","3","0","2025-07-23T10:53:59.300Z","","","","","","","","","","","ControlQ","","50","","","","","","","","","","","","","","","","","","","","","","","","","","","","",""
"2232","","<div style=""width:500px;"">
  <p>How would you describe your current emotional state?</p>
  </div>","36","html-slider-response","37","338598","0.0-5.0-3.5","211","1","2025-07-23 10:48:22","1f75c3e559b7213887762d5229550c2b","89.154.153.225","Mozilla/5.0 (Macintosh; Intel Mac OS X 10_15_7) AppleWebKit/537.36 (KHTML, like Gecko) Chrome/138.0.0.0 Safari/537.36","Macintosh","Chrome","138.0.0.0","OS X","10_15_7","https://app.prolific.com/","pt-PT,pt;q=0.9,en-US;q=0.8,en;q=0.7,ca;q=0.6,fr;q=0.5,de;q=0.4,it;q=0.3","66db15814e7818d8b9593ad5","683dba2a8a9dda3513610c04","6880bc92ae773178346190a6","3","0","66db15814e7818d8b9593ad5","3","0","2025-07-23T10:54:01.532Z","","","","","","","","","","","StressQ","","50","","","","","","","","","","","","","","","","","","","","","","","","","","","","",""
"1595","","<div style=""width:500px;"">
  <p>What best describes how you currently feel?</p>
  </div>","64","html-slider-response","38","340194","0.0-5.0-4.5","211","1","2025-07-23 10:48:22","1f75c3e559b7213887762d5229550c2b","89.154.153.225","Mozilla/5.0 (Macintosh; Intel Mac OS X 10_15_7) AppleWebKit/537.36 (KHTML, like Gecko) Chrome/138.0.0.0 Safari/537.36","Macintosh","Chrome","138.0.0.0","OS X","10_15_7","https://app.prolific.com/","pt-PT,pt;q=0.9,en-US;q=0.8,en;q=0.7,ca;q=0.6,fr;q=0.5,de;q=0.4,it;q=0.3","66db15814e7818d8b9593ad5","683dba2a8a9dda3513610c04","6880bc92ae773178346190a6","3","0","66db15814e7818d8b9593ad5","3","0","2025-07-23T10:54:03.128Z","","","","","","","","","","","MotivationQ","","50","","","","","","","","","","","","","","","","","","","","","","","","","","","","",""
"","","","","ctl-task-cpt","39","364748","0.0-5.0-0.6","211","1","2025-07-23 10:48:22","1f75c3e559b7213887762d5229550c2b","89.154.153.225","Mozilla/5.0 (Macintosh; Intel Mac OS X 10_15_7) AppleWebKit/537.36 (KHTML, like Gecko) Chrome/138.0.0.0 Safari/537.36","Macintosh","Chrome","138.0.0.0","OS X","10_15_7","https://app.prolific.com/","pt-PT,pt;q=0.9,en-US;q=0.8,en;q=0.7,ca;q=0.6,fr;q=0.5,de;q=0.4,it;q=0.3","66db15814e7818d8b9593ad5","683dba2a8a9dda3513610c04","6880bc92ae773178346190a6","3","0","66db15814e7818d8b9593ad5","3","0","2025-07-23T10:54:27.682Z","","","","","","","","","","","","","","win-only","2","g1:SE,g2:NW","0.4","7","0","341305","1018.2","6021.8","21545.8","1","4","4","6","1","1","1","7","6","0.05303030303030303","1172.3","3000","1540","[""down"",""right""]","{""num_key_presses"":4,""num_perfect"":2,""num_errors"":0,""num_randdir"":2,""num_randdir_good_moves"":2,""num_whilered"":0,""num_whileblue"":0,""num_blue"":2,""num_good_moves"":4}","[745,741.796875,0.1,745,741.796875,101.9,745,741.796875,202.7,745,741.796875,303.9,745,741.796875,408.1,745,741.796875,512.7,745,741.796875,617.4,745,741.796875,722.6,1003,1029.796875,827.8,1261,1431.796875,928,1261,1431.796875,1028.1,1261,1431.796875,1132.8,1261,1431.796875,1233.1,1261,1431.796875,1337.5,1751,1181.796875,1437.8,1925,1113.796875,1538.8,1925,1113.796875,1642.5,1925,1113.796875,1747.4,1925,1113.796875,1852.6,1925,1113.796875,1953.2,1925,1113.796875,2058.3,1925,1113.796875,2162.4,1925,1113.796875,2262.6,1925,1113.796875,2368.1,1925,1113.796875,2471.9,1925,1113.796875,2573.1,1925,1113.796875,2677,1925,1113.796875,2777.6,1925,1113.796875,2877.6,1925,1113.796875,2983.1,1925,1113.796875,3087,1925,1113.796875,3187.3,1925,1113.796875,3287.3,1925,1113.796875,3387.3,1925,1113.796875,3487.4,1925,1113.796875,3587.9,1925,1113.796875,3688.1,1925,1113.796875,3792.3,1925,1113.796875,3898.1,1925,1113.796875,4002.7,1925,1113.796875,4107.7,1925,1113.796875,4211.9,1925,1113.796875,4312.9,1925,1113.796875,4417.2,1925,1113.796875,4517.8,1925,1113.796875,4622.1,1925,1113.796875,4722.1,1925,1113.796875,4822.3,1925,1113.796875,4928.8]","[4504.1,4504.1,2100,2004.5,399.6,""smooth"",""down"",""down"",""good_move"",6994.9,2490.4,2075,4504.5,415.4,""oops"",""down"",""right"",""good_move"",13237.6,6242.4,2294.9,10613.8,329,""oops"",""down"",""down"",""good_move"",15435.4,2197.5,1864.8,13237.9,332.7,""smooth"",""right"",""right"",""good_move""]","",""
"2852","","<div style=""width:500px;"">
  <p>What determined the result of this run?</p>
  </div>","64","html-slider-response","40","367601","0.0-5.0-1.6","211","1","2025-07-23 10:48:22","1f75c3e559b7213887762d5229550c2b","89.154.153.225","Mozilla/5.0 (Macintosh; Intel Mac OS X 10_15_7) AppleWebKit/537.36 (KHTML, like Gecko) Chrome/138.0.0.0 Safari/537.36","Macintosh","Chrome","138.0.0.0","OS X","10_15_7","https://app.prolific.com/","pt-PT,pt;q=0.9,en-US;q=0.8,en;q=0.7,ca;q=0.6,fr;q=0.5,de;q=0.4,it;q=0.3","66db15814e7818d8b9593ad5","683dba2a8a9dda3513610c04","6880bc92ae773178346190a6","3","0","66db15814e7818d8b9593ad5","3","0","2025-07-23T10:54:30.535Z","","","","","","","","","","","AttribQ","","50","","","","","","","","","","","","","","","","","","","","","","","","","","","","",""
"2528","","<div style=""width:500px;"">
  <p>How much control did you have over the ball?</p>
  </div>","58","html-slider-response","41","370129","0.0-5.0-2.6","211","1","2025-07-23 10:48:22","1f75c3e559b7213887762d5229550c2b","89.154.153.225","Mozilla/5.0 (Macintosh; Intel Mac OS X 10_15_7) AppleWebKit/537.36 (KHTML, like Gecko) Chrome/138.0.0.0 Safari/537.36","Macintosh","Chrome","138.0.0.0","OS X","10_15_7","https://app.prolific.com/","pt-PT,pt;q=0.9,en-US;q=0.8,en;q=0.7,ca;q=0.6,fr;q=0.5,de;q=0.4,it;q=0.3","66db15814e7818d8b9593ad5","683dba2a8a9dda3513610c04","6880bc92ae773178346190a6","3","0","66db15814e7818d8b9593ad5","3","0","2025-07-23T10:54:33.064Z","","","","","","","","","","","ControlQ","","50","","","","","","","","","","","","","","","","","","","","","","","","","","","","",""
"1826","","<div style=""width:500px;"">
  <p>How would you describe your current emotional state?</p>
  </div>","38","html-slider-response","42","371956","0.0-5.0-3.6","211","1","2025-07-23 10:48:22","1f75c3e559b7213887762d5229550c2b","89.154.153.225","Mozilla/5.0 (Macintosh; Intel Mac OS X 10_15_7) AppleWebKit/537.36 (KHTML, like Gecko) Chrome/138.0.0.0 Safari/537.36","Macintosh","Chrome","138.0.0.0","OS X","10_15_7","https://app.prolific.com/","pt-PT,pt;q=0.9,en-US;q=0.8,en;q=0.7,ca;q=0.6,fr;q=0.5,de;q=0.4,it;q=0.3","66db15814e7818d8b9593ad5","683dba2a8a9dda3513610c04","6880bc92ae773178346190a6","3","0","66db15814e7818d8b9593ad5","3","0","2025-07-23T10:54:34.890Z","","","","","","","","","","","StressQ","","50","","","","","","","","","","","","","","","","","","","","","","","","","","","","",""
"1745","","<div style=""width:500px;"">
  <p>What best describes how you currently feel?</p>
  </div>","64","html-slider-response","43","373702","0.0-5.0-4.6","211","1","2025-07-23 10:48:22","1f75c3e559b7213887762d5229550c2b","89.154.153.225","Mozilla/5.0 (Macintosh; Intel Mac OS X 10_15_7) AppleWebKit/537.36 (KHTML, like Gecko) Chrome/138.0.0.0 Safari/537.36","Macintosh","Chrome","138.0.0.0","OS X","10_15_7","https://app.prolific.com/","pt-PT,pt;q=0.9,en-US;q=0.8,en;q=0.7,ca;q=0.6,fr;q=0.5,de;q=0.4,it;q=0.3","66db15814e7818d8b9593ad5","683dba2a8a9dda3513610c04","6880bc92ae773178346190a6","3","0","66db15814e7818d8b9593ad5","3","0","2025-07-23T10:54:36.636Z","","","","","","","","","","","MotivationQ","","50","","","","","","","","","","","","","","","","","","","","","","","","","","","","",""
"","","","","ctl-task-cpt","44","422873","0.0-5.0-0.7","211","1","2025-07-23 10:48:22","1f75c3e559b7213887762d5229550c2b","89.154.153.225","Mozilla/5.0 (Macintosh; Intel Mac OS X 10_15_7) AppleWebKit/537.36 (KHTML, like Gecko) Chrome/138.0.0.0 Safari/537.36","Macintosh","Chrome","138.0.0.0","OS X","10_15_7","https://app.prolific.com/","pt-PT,pt;q=0.9,en-US;q=0.8,en;q=0.7,ca;q=0.6,fr;q=0.5,de;q=0.4,it;q=0.3","66db15814e7818d8b9593ad5","683dba2a8a9dda3513610c04","6880bc92ae773178346190a6","3","0","66db15814e7818d8b9593ad5","3","0","2025-07-23T10:55:25.807Z","","","","","","","","","","","","","","win-only","3","g1:SW,g2:NE","0.3","8","0","374812.9","1195.2","6195.7","46156.2","1","4","8","6","2","-8","-9","0","7","0","1260.1","3000","-3000","[""up"",""right""]","{""num_key_presses"":9,""num_perfect"":2,""num_errors"":1,""num_randdir"":6,""num_randdir_good_moves"":3,""num_whilered"":0,""num_whileblue"":0,""num_blue"":4,""num_good_moves"":5}","[723,709.796875,0.2,723,709.796875,105.3,723,709.796875,205.6,723,709.796875,310.3,723,709.796875,415.7,723,709.796875,515.7,723,709.796875,620.1,723,709.796875,720.9,935,507.796875,825.1,1439,83.796875,925.9,1451,81.796875,1030.7,1453,83.796875,1130.9,1453,83.796875,1235.8,1453,83.796875,1336,1453,83.796875,1441.2,1695,653.796875,1545.3,1773,801.796875,1650.8,1773,801.796875,1755.7,1773,801.796875,1861.1,1773,801.796875,1961.1,1773,801.796875,2065.8,1773,801.796875,2170.9,1773,801.796875,2275.3,1773,801.796875,2375.6,1773,801.796875,2480,1773,801.796875,2580.3,1773,801.796875,2680.3,1773,801.796875,2780.5,1773,801.796875,2885.1,1773,801.796875,2985.8,1773,801.796875,3090,1773,801.796875,3195.1,1773,801.796875,3295.6,1773,801.796875,3396,1773,801.796875,3499.9,1773,801.796875,3600.1,1773,801.796875,3701,1773,801.796875,3801,1773,801.796875,3905.1,1773,801.796875,4005.5,1773,801.796875,4110,1773,801.796875,4210.4,1773,801.796875,4315.1,1773,801.796875,4420.8,1773,801.796875,4520.9,1773,801.796875,4620.9,1773,801.796875,4725,1773,801.796875,4825.2,1773,801.796875,4925.4]","[1276.7,1276.7,1000,0,276.7,""oops"",""up"",""left"",""bad_move"",3795.2,2518.3,2166.8,1276.9,351.5,""smooth"",""up"",""up"",""good_move"",10742,6946.4,2715.2,7689.6,337.2,""oops"",""right"",""up"",""good_move"",13735,2992.6,2436.1,10742.4,556.5,""oops"",""up"",""left"",""bad_move"",13866.4,131.1,1973.7,13735.3,-1842.6,""error"",""-"",""-"",""no_move"",17392.1,3525.4,2206.6,14870.3,315.2,""oops"",""up"",""down"",""bad_move"",27042.1,9649.8,2581.1,24059.5,401.5,""oops"",""right"",""up"",""good_move"",34783.6,7741.3,3113.4,31269.9,400.3,""smooth"",""right"",""right"",""good_move"",37542.2,2758.1,2431.9,34784.1,326.2,""oops"",""up"",""up"",""good_move""]","",""
"2430","","<div style=""width:500px;"">
  <p>What determined the result of this run?</p>
  </div>","30","html-slider-response","45","425303","0.0-5.0-1.7","211","1","2025-07-23 10:48:22","1f75c3e559b7213887762d5229550c2b","89.154.153.225","Mozilla/5.0 (Macintosh; Intel Mac OS X 10_15_7) AppleWebKit/537.36 (KHTML, like Gecko) Chrome/138.0.0.0 Safari/537.36","Macintosh","Chrome","138.0.0.0","OS X","10_15_7","https://app.prolific.com/","pt-PT,pt;q=0.9,en-US;q=0.8,en;q=0.7,ca;q=0.6,fr;q=0.5,de;q=0.4,it;q=0.3","66db15814e7818d8b9593ad5","683dba2a8a9dda3513610c04","6880bc92ae773178346190a6","3","0","66db15814e7818d8b9593ad5","3","0","2025-07-23T10:55:28.238Z","","","","","","","","","","","AttribQ","","50","","","","","","","","","","","","","","","","","","","","","","","","","","","","",""
"3277","","<div style=""width:500px;"">
  <p>How much control did you have over the ball?</p>
  </div>","21","html-slider-response","46","428581","0.0-5.0-2.7","211","1","2025-07-23 10:48:22","1f75c3e559b7213887762d5229550c2b","89.154.153.225","Mozilla/5.0 (Macintosh; Intel Mac OS X 10_15_7) AppleWebKit/537.36 (KHTML, like Gecko) Chrome/138.0.0.0 Safari/537.36","Macintosh","Chrome","138.0.0.0","OS X","10_15_7","https://app.prolific.com/","pt-PT,pt;q=0.9,en-US;q=0.8,en;q=0.7,ca;q=0.6,fr;q=0.5,de;q=0.4,it;q=0.3","66db15814e7818d8b9593ad5","683dba2a8a9dda3513610c04","6880bc92ae773178346190a6","3","0","66db15814e7818d8b9593ad5","3","0","2025-07-23T10:55:31.516Z","","","","","","","","","","","ControlQ","","50","","","","","","","","","","","","","","","","","","","","","","","","","","","","",""
"3190","","<div style=""width:500px;"">
  <p>How would you describe your current emotional state?</p>
  </div>","45","html-slider-response","47","431772","0.0-5.0-3.7","211","1","2025-07-23 10:48:22","1f75c3e559b7213887762d5229550c2b","89.154.153.225","Mozilla/5.0 (Macintosh; Intel Mac OS X 10_15_7) AppleWebKit/537.36 (KHTML, like Gecko) Chrome/138.0.0.0 Safari/537.36","Macintosh","Chrome","138.0.0.0","OS X","10_15_7","https://app.prolific.com/","pt-PT,pt;q=0.9,en-US;q=0.8,en;q=0.7,ca;q=0.6,fr;q=0.5,de;q=0.4,it;q=0.3","66db15814e7818d8b9593ad5","683dba2a8a9dda3513610c04","6880bc92ae773178346190a6","3","0","66db15814e7818d8b9593ad5","3","0","2025-07-23T10:55:34.706Z","","","","","","","","","","","StressQ","","50","","","","","","","","","","","","","","","","","","","","","","","","","","","","",""
"2272","","<div style=""width:500px;"">
  <p>What best describes how you currently feel?</p>
  </div>","66","html-slider-response","48","434045","0.0-5.0-4.7","211","1","2025-07-23 10:48:22","1f75c3e559b7213887762d5229550c2b","89.154.153.225","Mozilla/5.0 (Macintosh; Intel Mac OS X 10_15_7) AppleWebKit/537.36 (KHTML, like Gecko) Chrome/138.0.0.0 Safari/537.36","Macintosh","Chrome","138.0.0.0","OS X","10_15_7","https://app.prolific.com/","pt-PT,pt;q=0.9,en-US;q=0.8,en;q=0.7,ca;q=0.6,fr;q=0.5,de;q=0.4,it;q=0.3","66db15814e7818d8b9593ad5","683dba2a8a9dda3513610c04","6880bc92ae773178346190a6","3","0","66db15814e7818d8b9593ad5","3","0","2025-07-23T10:55:36.979Z","","","","","","","","","","","MotivationQ","","50","","","","","","","","","","","","","","","","","","","","","","","","","","","","",""
"","","","","ctl-task-cpt","49","468150","0.0-5.0-0.8","211","1","2025-07-23 10:48:22","1f75c3e559b7213887762d5229550c2b","89.154.153.225","Mozilla/5.0 (Macintosh; Intel Mac OS X 10_15_7) AppleWebKit/537.36 (KHTML, like Gecko) Chrome/138.0.0.0 Safari/537.36","Macintosh","Chrome","138.0.0.0","OS X","10_15_7","https://app.prolific.com/","pt-PT,pt;q=0.9,en-US;q=0.8,en;q=0.7,ca;q=0.6,fr;q=0.5,de;q=0.4,it;q=0.3","66db15814e7818d8b9593ad5","683dba2a8a9dda3513610c04","6880bc92ae773178346190a6","3","0","66db15814e7818d8b9593ad5","3","0","2025-07-23T10:56:11.084Z","","","","","","","","","","","","","","win-only","0","g1:NW,g2:SE","0.2","9","0","435156.2","1034","6036.1","31095.8","1","4","8","6","1","-1","-2","0","0","0","1549.7","3000","-3000","[""left"",""up""]","{""num_key_presses"":9,""num_perfect"":1,""num_errors"":1,""num_randdir"":7,""num_randdir_good_moves"":1,""num_whilered"":0,""num_whileblue"":0,""num_blue"":0,""num_good_moves"":2}","[733,725.796875,0.2,733,725.796875,101.9,733,725.796875,207.1,733,725.796875,312.2,733,725.796875,416.9,733,725.796875,521.8,543,501.796875,627.2,273,179.796875,731.9,269,175.796875,836.7,269,175.796875,941.6,269,175.796875,1047.1,213,159.796875,1151.7,183,143.796875,1256.8,183,143.796875,1356.9,183,143.796875,1462.3,183,143.796875,1567,183,143.796875,1672.3,239,129.796875,1776.9,1471,-126.203125,1881.5,1471,-126.203125,1982,1471,-126.203125,2086.4,1471,-126.203125,2186.5,1471,-126.203125,2287.3,1471,-126.203125,2391.7,1471,-126.203125,2492.1,1471,-126.203125,2596.8,1471,-126.203125,2696.8,1471,-126.203125,2802,1471,-126.203125,2907.2,1471,-126.203125,3011.8,1587,777.796875,3116.8,1647,1097.796875,3216.9,1641,1097.796875,3321.3,1641,1097.796875,3421.7,1641,1097.796875,3521.9,1641,1097.796875,3626.5,1641,1097.796875,3731.9,1641,1097.796875,3836.4,1641,1097.796875,3936.4,1641,1097.796875,4041.8,1641,1097.796875,4141.8,1641,1097.796875,4241.9,1641,1097.796875,4347,1641,1097.796875,4451.7,1641,1097.796875,4557,1641,1097.796875,4662.1,1641,1097.796875,4766.6,1641,1097.796875,4866.6,1641,1097.796875,4971.8]","[1300.4,1300.4,1000,0,300.4,""smooth"",""up"",""up"",""good_move"",4373.7,3073.1,2774.7,1300.6,298.4,""oops"",""left"",""up"",""good_move"",6799.1,2425.2,2120.1,4373.9,305.1,""oops"",""left"",""right"",""bad_move"",9773.3,2973.9,2652.1,6799.4,321.8,""oops"",""left"",""down"",""bad_move"",12373.6,2600,2301.5,9773.6,298.5,""oops"",""left"",""down"",""bad_move"",14951.5,2577.6,2265.6,12373.9,312,""oops"",""left"",""down"",""bad_move"",17850.4,2898.8,2283.5,14951.6,615.3,""oops"",""left"",""down"",""bad_move"",19158.6,1308,2802.7,17850.6,-1494.6,""error"",""-"",""-"",""no_move"",22898,3739.2,2248.7,20159.5,489.8,""oops"",""up"",""right"",""bad_move""]","",""
"4470","","<div style=""width:500px;"">
  <p>What determined the result of this run?</p>
  </div>","17","html-slider-response","50","472621","0.0-5.0-1.8","211","1","2025-07-23 10:48:22","1f75c3e559b7213887762d5229550c2b","89.154.153.225","Mozilla/5.0 (Macintosh; Intel Mac OS X 10_15_7) AppleWebKit/537.36 (KHTML, like Gecko) Chrome/138.0.0.0 Safari/537.36","Macintosh","Chrome","138.0.0.0","OS X","10_15_7","https://app.prolific.com/","pt-PT,pt;q=0.9,en-US;q=0.8,en;q=0.7,ca;q=0.6,fr;q=0.5,de;q=0.4,it;q=0.3","66db15814e7818d8b9593ad5","683dba2a8a9dda3513610c04","6880bc92ae773178346190a6","3","0","66db15814e7818d8b9593ad5","3","0","2025-07-23T10:56:15.555Z","","","","","","","","","","","AttribQ","","50","","","","","","","","","","","","","","","","","","","","","","","","","","","","",""
"1729","","<div style=""width:500px;"">
  <p>How much control did you have over the ball?</p>
  </div>","8","html-slider-response","51","474351","0.0-5.0-2.8","211","1","2025-07-23 10:48:22","1f75c3e559b7213887762d5229550c2b","89.154.153.225","Mozilla/5.0 (Macintosh; Intel Mac OS X 10_15_7) AppleWebKit/537.36 (KHTML, like Gecko) Chrome/138.0.0.0 Safari/537.36","Macintosh","Chrome","138.0.0.0","OS X","10_15_7","https://app.prolific.com/","pt-PT,pt;q=0.9,en-US;q=0.8,en;q=0.7,ca;q=0.6,fr;q=0.5,de;q=0.4,it;q=0.3","66db15814e7818d8b9593ad5","683dba2a8a9dda3513610c04","6880bc92ae773178346190a6","3","0","66db15814e7818d8b9593ad5","3","0","2025-07-23T10:56:17.285Z","","","","","","","","","","","ControlQ","","50","","","","","","","","","","","","","","","","","","","","","","","","","","","","",""
"2034","","<div style=""width:500px;"">
  <p>How would you describe your current emotional state?</p>
  </div>","54","html-slider-response","52","476385","0.0-5.0-3.8","211","1","2025-07-23 10:48:22","1f75c3e559b7213887762d5229550c2b","89.154.153.225","Mozilla/5.0 (Macintosh; Intel Mac OS X 10_15_7) AppleWebKit/537.36 (KHTML, like Gecko) Chrome/138.0.0.0 Safari/537.36","Macintosh","Chrome","138.0.0.0","OS X","10_15_7","https://app.prolific.com/","pt-PT,pt;q=0.9,en-US;q=0.8,en;q=0.7,ca;q=0.6,fr;q=0.5,de;q=0.4,it;q=0.3","66db15814e7818d8b9593ad5","683dba2a8a9dda3513610c04","6880bc92ae773178346190a6","3","0","66db15814e7818d8b9593ad5","3","0","2025-07-23T10:56:19.319Z","","","","","","","","","","","StressQ","","50","","","","","","","","","","","","","","","","","","","","","","","","","","","","",""
"2025","","<div style=""width:500px;"">
  <p>What best describes how you currently feel?</p>
  </div>","66","html-slider-response","53","478411","0.0-5.0-4.8","211","1","2025-07-23 10:48:22","1f75c3e559b7213887762d5229550c2b","89.154.153.225","Mozilla/5.0 (Macintosh; Intel Mac OS X 10_15_7) AppleWebKit/537.36 (KHTML, like Gecko) Chrome/138.0.0.0 Safari/537.36","Macintosh","Chrome","138.0.0.0","OS X","10_15_7","https://app.prolific.com/","pt-PT,pt;q=0.9,en-US;q=0.8,en;q=0.7,ca;q=0.6,fr;q=0.5,de;q=0.4,it;q=0.3","66db15814e7818d8b9593ad5","683dba2a8a9dda3513610c04","6880bc92ae773178346190a6","3","0","66db15814e7818d8b9593ad5","3","0","2025-07-23T10:56:21.345Z","","","","","","","","","","","MotivationQ","","50","","","","","","","","","","","","","","","","","","","","","","","","","","","","",""
"","","","","ctl-task-cpt","54","521646","0.0-5.0-0.9","211","1","2025-07-23 10:48:22","1f75c3e559b7213887762d5229550c2b","89.154.153.225","Mozilla/5.0 (Macintosh; Intel Mac OS X 10_15_7) AppleWebKit/537.36 (KHTML, like Gecko) Chrome/138.0.0.0 Safari/537.36","Macintosh","Chrome","138.0.0.0","OS X","10_15_7","https://app.prolific.com/","pt-PT,pt;q=0.9,en-US;q=0.8,en;q=0.7,ca;q=0.6,fr;q=0.5,de;q=0.4,it;q=0.3","66db15814e7818d8b9593ad5","683dba2a8a9dda3513610c04","6880bc92ae773178346190a6","3","0","66db15814e7818d8b9593ad5","3","0","2025-07-23T10:57:04.580Z","","","","","","","","","","","","","","win-only","3","g1:SW,g2:NE","0.4","10","0","479522","1130.6","6135.5","40226.1","1","4","4","6","1","-1","-1","0","0","0","1428.9","3000","-3005","[""down"",""left""]","{""num_key_presses"":8,""num_perfect"":3,""num_errors"":0,""num_randdir"":5,""num_randdir_good_moves"":2,""num_whilered"":0,""num_whileblue"":0,""num_blue"":3,""num_good_moves"":5}","[727,733.796875,0.1,727,733.796875,104.5,727,733.796875,204.8,727,733.796875,310.2,727,733.796875,414.9,727,733.796875,515,727,733.796875,620.6,727,733.796875,724.5,727,733.796875,825.1,683,771.796875,929.6,207,1249.796875,1029.6,199,1263.796875,1134.5,191,1271.796875,1234.6,191,1271.796875,1335.5,191,1271.796875,1439.5,191,1271.796875,1539.6,193,1271.796875,1640.3,837,1249.796875,1740.5,965,1257.796875,1845,965,1257.796875,1945.2,965,1257.796875,2050,965,1257.796875,2150.1,965,1257.796875,2250.5,965,1257.796875,2354.7,965,1257.796875,2459.6,965,1257.796875,2560,965,1257.796875,2660,965,1257.796875,2764.6,965,1257.796875,2865.6,965,1257.796875,2969.7,965,1257.796875,3074.8,965,1257.796875,3179.7,965,1257.796875,3285,965,1257.796875,3385,965,1257.796875,3485.2,965,1257.796875,3585.4,965,1257.796875,3690.5,965,1257.796875,3795.4,965,1257.796875,3900.5,965,1257.796875,4004.6,965,1257.796875,4109.9,965,1257.796875,4210.5,965,1257.796875,4315.5,965,1257.796875,4420.4,965,1257.796875,4524.8,965,1257.796875,4625.5,965,1257.796875,4730.5,965,1257.796875,4834.7,965,1257.796875,4935.1]","[1393.7,1393.7,1000,0,393.7,""oops"",""down"",""down"",""good_move"",7725.5,6331.5,1750.3,5584.6,390.6,""smooth"",""down"",""down"",""good_move"",10515.9,2790.1,2460,7725.8,330.1,""smooth"",""left"",""left"",""good_move"",13617.5,3101.3,2774.2,10516.2,327.1,""oops"",""left"",""up"",""bad_move"",20691.6,7073.8,3499.5,16785.7,406.4,""oops"",""down"",""up"",""bad_move"",22985.3,2293.4,1881.5,20691.9,411.9,""oops"",""left"",""left"",""good_move"",25451.2,2465.6,2178.5,22985.6,287.1,""smooth"",""down"",""down"",""good_move"",28551.5,3100,2806.1,25451.5,293.9,""oops"",""down"",""up"",""bad_move""]","",""
"2552","","<div style=""width:500px;"">
  <p>What determined the result of this run?</p>
  </div>","31","html-slider-response","55","524199","0.0-5.0-1.9","211","1","2025-07-23 10:48:22","1f75c3e559b7213887762d5229550c2b","89.154.153.225","Mozilla/5.0 (Macintosh; Intel Mac OS X 10_15_7) AppleWebKit/537.36 (KHTML, like Gecko) Chrome/138.0.0.0 Safari/537.36","Macintosh","Chrome","138.0.0.0","OS X","10_15_7","https://app.prolific.com/","pt-PT,pt;q=0.9,en-US;q=0.8,en;q=0.7,ca;q=0.6,fr;q=0.5,de;q=0.4,it;q=0.3","66db15814e7818d8b9593ad5","683dba2a8a9dda3513610c04","6880bc92ae773178346190a6","3","0","66db15814e7818d8b9593ad5","3","0","2025-07-23T10:57:07.133Z","","","","","","","","","","","AttribQ","","50","","","","","","","","","","","","","","","","","","","","","","","","","","","","",""
"1962","","<div style=""width:500px;"">
  <p>How much control did you have over the ball?</p>
  </div>","31","html-slider-response","56","526162","0.0-5.0-2.9","211","1","2025-07-23 10:48:22","1f75c3e559b7213887762d5229550c2b","89.154.153.225","Mozilla/5.0 (Macintosh; Intel Mac OS X 10_15_7) AppleWebKit/537.36 (KHTML, like Gecko) Chrome/138.0.0.0 Safari/537.36","Macintosh","Chrome","138.0.0.0","OS X","10_15_7","https://app.prolific.com/","pt-PT,pt;q=0.9,en-US;q=0.8,en;q=0.7,ca;q=0.6,fr;q=0.5,de;q=0.4,it;q=0.3","66db15814e7818d8b9593ad5","683dba2a8a9dda3513610c04","6880bc92ae773178346190a6","3","0","66db15814e7818d8b9593ad5","3","0","2025-07-23T10:57:09.096Z","","","","","","","","","","","ControlQ","","50","","","","","","","","","","","","","","","","","","","","","","","","","","","","",""
"2647","","<div style=""width:500px;"">
  <p>How would you describe your current emotional state?</p>
  </div>","55","html-slider-response","57","528810","0.0-5.0-3.9","211","1","2025-07-23 10:48:22","1f75c3e559b7213887762d5229550c2b","89.154.153.225","Mozilla/5.0 (Macintosh; Intel Mac OS X 10_15_7) AppleWebKit/537.36 (KHTML, like Gecko) Chrome/138.0.0.0 Safari/537.36","Macintosh","Chrome","138.0.0.0","OS X","10_15_7","https://app.prolific.com/","pt-PT,pt;q=0.9,en-US;q=0.8,en;q=0.7,ca;q=0.6,fr;q=0.5,de;q=0.4,it;q=0.3","66db15814e7818d8b9593ad5","683dba2a8a9dda3513610c04","6880bc92ae773178346190a6","3","0","66db15814e7818d8b9593ad5","3","0","2025-07-23T10:57:11.744Z","","","","","","","","","","","StressQ","","50","","","","","","","","","","","","","","","","","","","","","","","","","","","","",""
"1809","","<div style=""width:500px;"">
  <p>What best describes how you currently feel?</p>
  </div>","63","html-slider-response","58","530620","0.0-5.0-4.9","211","1","2025-07-23 10:48:22","1f75c3e559b7213887762d5229550c2b","89.154.153.225","Mozilla/5.0 (Macintosh; Intel Mac OS X 10_15_7) AppleWebKit/537.36 (KHTML, like Gecko) Chrome/138.0.0.0 Safari/537.36","Macintosh","Chrome","138.0.0.0","OS X","10_15_7","https://app.prolific.com/","pt-PT,pt;q=0.9,en-US;q=0.8,en;q=0.7,ca;q=0.6,fr;q=0.5,de;q=0.4,it;q=0.3","66db15814e7818d8b9593ad5","683dba2a8a9dda3513610c04","6880bc92ae773178346190a6","3","0","66db15814e7818d8b9593ad5","3","0","2025-07-23T10:57:13.554Z","","","","","","","","","","","MotivationQ","","50","","","","","","","","","","","","","","","","","","","","","","","","","","","","",""
"","","","","ctl-task-cpt","59","570205","0.0-5.0-0.10","211","1","2025-07-23 10:48:22","1f75c3e559b7213887762d5229550c2b","89.154.153.225","Mozilla/5.0 (Macintosh; Intel Mac OS X 10_15_7) AppleWebKit/537.36 (KHTML, like Gecko) Chrome/138.0.0.0 Safari/537.36","Macintosh","Chrome","138.0.0.0","OS X","10_15_7","https://app.prolific.com/","pt-PT,pt;q=0.9,en-US;q=0.8,en;q=0.7,ca;q=0.6,fr;q=0.5,de;q=0.4,it;q=0.3","66db15814e7818d8b9593ad5","683dba2a8a9dda3513610c04","6880bc92ae773178346190a6","3","0","66db15814e7818d8b9593ad5","3","0","2025-07-23T10:57:53.139Z","","","","","","","","","","","","","","win-only","0","g1:NW,g2:SE","0.5","11","0","531730.9","1117","6121.1","36575.9","1","4","4","6","2","-4","-4","0","0","0","1841.7","3000","-3005","[""down"",""right""]","{""num_key_presses"":8,""num_perfect"":5,""num_errors"":0,""num_randdir"":3,""num_randdir_good_moves"":0,""num_whilered"":0,""num_whileblue"":0,""num_blue"":1,""num_good_moves"":5}","[711,743.796875,0.2,711,743.796875,103.2,711,743.796875,208.2,711,743.796875,309,711,743.796875,413.8,711,743.796875,514,711,743.796875,614.1,711,743.796875,714.1,711,743.796875,818.2,567,647.796875,919.1,427,479.796875,1023.6,427,479.796875,1128.9,427,479.796875,1229.2,1007,1219.796875,1333.7,1309,1525.796875,1434.3,1337,1465.796875,1538.6,1347,1405.796875,1643.6,1347,1405.796875,1743.8,1347,1405.796875,1844.7,1347,1405.796875,1948.2,1369,1397.796875,2048.9,1853,1205.796875,2149.7,1905,1189.796875,2254,1905,1189.796875,2358.3,1905,1189.796875,2458.9,1905,1189.796875,2564.2,1905,1189.796875,2668.8,1905,1189.796875,2773.2,1905,1189.796875,2873.3,1905,1189.796875,2973.3,1905,1189.796875,3078.7,1905,1189.796875,3178.8,1905,1189.796875,3279,1905,1189.796875,3383.4,1905,1189.796875,3483.7,1905,1189.796875,3584,1905,1189.796875,3688.1,1905,1189.796875,3788.2,1905,1189.796875,3888.2,1905,1189.796875,3988.7,1905,1189.796875,4094,1905,1189.796875,4198.6,1905,1189.796875,4299.1,1905,1189.796875,4399.1,1905,1189.796875,4503.4,1905,1189.796875,4608.6,1905,1189.796875,4708.7,1905,1189.796875,4813.8,1905,1189.796875,4914.2]","[1363.1,1363.1,1000,0,363.1,""smooth"",""down"",""down"",""good_move"",4590,3226.7,2865.6,1363.3,361.1,""smooth"",""down"",""down"",""good_move"",8289.1,3698.9,3343.7,4590.2,355.2,""smooth"",""right"",""right"",""good_move"",15255.2,6965.9,3050.6,11775,429.7,""smooth"",""right"",""right"",""good_move"",18371.7,3116.1,2756.1,15255.6,360,""smooth"",""down"",""down"",""good_move"",21364.9,2992.8,2696.3,18372.1,296.5,""oops"",""right"",""left"",""bad_move"",24404.7,3039.5,2756.2,21365.2,283.3,""oops"",""right"",""up"",""bad_move"",27490,3085.2,2784.7,24404.8,300.5,""oops"",""down"",""left"",""bad_move""]","",""
"2214","","<div style=""width:500px;"">
  <p>What determined the result of this run?</p>
  </div>","27","html-slider-response","60","572420","0.0-5.0-1.10","211","1","2025-07-23 10:48:22","1f75c3e559b7213887762d5229550c2b","89.154.153.225","Mozilla/5.0 (Macintosh; Intel Mac OS X 10_15_7) AppleWebKit/537.36 (KHTML, like Gecko) Chrome/138.0.0.0 Safari/537.36","Macintosh","Chrome","138.0.0.0","OS X","10_15_7","https://app.prolific.com/","pt-PT,pt;q=0.9,en-US;q=0.8,en;q=0.7,ca;q=0.6,fr;q=0.5,de;q=0.4,it;q=0.3","66db15814e7818d8b9593ad5","683dba2a8a9dda3513610c04","6880bc92ae773178346190a6","3","0","66db15814e7818d8b9593ad5","3","0","2025-07-23T10:57:55.354Z","","","","","","","","","","","AttribQ","","50","","","","","","","","","","","","","","","","","","","","","","","","","","","","",""
"2679","","<div style=""width:500px;"">
  <p>How much control did you have over the ball?</p>
  </div>","20","html-slider-response","61","575100","0.0-5.0-2.10","211","1","2025-07-23 10:48:22","1f75c3e559b7213887762d5229550c2b","89.154.153.225","Mozilla/5.0 (Macintosh; Intel Mac OS X 10_15_7) AppleWebKit/537.36 (KHTML, like Gecko) Chrome/138.0.0.0 Safari/537.36","Macintosh","Chrome","138.0.0.0","OS X","10_15_7","https://app.prolific.com/","pt-PT,pt;q=0.9,en-US;q=0.8,en;q=0.7,ca;q=0.6,fr;q=0.5,de;q=0.4,it;q=0.3","66db15814e7818d8b9593ad5","683dba2a8a9dda3513610c04","6880bc92ae773178346190a6","3","0","66db15814e7818d8b9593ad5","3","0","2025-07-23T10:57:58.034Z","","","","","","","","","","","ControlQ","","50","","","","","","","","","","","","","","","","","","","","","","","","","","","","",""
"2910","","<div style=""width:500px;"">
  <p>How would you describe your current emotional state?</p>
  </div>","58","html-slider-response","62","578011","0.0-5.0-3.10","211","1","2025-07-23 10:48:22","1f75c3e559b7213887762d5229550c2b","89.154.153.225","Mozilla/5.0 (Macintosh; Intel Mac OS X 10_15_7) AppleWebKit/537.36 (KHTML, like Gecko) Chrome/138.0.0.0 Safari/537.36","Macintosh","Chrome","138.0.0.0","OS X","10_15_7","https://app.prolific.com/","pt-PT,pt;q=0.9,en-US;q=0.8,en;q=0.7,ca;q=0.6,fr;q=0.5,de;q=0.4,it;q=0.3","66db15814e7818d8b9593ad5","683dba2a8a9dda3513610c04","6880bc92ae773178346190a6","3","0","66db15814e7818d8b9593ad5","3","0","2025-07-23T10:58:00.945Z","","","","","","","","","","","StressQ","","50","","","","","","","","","","","","","","","","","","","","","","","","","","","","",""
"1722","","<div style=""width:500px;"">
  <p>What best describes how you currently feel?</p>
  </div>","47","html-slider-response","63","579734","0.0-5.0-4.10","211","1","2025-07-23 10:48:22","1f75c3e559b7213887762d5229550c2b","89.154.153.225","Mozilla/5.0 (Macintosh; Intel Mac OS X 10_15_7) AppleWebKit/537.36 (KHTML, like Gecko) Chrome/138.0.0.0 Safari/537.36","Macintosh","Chrome","138.0.0.0","OS X","10_15_7","https://app.prolific.com/","pt-PT,pt;q=0.9,en-US;q=0.8,en;q=0.7,ca;q=0.6,fr;q=0.5,de;q=0.4,it;q=0.3","66db15814e7818d8b9593ad5","683dba2a8a9dda3513610c04","6880bc92ae773178346190a6","3","0","66db15814e7818d8b9593ad5","3","0","2025-07-23T10:58:02.668Z","","","","","","","","","","","MotivationQ","","50","","","","","","","","","","","","","","","","","","","","","","","","","","","","",""
"","","","","ctl-task-cpt","64","609613","0.0-5.0-0.11","211","1","2025-07-23 10:48:22","1f75c3e559b7213887762d5229550c2b","89.154.153.225","Mozilla/5.0 (Macintosh; Intel Mac OS X 10_15_7) AppleWebKit/537.36 (KHTML, like Gecko) Chrome/138.0.0.0 Safari/537.36","Macintosh","Chrome","138.0.0.0","OS X","10_15_7","https://app.prolific.com/","pt-PT,pt;q=0.9,en-US;q=0.8,en;q=0.7,ca;q=0.6,fr;q=0.5,de;q=0.4,it;q=0.3","66db15814e7818d8b9593ad5","683dba2a8a9dda3513610c04","6880bc92ae773178346190a6","3","0","66db15814e7818d8b9593ad5","3","0","2025-07-23T10:58:32.547Z","","","","","","","","","","","","","","win-only","2","g1:SE,g2:NW","0.6","12","0","580845.2","1117","6120.7","26870.2","1","4","8","6","1","-1","-1","0","0","0","1332.4","3000","-2995","[""down"",""right""]","{""num_key_presses"":6,""num_perfect"":3,""num_errors"":0,""num_randdir"":3,""num_randdir_good_moves"":0,""num_whilered"":0,""num_whileblue"":0,""num_blue"":1,""num_good_moves"":3}","[743,743.796875,0.2,743,743.796875,103.4,743,743.796875,204,743,743.796875,308.8,743,743.796875,409.2,743,743.796875,514.2,743,743.796875,618.4,743,743.796875,718.4,799,775.796875,819,1305,1255.796875,923.5,1357,1299.796875,1028.6,1357,1301.796875,1133.3,1357,1301.796875,1234,1357,1301.796875,1338.9,1357,1301.796875,1439.1,1357,1301.796875,1543.1,1357,1301.796875,1643.6,1357,1301.796875,1748.6,1357,1301.796875,1849.2,1357,1301.796875,1954.2,1357,1301.796875,2058.2,1357,1301.796875,2158.5,1357,1301.796875,2258.8,1357,1301.796875,2359.1,1357,1301.796875,2463.4,1357,1301.796875,2563.6,1357,1301.796875,2663.8,1357,1301.796875,2764.2,1357,1301.796875,2864.2,1357,1301.796875,2968.4,1357,1301.796875,3073.4,1357,1301.796875,3173.4,1357,1301.796875,3274,1357,1301.796875,3378.1,1357,1301.796875,3478.1,1357,1301.796875,3579.1,1357,1301.796875,3679.1,1357,1301.796875,3783.4,1357,1301.796875,3883.8,1229,1303.796875,3984.3,1171,1215.796875,4088.7,1171,1215.796875,4189,1197,1213.796875,4289,1465,1215.796875,4393.7,1481,1215.796875,4494.2,1465,1209.796875,4598.2,1463,1209.796875,4698.7,1463,1209.796875,4798.8,1463,1209.796875,4904.3]","[1372,1372,1000,0,372,""smooth"",""down"",""down"",""good_move"",3705.5,2333.2,1993,1372.3,340.2,""smooth"",""down"",""down"",""good_move"",6480.5,2775,2388.5,3705.5,386.5,""smooth"",""right"",""right"",""good_move"",9247.2,2766.6,2424.6,6480.6,342,""oops"",""right"",""up"",""bad_move"",12147.5,2900.2,1750.5,9247.3,1149.7,""oops"",""down"",""left"",""bad_move"",18738.9,6591.3,2834.7,15595,309.2,""oops"",""right"",""up"",""bad_move""]","",""
"6646","","<div style=""width:500px;"">
  <p>What determined the result of this run?</p>
  </div>","39","html-slider-response","65","616260","0.0-5.0-1.11","211","1","2025-07-23 10:48:22","1f75c3e559b7213887762d5229550c2b","89.154.153.225","Mozilla/5.0 (Macintosh; Intel Mac OS X 10_15_7) AppleWebKit/537.36 (KHTML, like Gecko) Chrome/138.0.0.0 Safari/537.36","Macintosh","Chrome","138.0.0.0","OS X","10_15_7","https://app.prolific.com/","pt-PT,pt;q=0.9,en-US;q=0.8,en;q=0.7,ca;q=0.6,fr;q=0.5,de;q=0.4,it;q=0.3","66db15814e7818d8b9593ad5","683dba2a8a9dda3513610c04","6880bc92ae773178346190a6","3","0","66db15814e7818d8b9593ad5","3","0","2025-07-23T10:58:39.194Z","","","","","","","","","","","AttribQ","","50","","","","","","","","","","","","","","","","","","","","","","","","","","","","",""
"1762","","<div style=""width:500px;"">
  <p>How much control did you have over the ball?</p>
  </div>","34","html-slider-response","66","618022","0.0-5.0-2.11","211","1","2025-07-23 10:48:22","1f75c3e559b7213887762d5229550c2b","89.154.153.225","Mozilla/5.0 (Macintosh; Intel Mac OS X 10_15_7) AppleWebKit/537.36 (KHTML, like Gecko) Chrome/138.0.0.0 Safari/537.36","Macintosh","Chrome","138.0.0.0","OS X","10_15_7","https://app.prolific.com/","pt-PT,pt;q=0.9,en-US;q=0.8,en;q=0.7,ca;q=0.6,fr;q=0.5,de;q=0.4,it;q=0.3","66db15814e7818d8b9593ad5","683dba2a8a9dda3513610c04","6880bc92ae773178346190a6","3","0","66db15814e7818d8b9593ad5","3","0","2025-07-23T10:58:40.957Z","","","","","","","","","","","ControlQ","","50","","","","","","","","","","","","","","","","","","","","","","","","","","","","",""
"5103","","<div style=""width:500px;"">
  <p>How would you describe your current emotional state?</p>
  </div>","62","html-slider-response","67","623126","0.0-5.0-3.11","211","1","2025-07-23 10:48:22","1f75c3e559b7213887762d5229550c2b","89.154.153.225","Mozilla/5.0 (Macintosh; Intel Mac OS X 10_15_7) AppleWebKit/537.36 (KHTML, like Gecko) Chrome/138.0.0.0 Safari/537.36","Macintosh","Chrome","138.0.0.0","OS X","10_15_7","https://app.prolific.com/","pt-PT,pt;q=0.9,en-US;q=0.8,en;q=0.7,ca;q=0.6,fr;q=0.5,de;q=0.4,it;q=0.3","66db15814e7818d8b9593ad5","683dba2a8a9dda3513610c04","6880bc92ae773178346190a6","3","0","66db15814e7818d8b9593ad5","3","0","2025-07-23T10:58:46.060Z","","","","","","","","","","","StressQ","","50","","","","","","","","","","","","","","","","","","","","","","","","","","","","",""
"7080","","<div style=""width:500px;"">
  <p>What best describes how you currently feel?</p>
  </div>","47","html-slider-response","68","630206","0.0-5.0-4.11","211","1","2025-07-23 10:48:22","1f75c3e559b7213887762d5229550c2b","89.154.153.225","Mozilla/5.0 (Macintosh; Intel Mac OS X 10_15_7) AppleWebKit/537.36 (KHTML, like Gecko) Chrome/138.0.0.0 Safari/537.36","Macintosh","Chrome","138.0.0.0","OS X","10_15_7","https://app.prolific.com/","pt-PT,pt;q=0.9,en-US;q=0.8,en;q=0.7,ca;q=0.6,fr;q=0.5,de;q=0.4,it;q=0.3","66db15814e7818d8b9593ad5","683dba2a8a9dda3513610c04","6880bc92ae773178346190a6","3","0","66db15814e7818d8b9593ad5","3","0","2025-07-23T10:58:53.140Z","","","","","","","","","","","MotivationQ","","50","","","","","","","","","","","","","","","","","","","","","","","","","","","","",""
"","","","","ctl-task-cpt","69","662062","0.0-5.0-0.12","211","1","2025-07-23 10:48:22","1f75c3e559b7213887762d5229550c2b","89.154.153.225","Mozilla/5.0 (Macintosh; Intel Mac OS X 10_15_7) AppleWebKit/537.36 (KHTML, like Gecko) Chrome/138.0.0.0 Safari/537.36","Macintosh","Chrome","138.0.0.0","OS X","10_15_7","https://app.prolific.com/","pt-PT,pt;q=0.9,en-US;q=0.8,en;q=0.7,ca;q=0.6,fr;q=0.5,de;q=0.4,it;q=0.3","66db15814e7818d8b9593ad5","683dba2a8a9dda3513610c04","6880bc92ae773178346190a6","3","0","66db15814e7818d8b9593ad5","3","0","2025-07-23T10:59:24.996Z","","","","","","","","","","","","","","win-only","3","g1:SW,g2:NE","0.7","13","0","631317.6","4356.7","9360.8","28845.9","1","4","4","6","1","1","1","1","0","0.007575757575757576","2832.1","3000","615","[""down"",""left""]","{""num_key_presses"":6,""num_perfect"":4,""num_errors"":0,""num_randdir"":2,""num_randdir_good_moves"":1,""num_whilered"":0,""num_whileblue"":0,""num_blue"":1,""num_good_moves"":5}","[725,731.796875,0.1,725,731.796875,103.6,725,731.796875,204.2,725,731.796875,309.2,725,731.796875,413.6,725,731.796875,513.9,725,731.796875,618.5,725,731.796875,718.8,725,731.796875,819.2,725,731.796875,923.4,725,731.796875,1023.6,725,731.796875,1124,725,731.796875,1224.1,725,731.796875,1328.7,725,731.796875,1433.8,725,731.796875,1534.5,725,731.796875,1638.9,725,731.796875,1739.1,725,731.796875,1844.6,261,629.796875,1949.2,107,627.796875,2053.7,97,681.796875,2153.8,239,903.796875,2254.3,313,1041.796875,2358.5,161,1247.796875,2459.6,125,1337.796875,2563.6,117,1395.796875,2663.9,113,1401.796875,2764,113,1401.796875,2864.1,113,1401.796875,2964.2,113,1401.796875,3064.3,113,1401.796875,3168.7,113,1401.796875,3274,113,1401.796875,3374,113,1401.796875,3474.1,113,1401.796875,3578.8,113,1401.796875,3684.2,113,1401.796875,3788.6,113,1401.796875,3888.6,113,1401.796875,3988.9,113,1401.796875,4094.4,113,1401.796875,4198.9,113,1401.796875,4299.2,113,1401.796875,4404.5,113,1401.796875,4509.1,113,1401.796875,4609.1,113,1401.796875,4714,113,1401.796875,4818.5,113,1401.796875,4918.9]","[1355.7,1355.7,1000,0,355.7,""smooth"",""down"",""down"",""good_move"",7378,6022.3,2181.3,4799.5,397.3,""oops"",""left"",""down"",""good_move"",10238.9,2860.4,2536.3,7378.5,324.1,""oops"",""left"",""right"",""bad_move"",13255.8,3016.7,2346.9,10239.2,669.7,""smooth"",""left"",""left"",""good_move"",16946.7,3690.6,3298.6,13256.1,392,""smooth"",""left"",""left"",""good_move"",19397.9,2451.1,2165.6,16946.9,285.5,""smooth"",""left"",""left"",""good_move""]","",""
"1878","","<div style=""width:500px;"">
  <p>What determined the result of this run?</p>
  </div>","45","html-slider-response","70","663940","0.0-5.0-1.12","211","1","2025-07-23 10:48:22","1f75c3e559b7213887762d5229550c2b","89.154.153.225","Mozilla/5.0 (Macintosh; Intel Mac OS X 10_15_7) AppleWebKit/537.36 (KHTML, like Gecko) Chrome/138.0.0.0 Safari/537.36","Macintosh","Chrome","138.0.0.0","OS X","10_15_7","https://app.prolific.com/","pt-PT,pt;q=0.9,en-US;q=0.8,en;q=0.7,ca;q=0.6,fr;q=0.5,de;q=0.4,it;q=0.3","66db15814e7818d8b9593ad5","683dba2a8a9dda3513610c04","6880bc92ae773178346190a6","3","0","66db15814e7818d8b9593ad5","3","0","2025-07-23T10:59:26.875Z","","","","","","","","","","","AttribQ","","50","","","","","","","","","","","","","","","","","","","","","","","","","","","","",""
"2592","","<div style=""width:500px;"">
  <p>How much control did you have over the ball?</p>
  </div>","42","html-slider-response","71","666533","0.0-5.0-2.12","211","1","2025-07-23 10:48:22","1f75c3e559b7213887762d5229550c2b","89.154.153.225","Mozilla/5.0 (Macintosh; Intel Mac OS X 10_15_7) AppleWebKit/537.36 (KHTML, like Gecko) Chrome/138.0.0.0 Safari/537.36","Macintosh","Chrome","138.0.0.0","OS X","10_15_7","https://app.prolific.com/","pt-PT,pt;q=0.9,en-US;q=0.8,en;q=0.7,ca;q=0.6,fr;q=0.5,de;q=0.4,it;q=0.3","66db15814e7818d8b9593ad5","683dba2a8a9dda3513610c04","6880bc92ae773178346190a6","3","0","66db15814e7818d8b9593ad5","3","0","2025-07-23T10:59:29.467Z","","","","","","","","","","","ControlQ","","50","","","","","","","","","","","","","","","","","","","","","","","","","","","","",""
"2950","","<div style=""width:500px;"">
  <p>How would you describe your current emotional state?</p>
  </div>","57","html-slider-response","72","669484","0.0-5.0-3.12","211","1","2025-07-23 10:48:22","1f75c3e559b7213887762d5229550c2b","89.154.153.225","Mozilla/5.0 (Macintosh; Intel Mac OS X 10_15_7) AppleWebKit/537.36 (KHTML, like Gecko) Chrome/138.0.0.0 Safari/537.36","Macintosh","Chrome","138.0.0.0","OS X","10_15_7","https://app.prolific.com/","pt-PT,pt;q=0.9,en-US;q=0.8,en;q=0.7,ca;q=0.6,fr;q=0.5,de;q=0.4,it;q=0.3","66db15814e7818d8b9593ad5","683dba2a8a9dda3513610c04","6880bc92ae773178346190a6","3","0","66db15814e7818d8b9593ad5","3","0","2025-07-23T10:59:32.418Z","","","","","","","","","","","StressQ","","50","","","","","","","","","","","","","","","","","","","","","","","","","","","","",""
"3205","","<div style=""width:500px;"">
  <p>What best describes how you currently feel?</p>
  </div>","38","html-slider-response","73","672689","0.0-5.0-4.12","211","1","2025-07-23 10:48:22","1f75c3e559b7213887762d5229550c2b","89.154.153.225","Mozilla/5.0 (Macintosh; Intel Mac OS X 10_15_7) AppleWebKit/537.36 (KHTML, like Gecko) Chrome/138.0.0.0 Safari/537.36","Macintosh","Chrome","138.0.0.0","OS X","10_15_7","https://app.prolific.com/","pt-PT,pt;q=0.9,en-US;q=0.8,en;q=0.7,ca;q=0.6,fr;q=0.5,de;q=0.4,it;q=0.3","66db15814e7818d8b9593ad5","683dba2a8a9dda3513610c04","6880bc92ae773178346190a6","3","0","66db15814e7818d8b9593ad5","3","0","2025-07-23T10:59:35.623Z","","","","","","","","","","","MotivationQ","","50","","","","","","","","","","","","","","","","","","","","","","","","","","","","",""
"","","","","ctl-task-cpt","74","699874","0.0-5.0-0.13","211","1","2025-07-23 10:48:22","1f75c3e559b7213887762d5229550c2b","89.154.153.225","Mozilla/5.0 (Macintosh; Intel Mac OS X 10_15_7) AppleWebKit/537.36 (KHTML, like Gecko) Chrome/138.0.0.0 Safari/537.36","Macintosh","Chrome","138.0.0.0","OS X","10_15_7","https://app.prolific.com/","pt-PT,pt;q=0.9,en-US;q=0.8,en;q=0.7,ca;q=0.6,fr;q=0.5,de;q=0.4,it;q=0.3","66db15814e7818d8b9593ad5","683dba2a8a9dda3513610c04","6880bc92ae773178346190a6","3","0","66db15814e7818d8b9593ad5","3","0","2025-07-23T11:00:02.808Z","","","","","","","","","","","","","","win-only","2","g1:SE,g2:NW","0.8","14","0","673800.5","3482","8485.2","24155.3","1","4","8","6","1","1","1","2","1","0.015151515151515152","1174","3000","1675","[""down"",""right""]","{""num_key_presses"":4,""num_perfect"":4,""num_errors"":0,""num_randdir"":0,""num_randdir_good_moves"":0,""num_whilered"":0,""num_whileblue"":0,""num_blue"":1,""num_good_moves"":4}","[725,739.796875,0.1,725,739.796875,103.4,725,739.796875,208.3,755,745.796875,314.3,933,813.796875,418.3,965,833.796875,518.7,973,837.796875,619.1,973,837.796875,723.4,1091,1051.796875,828.7,1277,1395.796875,934.2,1277,1395.796875,1034.2,1277,1395.796875,1139.3,1277,1395.796875,1243.2,1277,1395.796875,1343.3,1591,1127.796875,1443.6,1609,1113.796875,1543.7,1609,1113.796875,1644.1,1609,1113.796875,1749.3,1609,1113.796875,1853.5,1609,1113.796875,1954.3,1609,1113.796875,2059.1,1609,1113.796875,2163.2,1609,1113.796875,2263.9,1609,1113.796875,2364.4,1609,1113.796875,2469,1609,1113.796875,2573.7,1609,1113.796875,2678.6,1609,1113.796875,2778.7,1609,1113.796875,2883.5,1609,1113.796875,2983.9,1609,1113.796875,3088.9,1609,1113.796875,3194,1609,1113.796875,3298.6,1609,1113.796875,3398.9,1609,1113.796875,3499.1,1609,1113.796875,3603.4,1609,1113.796875,3704.2,1609,1113.796875,3808.7,1609,1113.796875,3908.9,1609,1113.796875,4013.5,1609,1113.796875,4114,1609,1113.796875,4218.8,1609,1113.796875,4319,1609,1113.796875,4423.5,1609,1113.796875,4523.5,1609,1113.796875,4628.9,1609,1113.796875,4733.1,1609,1113.796875,4833.6,1609,1113.796875,4933.6]","[1339.8,1339.8,1000,0,339.8,""smooth"",""down"",""down"",""good_move"",4027,2687.1,2351.9,1340,335.2,""smooth"",""down"",""down"",""good_move"",11794.5,7767.3,3012.5,8435.2,346.8,""smooth"",""right"",""right"",""good_move"",15577,3782.3,3452,11794.7,330.3,""smooth"",""right"",""right"",""good_move""]","",""
"2886","","<div style=""width:500px;"">
  <p>What determined the result of this run?</p>
  </div>","54","html-slider-response","75","702762","0.0-5.0-1.13","211","1","2025-07-23 10:48:22","1f75c3e559b7213887762d5229550c2b","89.154.153.225","Mozilla/5.0 (Macintosh; Intel Mac OS X 10_15_7) AppleWebKit/537.36 (KHTML, like Gecko) Chrome/138.0.0.0 Safari/537.36","Macintosh","Chrome","138.0.0.0","OS X","10_15_7","https://app.prolific.com/","pt-PT,pt;q=0.9,en-US;q=0.8,en;q=0.7,ca;q=0.6,fr;q=0.5,de;q=0.4,it;q=0.3","66db15814e7818d8b9593ad5","683dba2a8a9dda3513610c04","6880bc92ae773178346190a6","3","0","66db15814e7818d8b9593ad5","3","0","2025-07-23T11:00:05.696Z","","","","","","","","","","","AttribQ","","50","","","","","","","","","","","","","","","","","","","","","","","","","","","","",""
"3142","","<div style=""width:500px;"">
  <p>How much control did you have over the ball?</p>
  </div>","62","html-slider-response","76","705905","0.0-5.0-2.13","211","1","2025-07-23 10:48:22","1f75c3e559b7213887762d5229550c2b","89.154.153.225","Mozilla/5.0 (Macintosh; Intel Mac OS X 10_15_7) AppleWebKit/537.36 (KHTML, like Gecko) Chrome/138.0.0.0 Safari/537.36","Macintosh","Chrome","138.0.0.0","OS X","10_15_7","https://app.prolific.com/","pt-PT,pt;q=0.9,en-US;q=0.8,en;q=0.7,ca;q=0.6,fr;q=0.5,de;q=0.4,it;q=0.3","66db15814e7818d8b9593ad5","683dba2a8a9dda3513610c04","6880bc92ae773178346190a6","3","0","66db15814e7818d8b9593ad5","3","0","2025-07-23T11:00:08.839Z","","","","","","","","","","","ControlQ","","50","","","","","","","","","","","","","","","","","","","","","","","","","","","","",""
"2911","","<div style=""width:500px;"">
  <p>How would you describe your current emotional state?</p>
  </div>","54","html-slider-response","77","708817","0.0-5.0-3.13","211","1","2025-07-23 10:48:22","1f75c3e559b7213887762d5229550c2b","89.154.153.225","Mozilla/5.0 (Macintosh; Intel Mac OS X 10_15_7) AppleWebKit/537.36 (KHTML, like Gecko) Chrome/138.0.0.0 Safari/537.36","Macintosh","Chrome","138.0.0.0","OS X","10_15_7","https://app.prolific.com/","pt-PT,pt;q=0.9,en-US;q=0.8,en;q=0.7,ca;q=0.6,fr;q=0.5,de;q=0.4,it;q=0.3","66db15814e7818d8b9593ad5","683dba2a8a9dda3513610c04","6880bc92ae773178346190a6","3","0","66db15814e7818d8b9593ad5","3","0","2025-07-23T11:00:11.751Z","","","","","","","","","","","StressQ","","50","","","","","","","","","","","","","","","","","","","","","","","","","","","","",""
"2616","","<div style=""width:500px;"">
  <p>What best describes how you currently feel?</p>
  </div>","47","html-slider-response","78","711434","0.0-5.0-4.13","211","1","2025-07-23 10:48:22","1f75c3e559b7213887762d5229550c2b","89.154.153.225","Mozilla/5.0 (Macintosh; Intel Mac OS X 10_15_7) AppleWebKit/537.36 (KHTML, like Gecko) Chrome/138.0.0.0 Safari/537.36","Macintosh","Chrome","138.0.0.0","OS X","10_15_7","https://app.prolific.com/","pt-PT,pt;q=0.9,en-US;q=0.8,en;q=0.7,ca;q=0.6,fr;q=0.5,de;q=0.4,it;q=0.3","66db15814e7818d8b9593ad5","683dba2a8a9dda3513610c04","6880bc92ae773178346190a6","3","0","66db15814e7818d8b9593ad5","3","0","2025-07-23T11:00:14.368Z","","","","","","","","","","","MotivationQ","","50","","","","","","","","","","","","","","","","","","","","","","","","","","","","",""
"","","","","ctl-task-cpt","79","730772","0.0-5.0-0.14","211","1","2025-07-23 10:48:22","1f75c3e559b7213887762d5229550c2b","89.154.153.225","Mozilla/5.0 (Macintosh; Intel Mac OS X 10_15_7) AppleWebKit/537.36 (KHTML, like Gecko) Chrome/138.0.0.0 Safari/537.36","Macintosh","Chrome","138.0.0.0","OS X","10_15_7","https://app.prolific.com/","pt-PT,pt;q=0.9,en-US;q=0.8,en;q=0.7,ca;q=0.6,fr;q=0.5,de;q=0.4,it;q=0.3","66db15814e7818d8b9593ad5","683dba2a8a9dda3513610c04","6880bc92ae773178346190a6","3","0","66db15814e7818d8b9593ad5","3","0","2025-07-23T11:00:33.706Z","","","","","","","","","","","","","","win-only","2","g1:SE,g2:NW","0.9","15","0","712521.8","1079.5","6080.8","16325.1","1","4","8","6","1","1","1","3","2","0.022727272727272728","1650.8","3000","1700","[""down"",""right""]","{""num_key_presses"":4,""num_perfect"":3,""num_errors"":0,""num_randdir"":1,""num_randdir_good_moves"":1,""num_whilered"":0,""num_whileblue"":0,""num_blue"":0,""num_good_moves"":4}","[731,725.796875,0.2,731,725.796875,100.7,731,725.796875,201.6,731,725.796875,301.6,731,725.796875,401.7,731,725.796875,505.7,731,725.796875,605.8,733,725.796875,705.9,1207,1351.796875,806,1323,1463.796875,910.8,1323,1463.796875,1011.5,1323,1463.796875,1111.6,1323,1463.796875,1213.1,1323,1463.796875,1316.6,1339,1429.796875,1416.6,1359,1375.796875,1521.6,1359,1375.796875,1626.8,1359,1375.796875,1731,1387,1365.796875,1836.5,1969,1055.796875,1940.8,1969,1055.796875,2046.6,1969,1055.796875,2151.5,1969,1055.796875,2256.5,1969,1055.796875,2361.3,1969,1055.796875,2466.3,1969,1055.796875,2571.3,1969,1055.796875,2676.6,1969,1055.796875,2782.3,1969,1055.796875,2886.1,1969,1055.796875,2991.7,1969,1055.796875,3096.5,1969,1055.796875,3201.2,1969,1055.796875,3306.3,1969,1055.796875,3406.5,1969,1055.796875,3511.1,1969,1055.796875,3615.9,1969,1055.796875,3716.3,1969,1055.796875,3821.7,1969,1055.796875,3926.1,1969,1055.796875,4026.5,1969,1055.796875,4126.7,1969,1055.796875,4230.8,1969,1055.796875,4330.8,1969,1055.796875,4431.4,1969,1055.796875,4536,1969,1055.796875,4636.1,1969,1055.796875,4736.1,1969,1055.796875,4840.6,1969,1055.796875,4940.9]","[1338.9,1339,1000,0,339,""oops"",""down"",""right"",""good_move"",4581.2,3241.8,2903.1,1339.5,338.6,""smooth"",""down"",""down"",""good_move"",7557.9,2976.4,2644.2,4581.5,332.2,""smooth"",""down"",""down"",""good_move"",10157.1,2599.1,2279.1,7558,320,""smooth"",""right"",""right"",""good_move""]","",""
"2772","","<div style=""width:500px;"">
  <p>What determined the result of this run?</p>
  </div>","76","html-slider-response","80","733544","0.0-5.0-1.14","211","1","2025-07-23 10:48:22","1f75c3e559b7213887762d5229550c2b","89.154.153.225","Mozilla/5.0 (Macintosh; Intel Mac OS X 10_15_7) AppleWebKit/537.36 (KHTML, like Gecko) Chrome/138.0.0.0 Safari/537.36","Macintosh","Chrome","138.0.0.0","OS X","10_15_7","https://app.prolific.com/","pt-PT,pt;q=0.9,en-US;q=0.8,en;q=0.7,ca;q=0.6,fr;q=0.5,de;q=0.4,it;q=0.3","66db15814e7818d8b9593ad5","683dba2a8a9dda3513610c04","6880bc92ae773178346190a6","3","0","66db15814e7818d8b9593ad5","3","0","2025-07-23T11:00:36.478Z","","","","","","","","","","","AttribQ","","50","","","","","","","","","","","","","","","","","","","","","","","","","","","","",""
"2598","","<div style=""width:500px;"">
  <p>How much control did you have over the ball?</p>
  </div>","65","html-slider-response","81","736143","0.0-5.0-2.14","211","1","2025-07-23 10:48:22","1f75c3e559b7213887762d5229550c2b","89.154.153.225","Mozilla/5.0 (Macintosh; Intel Mac OS X 10_15_7) AppleWebKit/537.36 (KHTML, like Gecko) Chrome/138.0.0.0 Safari/537.36","Macintosh","Chrome","138.0.0.0","OS X","10_15_7","https://app.prolific.com/","pt-PT,pt;q=0.9,en-US;q=0.8,en;q=0.7,ca;q=0.6,fr;q=0.5,de;q=0.4,it;q=0.3","66db15814e7818d8b9593ad5","683dba2a8a9dda3513610c04","6880bc92ae773178346190a6","3","0","66db15814e7818d8b9593ad5","3","0","2025-07-23T11:00:39.077Z","","","","","","","","","","","ControlQ","","50","","","","","","","","","","","","","","","","","","","","","","","","","","","","",""
"4489","","<div style=""width:500px;"">
  <p>How would you describe your current emotional state?</p>
  </div>","52","html-slider-response","82","740632","0.0-5.0-3.14","211","1","2025-07-23 10:48:22","1f75c3e559b7213887762d5229550c2b","89.154.153.225","Mozilla/5.0 (Macintosh; Intel Mac OS X 10_15_7) AppleWebKit/537.36 (KHTML, like Gecko) Chrome/138.0.0.0 Safari/537.36","Macintosh","Chrome","138.0.0.0","OS X","10_15_7","https://app.prolific.com/","pt-PT,pt;q=0.9,en-US;q=0.8,en;q=0.7,ca;q=0.6,fr;q=0.5,de;q=0.4,it;q=0.3","66db15814e7818d8b9593ad5","683dba2a8a9dda3513610c04","6880bc92ae773178346190a6","3","0","66db15814e7818d8b9593ad5","3","0","2025-07-23T11:00:43.567Z","","","","","","","","","","","StressQ","","50","","","","","","","","","","","","","","","","","","","","","","","","","","","","",""
"1977","","<div style=""width:500px;"">
  <p>What best describes how you currently feel?</p>
  </div>","44","html-slider-response","83","742610","0.0-5.0-4.14","211","1","2025-07-23 10:48:22","1f75c3e559b7213887762d5229550c2b","89.154.153.225","Mozilla/5.0 (Macintosh; Intel Mac OS X 10_15_7) AppleWebKit/537.36 (KHTML, like Gecko) Chrome/138.0.0.0 Safari/537.36","Macintosh","Chrome","138.0.0.0","OS X","10_15_7","https://app.prolific.com/","pt-PT,pt;q=0.9,en-US;q=0.8,en;q=0.7,ca;q=0.6,fr;q=0.5,de;q=0.4,it;q=0.3","66db15814e7818d8b9593ad5","683dba2a8a9dda3513610c04","6880bc92ae773178346190a6","3","0","66db15814e7818d8b9593ad5","3","0","2025-07-23T11:00:45.544Z","","","","","","","","","","","MotivationQ","","50","","","","","","","","","","","","","","","","","","","","","","","","","","","","",""
"","","","","ctl-task-cpt","84","789120","0.0-5.0-0.15","211","1","2025-07-23 10:48:22","1f75c3e559b7213887762d5229550c2b","89.154.153.225","Mozilla/5.0 (Macintosh; Intel Mac OS X 10_15_7) AppleWebKit/537.36 (KHTML, like Gecko) Chrome/138.0.0.0 Safari/537.36","Macintosh","Chrome","138.0.0.0","OS X","10_15_7","https://app.prolific.com/","pt-PT,pt;q=0.9,en-US;q=0.8,en;q=0.7,ca;q=0.6,fr;q=0.5,de;q=0.4,it;q=0.3","66db15814e7818d8b9593ad5","683dba2a8a9dda3513610c04","6880bc92ae773178346190a6","3","0","66db15814e7818d8b9593ad5","3","0","2025-07-23T11:01:32.054Z","","","","","","","","","","","","","","win-only","0","g1:NW,g2:SE","0.8","16","0","743695","969.4","5970.7","43500.4","1","4","4","6","2","4","4","7","3","0.05303030303030303","1359.1","3000","330","[""down"",""right""]","{""num_key_presses"":8,""num_perfect"":6,""num_errors"":0,""num_randdir"":2,""num_randdir_good_moves"":1,""num_whilered"":0,""num_whileblue"":0,""num_blue"":4,""num_good_moves"":7}","[729,735.796875,0.1,729,735.796875,101.1,729,735.796875,206.4,729,735.796875,311.5,729,735.796875,416.3,729,735.796875,516.7,729,735.796875,621.2,729,735.796875,721.3,989,951.796875,825.6,1165,1147.796875,926.2,1239,1287.796875,1031.3,1275,1327.796875,1137.5,1275,1327.796875,1241.4,1275,1327.796875,1345.8,1275,1327.796875,1446.8,1277,1327.796875,1551,1875,993.796875,1651.4,1915,977.796875,1756,1915,977.796875,1856.1,1915,977.796875,1956.5,1915,977.796875,2060.8,1915,977.796875,2160.8,1915,977.796875,2266.2,1915,977.796875,2370.6,1915,977.796875,2471.1,1915,977.796875,2575.7,1915,977.796875,2678,1915,977.796875,2781.1,1915,977.796875,2881.6,1915,977.796875,2981.6,1915,977.796875,3085.8,1915,977.796875,3186.3,1915,977.796875,3290.9,1915,977.796875,3391.6,1915,977.796875,3496.5,1915,977.796875,3600.7,1915,977.796875,3700.7,1915,977.796875,3800.7,1915,977.796875,3901.2,1915,977.796875,4001.2,1915,977.796875,4101.7,1915,977.796875,4205.6,1915,977.796875,4306.7,1915,977.796875,4406.8,1915,977.796875,4511,1915,977.796875,4611.1,1915,977.796875,4714.2,1915,977.796875,4816.4,1915,977.796875,4921.3]","[1277.6,1277.6,1000,0,277.6,""smooth"",""down"",""down"",""good_move"",4015.4,2737.7,2436.7,1277.7,301,""oops"",""down"",""left"",""bad_move"",11300.9,7285.4,3085.5,7869.7,345.7,""oops"",""down"",""right"",""good_move"",14659.3,3358.3,2993.1,11301,365.2,""smooth"",""down"",""down"",""good_move"",24635.7,9976.2,3076.9,21244.9,313.9,""smooth"",""right"",""right"",""good_move"",27711.9,3076.1,2684.2,24635.8,391.9,""smooth"",""right"",""right"",""good_move"",30991.2,3279.2,2936.1,27712,343.1,""smooth"",""down"",""down"",""good_move"",37440.4,6449,3086,33985,369.4,""smooth"",""right"",""right"",""good_move""]","",""
"1932","","<div style=""width:500px;"">
  <p>What determined the result of this run?</p>
