"rt","response_timestamp","stimulus","response","trial_type","trial_index","time_elapsed","internal_node_id","run_id","condition","recorded_at","source_code_version","ip","user_agent","device","browser","browser_version","platform","platform_version","referer","accept_language","PROLIFIC_PID","STUDY_ID","SESSION_ID","WEEK","prolific_id","week","realtime","success","responses","item_order","radio_event_ids","radio_event_times","key_event_times","mouse_event_times","straightlining","zigzagging","honeypot","eventType","view_history","slider_start","which_type","canvas_config","goals_layout","control_level","trial_number","tutorial_trial_number","trial_start_time","phase1_start_time","phase2_start_time","phase3_start_time","goal_1_value","goal_1_distance","goal_2_value","goal_2_distance","goal_selected","outcome","outcome_total","participant_final_score","participant_initial_score","participant_final_score_prop","goal_choice_rt","allocated_time","allocated_time_remaining","goal_direction","counts","mouse_movements","key_presses","question_order","question_id"
"39749","1752149738524","<p style='font-size:40px;line-height:1.25'><strong>Welcome to the experiment!</strong></p><p style='font-size:1.1em;line-height:1.25'>Thank you for participanting in our experiment again! You will be asked to play the Dysfunctional Ball Game again. We will briefly recap the rules before we start.</p><p style='font-size:1.1em;line-height:1.25'>Press <strong>Next</strong> to continue.</p>","0","custom-html-button-response","0","39825","0.0-0.0","33","1","2025-07-10 12:14:57","01610cd0009c79a99da7d0a3353eb402","102.182.169.207","Mozilla/5.0 (Macintosh; Intel Mac OS X 10_15_7) AppleWebKit/537.36 (KHTML, like Gecko) Chrome/137.0.0.0 Safari/537.36","Macintosh","Chrome","137.0.0.0","OS X","10_15_7","https://app.prolific.com/","en-ZA,en-GB;q=0.9,en-US;q=0.8,en;q=0.7","61248a51eefb6797024ecb85","683db7602f5db6a34d12d064","686faebc4fb79c8409affd50","1","61248a51eefb6797024ecb85","1","2025-07-10T12:15:38.525Z","","","","","","","","","","","","","","","","","","","","","","","","","","","","","","","","","","","","","","","","","",""
"43101","","","","fullscreen","1","84007","0.0-1.0","33","1","2025-07-10 12:14:57","01610cd0009c79a99da7d0a3353eb402","102.182.169.207","Mozilla/5.0 (Macintosh; Intel Mac OS X 10_15_7) AppleWebKit/537.36 (KHTML, like Gecko) Chrome/137.0.0.0 Safari/537.36","Macintosh","Chrome","137.0.0.0","OS X","10_15_7","https://app.prolific.com/","en-ZA,en-GB;q=0.9,en-US;q=0.8,en;q=0.7","61248a51eefb6797024ecb85","683db7602f5db6a34d12d064","686faebc4fb79c8409affd50","1","61248a51eefb6797024ecb85","1","","true","","","","","","","","","","","","","","","","","","","","","","","","","","","","","","","","","","","","","","","","",""
"12987","1752149795710","<p style='font-size:1.1em;line-height:1.25'>In the following, we will ask you a few questions relating to your feelings in the last 24 hours.<br></p><p style='font-size:1.1em;line-height:1.25'>Press the <strong>Next</strong> button to continue.</p>","0","custom-html-button-response","2","97013","0.0-2.0-0.0","33","1","2025-07-10 12:14:57","01610cd0009c79a99da7d0a3353eb402","102.182.169.207","Mozilla/5.0 (Macintosh; Intel Mac OS X 10_15_7) AppleWebKit/537.36 (KHTML, like Gecko) Chrome/137.0.0.0 Safari/537.36","Macintosh","Chrome","137.0.0.0","OS X","10_15_7","https://app.prolific.com/","en-ZA,en-GB;q=0.9,en-US;q=0.8,en;q=0.7","61248a51eefb6797024ecb85","683db7602f5db6a34d12d064","686faebc4fb79c8409affd50","1","61248a51eefb6797024ecb85","1","2025-07-10T12:16:35.712Z","","","","","","","","","","","","","","","","","","","","","","","","","","","","","","","","","","","","","","","","","",""
"109213.5","","","","survey-template","3","206243","0.0-2.0-1.0","33","1","2025-07-10 12:14:57","01610cd0009c79a99da7d0a3353eb402","102.182.169.207","Mozilla/5.0 (Macintosh; Intel Mac OS X 10_15_7) AppleWebKit/537.36 (KHTML, like Gecko) Chrome/137.0.0.0 Safari/537.36","Macintosh","Chrome","137.0.0.0","OS X","10_15_7","https://app.prolific.com/","en-ZA,en-GB;q=0.9,en-US;q=0.8,en;q=0.7","61248a51eefb6797024ecb85","683db7602f5db6a34d12d064","686faebc4fb79c8409affd50","1","61248a51eefb6797024ecb85","1","2025-07-10T12:18:24.944Z","","{""Q01"":""4"",""Q02"":""4"",""Q03"":""2"",""Q04"":""5"",""Q05"":""2"",""Q06"":""5"",""Q07"":""5"",""Q08"":""2"",""Q09"":""0"",""Q10"":""1"",""Q11"":""4"",""Q12"":""1"",""Q13"":""5"",""Q14"":""0"",""Q15"":""4"",""Q16"":""0"",""Q17"":""5"",""Q18"":""5"",""Q19"":""0"",""Q20"":""5"",""Q21"":""1"",""Q22"":""4""}","[0,1,2,3,4,5,6,7,8,9,10,11,12,13,14,15,16,17,18,19,20,21]","[""Q01"",""Q02"",""Q03"",""Q04"",""Q05"",""Q06"",""Q07"",""Q08"",""Q09"",""Q10"",""Q11"",""Q12"",""Q13"",""Q14"",""Q15"",""Q16"",""Q17"",""Q18"",""Q19"",""Q20"",""Q21"",""Q22""]","[7607.099999904633,10090.200000047684,12937.700000047684,14305.799999952316,16872.39999985695,18905.700000047684,20055.5,22071.700000047684,25740.099999904633,28770.89999985695,40405.799999952316,43106.299999952316,45189.89999985695,48122.59999990463,51723.39999985695,54222.700000047684,55657,56906.59999990463,60389.5,78557.70000004768,87441.5,107774.79999995232]","[]","[0.09999990463256836,7607.099999904633,10090.200000047684,12222.099999904633,12937.700000047684,14305.799999952316,16340.700000047684,16872.39999985695,18905.700000047684,20055.5,22071.700000047684,25740.099999904633,28770.89999985695,39863.5,40405.799999952316,43106.299999952316,45189.89999985695,48122.59999990463,51723.39999985695,54222.700000047684,55657,56906.59999990463,59922.200000047684,60389.5,78557.70000004768,87441.5,107774.79999995232,109191.29999995232]","0.3181818181818182","0.23809523809523808","0","drsp","","","","","","","","","","","","","","","","","","","","","","","","","","","","","","",""
"9367","","","","survey-template","4","215632","0.0-2.0-2.0","33","1","2025-07-10 12:14:57","01610cd0009c79a99da7d0a3353eb402","102.182.169.207","Mozilla/5.0 (Macintosh; Intel Mac OS X 10_15_7) AppleWebKit/537.36 (KHTML, like Gecko) Chrome/137.0.0.0 Safari/537.36","Macintosh","Chrome","137.0.0.0","OS X","10_15_7","https://app.prolific.com/","en-ZA,en-GB;q=0.9,en-US;q=0.8,en;q=0.7","61248a51eefb6797024ecb85","683db7602f5db6a34d12d064","686faebc4fb79c8409affd50","1","61248a51eefb6797024ecb85","1","2025-07-10T12:18:34.332Z","","{""Q01"":""5"",""Q02"":""5"",""Q03"":""5""}","[0,1,2]","[""Q01"",""Q02"",""Q03""]","[2732.199999809265,6531.599999904633,8432.5]","[]","[2732.199999809265,4734.799999952316,6531.599999904633,7833.5,8432.5,9365.699999809265]","0.6666666666666666","1","0","stress","","","","","","","","","","","","","","","","","","","","","","","","","","","","","","",""
"53664","","","","instructions","5","269300","0.0-3.0-0.0","33","1","2025-07-10 12:14:57","01610cd0009c79a99da7d0a3353eb402","102.182.169.207","Mozilla/5.0 (Macintosh; Intel Mac OS X 10_15_7) AppleWebKit/537.36 (KHTML, like Gecko) Chrome/137.0.0.0 Safari/537.36","Macintosh","Chrome","137.0.0.0","OS X","10_15_7","https://app.prolific.com/","en-ZA,en-GB;q=0.9,en-US;q=0.8,en;q=0.7","61248a51eefb6797024ecb85","683db7602f5db6a34d12d064","686faebc4fb79c8409affd50","1","61248a51eefb6797024ecb85","1","","","","","","","","","","","","","[{""page_index"":0,""viewing_time"":53664}]","","","","","","","","","","","","","","","","","","","","","","","","","","","","","",""
"17827","","<p>Before you start with this game please answer the following three questions yourself. </p>
  <p>Through this game, we measure several aspects of your cognitive performance, such as reaction times, multi-tasking capabilities </p>
  <p>and the ability to assess the situation you are in.</p>
  <p></p>
  <p><b>How good do you usually are in such tasks?</b></p>","25","html-slider-response","6","287131","0.0-4.0-0.0","33","1","2025-07-10 12:14:57","01610cd0009c79a99da7d0a3353eb402","102.182.169.207","Mozilla/5.0 (Macintosh; Intel Mac OS X 10_15_7) AppleWebKit/537.36 (KHTML, like Gecko) Chrome/137.0.0.0 Safari/537.36","Macintosh","Chrome","137.0.0.0","OS X","10_15_7","https://app.prolific.com/","en-ZA,en-GB;q=0.9,en-US;q=0.8,en;q=0.7","61248a51eefb6797024ecb85","683db7602f5db6a34d12d064","686faebc4fb79c8409affd50","1","61248a51eefb6797024ecb85","1","2025-07-10T12:19:45.830Z","","","","","","","","","","","PreSkillQ","","50","","","","","","","","","","","","","","","","","","","","","","","","","","","","",""
"4365","","<div style=""width:500px;"">
  <p>How well do you think you will perform in this task compared to other participants?</p>
  </div>","20","html-slider-response","7","291498","0.0-4.0-1.0","33","1","2025-07-10 12:14:57","01610cd0009c79a99da7d0a3353eb402","102.182.169.207","Mozilla/5.0 (Macintosh; Intel Mac OS X 10_15_7) AppleWebKit/537.36 (KHTML, like Gecko) Chrome/137.0.0.0 Safari/537.36","Macintosh","Chrome","137.0.0.0","OS X","10_15_7","https://app.prolific.com/","en-ZA,en-GB;q=0.9,en-US;q=0.8,en;q=0.7","61248a51eefb6797024ecb85","683db7602f5db6a34d12d064","686faebc4fb79c8409affd50","1","61248a51eefb6797024ecb85","1","2025-07-10T12:19:50.198Z","","","","","","","","","","","PrePerfQ","","50","","","","","","","","","","","","","","","","","","","","","","","","","","","","",""
"2981","","<div style=""width:500px;"">
  <p>What best describes how you currently feel?</p>
  </div>","3","html-slider-response","8","294482","0.0-4.0-2.0","33","1","2025-07-10 12:14:57","01610cd0009c79a99da7d0a3353eb402","102.182.169.207","Mozilla/5.0 (Macintosh; Intel Mac OS X 10_15_7) AppleWebKit/537.36 (KHTML, like Gecko) Chrome/137.0.0.0 Safari/537.36","Macintosh","Chrome","137.0.0.0","OS X","10_15_7","https://app.prolific.com/","en-ZA,en-GB;q=0.9,en-US;q=0.8,en;q=0.7","61248a51eefb6797024ecb85","683db7602f5db6a34d12d064","686faebc4fb79c8409affd50","1","61248a51eefb6797024ecb85","1","2025-07-10T12:19:53.181Z","","","","","","","","","","","PreMotivationQ","","50","","","","","","","","","","","","","","","","","","","","","","","","","","","","",""
"","","","","ctl-task-cpt","9","321094","0.0-5.0-0.0","33","1","2025-07-10 12:14:57","01610cd0009c79a99da7d0a3353eb402","102.182.169.207","Mozilla/5.0 (Macintosh; Intel Mac OS X 10_15_7) AppleWebKit/537.36 (KHTML, like Gecko) Chrome/137.0.0.0 Safari/537.36","Macintosh","Chrome","137.0.0.0","OS X","10_15_7","https://app.prolific.com/","en-ZA,en-GB;q=0.9,en-US;q=0.8,en;q=0.7","61248a51eefb6797024ecb85","683db7602f5db6a34d12d064","686faebc4fb79c8409affd50","1","61248a51eefb6797024ecb85","1","2025-07-10T12:20:19.793Z","","","","","","","","","","","","","","win-only","2","g1:SE,g2:NW","1","1","0","296801.1","1774.9","6776.1","23597.1","1","4","8","6","2","8","8","8","0","0.06060606060606061","1448.6","3000","390","[""left"",""up""]","{""num_key_presses"":6,""num_perfect"":6,""num_errors"":0,""num_randdir"":0,""num_randdir_good_moves"":0,""num_whilered"":0,""num_whileblue"":0,""num_blue"":0,""num_good_moves"":6}","[680.2857142857143,686.0825892857143,0.2,680.2857142857143,686.0825892857143,100.7,680.2857142857143,686.0825892857143,206.6,680.2857142857143,686.0825892857143,306.7,680.2857142857143,686.0825892857143,411.5,680.2857142857143,686.0825892857143,516.5,680.2857142857143,686.0825892857143,621.1,680.2857142857143,686.0825892857143,721.2,680.2857142857143,686.0825892857143,826,680.2857142857143,686.0825892857143,927.3,630.2857142857143,658.0825892857143,1031.4,134.28571428571428,176.08258928571428,1131.6,94.28571428571429,138.08258928571428,1236.3,94.28571428571429,138.08258928571428,1339,94.28571428571429,138.08258928571428,1442.3,94.28571428571429,138.08258928571428,1546.7,94.28571428571429,138.08258928571428,1651.4,94.28571428571429,138.08258928571428,1756,94.28571428571429,138.08258928571428,1856.4,94.28571428571429,138.08258928571428,1956.9,94.28571428571429,138.08258928571428,2061.6,666.2857142857143,498.0825892857143,2166.6,1052.2857142857142,816.0825892857143,2267.2,1056.2857142857142,822.0825892857143,2371.6,1056.2857142857142,822.0825892857143,2476.6,1056.2857142857142,822.0825892857143,2576.9,1056.2857142857142,822.0825892857143,2678.4,1056.2857142857142,822.0825892857143,2781.7,1056.2857142857142,822.0825892857143,2885.9,1056.2857142857142,822.0825892857143,2986.5,1056.2857142857142,822.0825892857143,3091.7,1056.2857142857142,822.0825892857143,3196.3,1056.2857142857142,822.0825892857143,3296.5,1056.2857142857142,822.0825892857143,3396.5,1056.2857142857142,822.0825892857143,3496.6,1056.2857142857142,822.0825892857143,3601.3,1056.2857142857142,822.0825892857143,3705.6,1056.2857142857142,822.0825892857143,3806.1,1056.2857142857142,822.0825892857143,3906.5,1056.2857142857142,822.0825892857143,4006.5,1056.2857142857142,822.0825892857143,4106.9,1056.2857142857142,822.0825892857143,4211.4,1056.2857142857142,822.0825892857143,4311.9,1056.2857142857142,822.0825892857143,4417.1,1056.2857142857142,822.0825892857143,4517.1,1056.2857142857142,822.0825892857143,4621.5,1056.2857142857142,822.0825892857143,4726,1056.2857142857142,822.0825892857143,4826,1056.2857142857142,822.0825892857143,4926.8]","[1596.3,1596.3,1000,0,596.3,""smooth"",""left"",""left"",""good_move"",4985.7,3388.8,2950.4,1596.9,438.4,""smooth"",""left"",""left"",""good_move"",7480.2,2494.3,2025.6,4985.9,468.7,""smooth"",""up"",""up"",""good_move"",10874.9,3394.3,2995.9,7480.6,398.4,""smooth"",""up"",""up"",""good_move"",14021.7,3146.7,2698.4,10875,448.3,""smooth"",""up"",""up"",""good_move"",16727.2,2705.3,2398.6,14021.9,306.7,""smooth"",""left"",""left"",""good_move""]","",""
"3217","","<div style=""width:500px;"">
  <p>What determined the result of this run?</p>
  </div>","100","html-slider-response","10","324314","0.0-5.0-1.0","33","1","2025-07-10 12:14:57","01610cd0009c79a99da7d0a3353eb402","102.182.169.207","Mozilla/5.0 (Macintosh; Intel Mac OS X 10_15_7) AppleWebKit/537.36 (KHTML, like Gecko) Chrome/137.0.0.0 Safari/537.36","Macintosh","Chrome","137.0.0.0","OS X","10_15_7","https://app.prolific.com/","en-ZA,en-GB;q=0.9,en-US;q=0.8,en;q=0.7","61248a51eefb6797024ecb85","683db7602f5db6a34d12d064","686faebc4fb79c8409affd50","1","61248a51eefb6797024ecb85","1","2025-07-10T12:20:23.013Z","","","","","","","","","","","AttribQ","","50","","","","","","","","","","","","","","","","","","","","","","","","","","","","",""
"2598","","<div style=""width:500px;"">
  <p>How much control did you have over the ball?</p>
  </div>","100","html-slider-response","11","326914","0.0-5.0-2.0","33","1","2025-07-10 12:14:57","01610cd0009c79a99da7d0a3353eb402","102.182.169.207","Mozilla/5.0 (Macintosh; Intel Mac OS X 10_15_7) AppleWebKit/537.36 (KHTML, like Gecko) Chrome/137.0.0.0 Safari/537.36","Macintosh","Chrome","137.0.0.0","OS X","10_15_7","https://app.prolific.com/","en-ZA,en-GB;q=0.9,en-US;q=0.8,en;q=0.7","61248a51eefb6797024ecb85","683db7602f5db6a34d12d064","686faebc4fb79c8409affd50","1","61248a51eefb6797024ecb85","1","2025-07-10T12:20:25.613Z","","","","","","","","","","","ControlQ","","50","","","","","","","","","","","","","","","","","","","","","","","","","","","","",""
"4233","","<div style=""width:500px;"">
  <p>How would you describe your current emotional state?</p>
  </div>","65","html-slider-response","12","331148","0.0-5.0-3.0","33","1","2025-07-10 12:14:57","01610cd0009c79a99da7d0a3353eb402","102.182.169.207","Mozilla/5.0 (Macintosh; Intel Mac OS X 10_15_7) AppleWebKit/537.36 (KHTML, like Gecko) Chrome/137.0.0.0 Safari/537.36","Macintosh","Chrome","137.0.0.0","OS X","10_15_7","https://app.prolific.com/","en-ZA,en-GB;q=0.9,en-US;q=0.8,en;q=0.7","61248a51eefb6797024ecb85","683db7602f5db6a34d12d064","686faebc4fb79c8409affd50","1","61248a51eefb6797024ecb85","1","2025-07-10T12:20:29.847Z","","","","","","","","","","","StressQ","","50","","","","","","","","","","","","","","","","","","","","","","","","","","","","",""
"3881","","<div style=""width:500px;"">
  <p>What best describes how you currently feel?</p>
  </div>","21","html-slider-response","13","335031","0.0-5.0-4.0","33","1","2025-07-10 12:14:57","01610cd0009c79a99da7d0a3353eb402","102.182.169.207","Mozilla/5.0 (Macintosh; Intel Mac OS X 10_15_7) AppleWebKit/537.36 (KHTML, like Gecko) Chrome/137.0.0.0 Safari/537.36","Macintosh","Chrome","137.0.0.0","OS X","10_15_7","https://app.prolific.com/","en-ZA,en-GB;q=0.9,en-US;q=0.8,en;q=0.7","61248a51eefb6797024ecb85","683db7602f5db6a34d12d064","686faebc4fb79c8409affd50","1","61248a51eefb6797024ecb85","1","2025-07-10T12:20:33.730Z","","","","","","","","","","","MotivationQ","","50","","","","","","","","","","","","","","","","","","","","","","","","","","","","",""
"","","","","ctl-task-cpt","14","365062","0.0-5.0-0.1","33","1","2025-07-10 12:14:57","01610cd0009c79a99da7d0a3353eb402","102.182.169.207","Mozilla/5.0 (Macintosh; Intel Mac OS X 10_15_7) AppleWebKit/537.36 (KHTML, like Gecko) Chrome/137.0.0.0 Safari/537.36","Macintosh","Chrome","137.0.0.0","OS X","10_15_7","https://app.prolific.com/","en-ZA,en-GB;q=0.9,en-US;q=0.8,en;q=0.7","61248a51eefb6797024ecb85","683db7602f5db6a34d12d064","686faebc4fb79c8409affd50","1","61248a51eefb6797024ecb85","1","2025-07-10T12:21:03.761Z","","","","","","","","","","","","","","win-only","0","g1:NW,g2:SE","0.9","2","0","337344.4","1299.7","6300.9","27021.5","1","4","4","6","2","4","4","12","8","0.09090909090909091","1484.4","3000","355","[""down"",""right""]","{""num_key_presses"":6,""num_perfect"":5,""num_errors"":0,""num_randdir"":1,""num_randdir_good_moves"":1,""num_whilered"":0,""num_whileblue"":0,""num_blue"":1,""num_good_moves"":6}","[690.2857142857143,678.0825892857143,0.2,690.2857142857143,678.0825892857143,100.8,690.2857142857143,678.0825892857143,205.6,690.2857142857143,678.0825892857143,306.9,690.2857142857143,678.0825892857143,410.9,690.2857142857143,678.0825892857143,511.1,690.2857142857143,678.0825892857143,611.5,690.2857142857143,678.0825892857143,711.9,620.2857142857143,620.0825892857143,816.8,706.2857142857143,628.0825892857143,920.8,1062.2857142857142,1086.0825892857142,1021.8,1196.2857142857142,1280.0825892857142,1122.1,1196.2857142857142,1280.0825892857142,1226.3,1196.2857142857142,1280.0825892857142,1326.7,1258.2857142857142,1284.0825892857142,1431.7,1264.2857142857142,1284.0825892857142,1536.8,1264.2857142857142,1284.0825892857142,1641.6,1264.2857142857142,1284.0825892857142,1747.2,1264.2857142857142,1284.0825892857142,1851.1,1264.2857142857142,1284.0825892857142,1956.8,1264.2857142857142,1284.0825892857142,2061.1,1264.2857142857142,1284.0825892857142,2161.3,1264.2857142857142,1284.0825892857142,2261.3,1264.2857142857142,1284.0825892857142,2366.9,1264.2857142857142,1284.0825892857142,2474.5,1264.2857142857142,1284.0825892857142,2576.4,1264.2857142857142,1284.0825892857142,2676.9,1264.2857142857142,1284.0825892857142,2780.9,1264.2857142857142,1284.0825892857142,2882,1264.2857142857142,1284.0825892857142,2986.3,1264.2857142857142,1284.0825892857142,3091.8,1264.2857142857142,1284.0825892857142,3191.8,1264.2857142857142,1284.0825892857142,3296.9,1264.2857142857142,1284.0825892857142,3401.3,1264.2857142857142,1284.0825892857142,3506.3,1264.2857142857142,1284.0825892857142,3606.8,1264.2857142857142,1284.0825892857142,3706.8,1264.2857142857142,1284.0825892857142,3807,1264.2857142857142,1284.0825892857142,3911.6,1264.2857142857142,1284.0825892857142,4012.4,1264.2857142857142,1284.0825892857142,4116.7,1264.2857142857142,1284.0825892857142,4216.7,1264.2857142857142,1284.0825892857142,4316.9,1264.2857142857142,1284.0825892857142,4420.9,1264.2857142857142,1284.0825892857142,4521.8,1264.2857142857142,1284.0825892857142,4626.8,1264.2857142857142,1284.0825892857142,4726.9,1264.2857142857142,1284.0825892857142,4831.7,1264.2857142857142,1284.0825892857142,4936]","[1413.4,1413.3,1000,0.1,413.3,""smooth"",""down"",""down"",""good_move"",8151.9,6738.4,2397.3,5335.4,419.3,""smooth"",""down"",""down"",""good_move"",11055.9,2903.6,2349.9,8152.3,553.7,""smooth"",""down"",""down"",""good_move"",14107.1,3050.9,2650.7,11056.2,400.2,""oops"",""right"",""right"",""good_move"",16974.1,2866.4,2396.2,14107.7,470.2,""smooth"",""right"",""right"",""good_move"",20627.8,3653.4,3229.1,16974.4,424.3,""smooth"",""right"",""right"",""good_move""]","",""
"4050","","<div style=""width:500px;"">
  <p>What determined the result of this run?</p>
  </div>","64","html-slider-response","15","369114","0.0-5.0-1.1","33","1","2025-07-10 12:14:57","01610cd0009c79a99da7d0a3353eb402","102.182.169.207","Mozilla/5.0 (Macintosh; Intel Mac OS X 10_15_7) AppleWebKit/537.36 (KHTML, like Gecko) Chrome/137.0.0.0 Safari/537.36","Macintosh","Chrome","137.0.0.0","OS X","10_15_7","https://app.prolific.com/","en-ZA,en-GB;q=0.9,en-US;q=0.8,en;q=0.7","61248a51eefb6797024ecb85","683db7602f5db6a34d12d064","686faebc4fb79c8409affd50","1","61248a51eefb6797024ecb85","1","2025-07-10T12:21:07.813Z","","","","","","","","","","","AttribQ","","50","","","","","","","","","","","","","","","","","","","","","","","","","","","","",""
"2516","","<div style=""width:500px;"">
  <p>How much control did you have over the ball?</p>
  </div>","34","html-slider-response","16","371631","0.0-5.0-2.1","33","1","2025-07-10 12:14:57","01610cd0009c79a99da7d0a3353eb402","102.182.169.207","Mozilla/5.0 (Macintosh; Intel Mac OS X 10_15_7) AppleWebKit/537.36 (KHTML, like Gecko) Chrome/137.0.0.0 Safari/537.36","Macintosh","Chrome","137.0.0.0","OS X","10_15_7","https://app.prolific.com/","en-ZA,en-GB;q=0.9,en-US;q=0.8,en;q=0.7","61248a51eefb6797024ecb85","683db7602f5db6a34d12d064","686faebc4fb79c8409affd50","1","61248a51eefb6797024ecb85","1","2025-07-10T12:21:10.331Z","","","","","","","","","","","ControlQ","","50","","","","","","","","","","","","","","","","","","","","","","","","","","","","",""
"2500","","<div style=""width:500px;"">
  <p>How would you describe your current emotional state?</p>
  </div>","69","html-slider-response","17","374132","0.0-5.0-3.1","33","1","2025-07-10 12:14:57","01610cd0009c79a99da7d0a3353eb402","102.182.169.207","Mozilla/5.0 (Macintosh; Intel Mac OS X 10_15_7) AppleWebKit/537.36 (KHTML, like Gecko) Chrome/137.0.0.0 Safari/537.36","Macintosh","Chrome","137.0.0.0","OS X","10_15_7","https://app.prolific.com/","en-ZA,en-GB;q=0.9,en-US;q=0.8,en;q=0.7","61248a51eefb6797024ecb85","683db7602f5db6a34d12d064","686faebc4fb79c8409affd50","1","61248a51eefb6797024ecb85","1","2025-07-10T12:21:12.831Z","","","","","","","","","","","StressQ","","50","","","","","","","","","","","","","","","","","","","","","","","","","","","","",""
"4232","","<div style=""width:500px;"">
  <p>What best describes how you currently feel?</p>
  </div>","65","html-slider-response","18","378365","0.0-5.0-4.1","33","1","2025-07-10 12:14:57","01610cd0009c79a99da7d0a3353eb402","102.182.169.207","Mozilla/5.0 (Macintosh; Intel Mac OS X 10_15_7) AppleWebKit/537.36 (KHTML, like Gecko) Chrome/137.0.0.0 Safari/537.36","Macintosh","Chrome","137.0.0.0","OS X","10_15_7","https://app.prolific.com/","en-ZA,en-GB;q=0.9,en-US;q=0.8,en;q=0.7","61248a51eefb6797024ecb85","683db7602f5db6a34d12d064","686faebc4fb79c8409affd50","1","61248a51eefb6797024ecb85","1","2025-07-10T12:21:17.064Z","","","","","","","","","","","MotivationQ","","50","","","","","","","","","","","","","","","","","","","","","","","","","","","","",""
"","","","","ctl-task-cpt","19","422584","0.0-5.0-0.2","33","1","2025-07-10 12:14:57","01610cd0009c79a99da7d0a3353eb402","102.182.169.207","Mozilla/5.0 (Macintosh; Intel Mac OS X 10_15_7) AppleWebKit/537.36 (KHTML, like Gecko) Chrome/137.0.0.0 Safari/537.36","Macintosh","Chrome","137.0.0.0","OS X","10_15_7","https://app.prolific.com/","en-ZA,en-GB;q=0.9,en-US;q=0.8,en;q=0.7","61248a51eefb6797024ecb85","683db7602f5db6a34d12d064","686faebc4fb79c8409affd50","1","61248a51eefb6797024ecb85","1","2025-07-10T12:22:01.283Z","","","","","","","","","","","","","","win-only","2","g1:SE,g2:NW","0.8","3","0","380678.3","1183.3","6185.8","41205.8","1","4","4","6","2","4","4","16","12","0.12121212121212122","1701.2","3000","330","[""left"",""up""]","{""num_key_presses"":6,""num_perfect"":6,""num_errors"":0,""num_randdir"":0,""num_randdir_good_moves"":0,""num_whilered"":0,""num_whileblue"":0,""num_blue"":5,""num_good_moves"":6}","[694.2857142857143,684.0825892857143,0.2,694.2857142857143,684.0825892857143,102.5,694.2857142857143,684.0825892857143,202.6,694.2857142857143,684.0825892857143,303,694.2857142857143,684.0825892857143,403.1,694.2857142857143,684.0825892857143,507,694.2857142857143,684.0825892857143,607.2,694.2857142857143,684.0825892857143,707.4,694.2857142857143,684.0825892857143,807.7,694.2857142857143,684.0825892857143,913,694.2857142857143,684.0825892857143,1018,694.2857142857143,684.0825892857143,1118.9,694.2857142857143,684.0825892857143,1222.4,694.2857142857143,684.0825892857143,1322.5,270.2857142857143,264.0825892857143,1427.8,192.28571428571428,130.08258928571428,1533.2,172.28571428571428,128.08258928571428,1637.7,158.28571428571428,134.08258928571428,1743.2,158.28571428571428,134.08258928571428,1847.2,158.28571428571428,134.08258928571428,1947.6,158.28571428571428,134.08258928571428,2048.3,212.28571428571428,164.08258928571428,2153.1,562.2857142857143,410.0825892857143,2256.9,684.2857142857143,522.0825892857143,2357.9,726.2857142857143,564.0825892857143,2462.3,726.2857142857143,564.0825892857143,2567.4,726.2857142857143,564.0825892857143,2667.8,726.2857142857143,564.0825892857143,2767.8,726.2857142857143,564.0825892857143,2868.1,726.2857142857143,564.0825892857143,2972.2,726.2857142857143,564.0825892857143,3077.3,726.2857142857143,564.0825892857143,3177.5,726.2857142857143,564.0825892857143,3278.1,726.2857142857143,564.0825892857143,3382.4,726.2857142857143,564.0825892857143,3487.1,726.2857142857143,564.0825892857143,3589.2,726.2857142857143,564.0825892857143,3692.9,726.2857142857143,564.0825892857143,3797.4,726.2857142857143,564.0825892857143,3897.4,726.2857142857143,564.0825892857143,4002.6,726.2857142857143,564.0825892857143,4103,726.2857142857143,564.0825892857143,4207.1,726.2857142857143,564.0825892857143,4307.6,726.2857142857143,564.0825892857143,4407.7,726.2857142857143,564.0825892857143,4512.8,726.2857142857143,564.0825892857143,4619,726.2857142857143,564.0825892857143,4723.1,726.2857142857143,564.0825892857143,4826.7,726.2857142857143,564.0825892857143,4927.2]","[9701.7,9701.7,3072.7,6155.4,473.6,""smooth"",""left"",""left"",""good_move"",12788.6,3086.5,2614.6,9702.1,471.9,""smooth"",""left"",""left"",""good_move"",15897.6,3108.7,2682.1,12788.9,426.6,""smooth"",""up"",""up"",""good_move"",25160.4,9262.1,2186,22510.5,463.9,""smooth"",""up"",""up"",""good_move"",31376.8,6216.2,2461.8,28484.7,430.3,""smooth"",""up"",""up"",""good_move"",34925.4,3548.4,3107.3,31377.1,441,""smooth"",""left"",""left"",""good_move""]","",""
"3080","","<div style=""width:500px;"">
  <p>What determined the result of this run?</p>
  </div>","100","html-slider-response","20","425665","0.0-5.0-1.2","33","1","2025-07-10 12:14:57","01610cd0009c79a99da7d0a3353eb402","102.182.169.207","Mozilla/5.0 (Macintosh; Intel Mac OS X 10_15_7) AppleWebKit/537.36 (KHTML, like Gecko) Chrome/137.0.0.0 Safari/537.36","Macintosh","Chrome","137.0.0.0","OS X","10_15_7","https://app.prolific.com/","en-ZA,en-GB;q=0.9,en-US;q=0.8,en;q=0.7","61248a51eefb6797024ecb85","683db7602f5db6a34d12d064","686faebc4fb79c8409affd50","1","61248a51eefb6797024ecb85","1","2025-07-10T12:22:04.364Z","","","","","","","","","","","AttribQ","","50","","","","","","","","","","","","","","","","","","","","","","","","","","","","",""
"2682","","<div style=""width:500px;"">
  <p>How much control did you have over the ball?</p>
  </div>","100","html-slider-response","21","428348","0.0-5.0-2.2","33","1","2025-07-10 12:14:57","01610cd0009c79a99da7d0a3353eb402","102.182.169.207","Mozilla/5.0 (Macintosh; Intel Mac OS X 10_15_7) AppleWebKit/537.36 (KHTML, like Gecko) Chrome/137.0.0.0 Safari/537.36","Macintosh","Chrome","137.0.0.0","OS X","10_15_7","https://app.prolific.com/","en-ZA,en-GB;q=0.9,en-US;q=0.8,en;q=0.7","61248a51eefb6797024ecb85","683db7602f5db6a34d12d064","686faebc4fb79c8409affd50","1","61248a51eefb6797024ecb85","1","2025-07-10T12:22:07.048Z","","","","","","","","","","","ControlQ","","50","","","","","","","","","","","","","","","","","","","","","","","","","","","","",""
"2450","","<div style=""width:500px;"">
  <p>How would you describe your current emotional state?</p>
  </div>","68","html-slider-response","22","430799","0.0-5.0-3.2","33","1","2025-07-10 12:14:57","01610cd0009c79a99da7d0a3353eb402","102.182.169.207","Mozilla/5.0 (Macintosh; Intel Mac OS X 10_15_7) AppleWebKit/537.36 (KHTML, like Gecko) Chrome/137.0.0.0 Safari/537.36","Macintosh","Chrome","137.0.0.0","OS X","10_15_7","https://app.prolific.com/","en-ZA,en-GB;q=0.9,en-US;q=0.8,en;q=0.7","61248a51eefb6797024ecb85","683db7602f5db6a34d12d064","686faebc4fb79c8409affd50","1","61248a51eefb6797024ecb85","1","2025-07-10T12:22:09.498Z","","","","","","","","","","","StressQ","","50","","","","","","","","","","","","","","","","","","","","","","","","","","","","",""
"5132","","<div style=""width:500px;"">
  <p>What best describes how you currently feel?</p>
  </div>","21","html-slider-response","23","435932","0.0-5.0-4.2","33","1","2025-07-10 12:14:57","01610cd0009c79a99da7d0a3353eb402","102.182.169.207","Mozilla/5.0 (Macintosh; Intel Mac OS X 10_15_7) AppleWebKit/537.36 (KHTML, like Gecko) Chrome/137.0.0.0 Safari/537.36","Macintosh","Chrome","137.0.0.0","OS X","10_15_7","https://app.prolific.com/","en-ZA,en-GB;q=0.9,en-US;q=0.8,en;q=0.7","61248a51eefb6797024ecb85","683db7602f5db6a34d12d064","686faebc4fb79c8409affd50","1","61248a51eefb6797024ecb85","1","2025-07-10T12:22:14.631Z","","","","","","","","","","","MotivationQ","","50","","","","","","","","","","","","","","","","","","","","","","","","","","","","",""
"","","","","ctl-task-cpt","24","478398","0.0-5.0-0.3","33","1","2025-07-10 12:14:57","01610cd0009c79a99da7d0a3353eb402","102.182.169.207","Mozilla/5.0 (Macintosh; Intel Mac OS X 10_15_7) AppleWebKit/537.36 (KHTML, like Gecko) Chrome/137.0.0.0 Safari/537.36","Macintosh","Chrome","137.0.0.0","OS X","10_15_7","https://app.prolific.com/","en-ZA,en-GB;q=0.9,en-US;q=0.8,en;q=0.7","61248a51eefb6797024ecb85","683db7602f5db6a34d12d064","686faebc4fb79c8409affd50","1","61248a51eefb6797024ecb85","1","2025-07-10T12:22:57.098Z","","","","","","","","","","","","","","win-only","1","g1:NE,g2:SW","0.7","4","0","438246.3","1764.7","6766.9","39456.1","1","4","8","6","1","-1","-1","15","16","0.11363636363636363","1851.6","3000","-2970","[""up"",""right""]","{""num_key_presses"":5,""num_perfect"":4,""num_errors"":0,""num_randdir"":1,""num_randdir_good_moves"":0,""num_whilered"":0,""num_whileblue"":0,""num_blue"":4,""num_good_moves"":4}","[686.2857142857143,702.0825892857143,0.1,686.2857142857143,702.0825892857143,105,686.2857142857143,702.0825892857143,206.6,686.2857142857143,702.0825892857143,311.1,686.2857142857143,702.0825892857143,415.6,686.2857142857143,702.0825892857143,516.1,746.2857142857143,666.0825892857143,621.1,872.2857142857143,568.0825892857143,721.4,1086.2857142857142,342.0825892857143,826.3,1234.2857142857142,210.08258928571428,931.4,1238.2857142857142,210.08258928571428,1036.2,1238.2857142857142,210.08258928571428,1136.5,946.2857142857143,452.0825892857143,1237.6,1062.2857142857142,336.0825892857143,1338.1,1228.2857142857142,194.08258928571428,1438.6,1284.2857142857142,182.08258928571428,1538.6,1298.2857142857142,182.08258928571428,1641.3,1298.2857142857142,182.08258928571428,1741.3,1298.2857142857142,182.08258928571428,1842.1,1298.2857142857142,182.08258928571428,1946,1298.2857142857142,182.08258928571428,2046.9,1298.2857142857142,182.08258928571428,2151.5,1298.2857142857142,182.08258928571428,2256.2,1298.2857142857142,182.08258928571428,2356.3,1298.2857142857142,182.08258928571428,2461.1,1298.2857142857142,182.08258928571428,2561.5,1298.2857142857142,182.08258928571428,2665.9,1298.2857142857142,182.08258928571428,2766.3,1298.2857142857142,182.08258928571428,2866.5,1298.2857142857142,182.08258928571428,2971,1298.2857142857142,182.08258928571428,3073.7,1298.2857142857142,182.08258928571428,3176.2,1298.2857142857142,182.08258928571428,3276.6,1298.2857142857142,182.08258928571428,3381.3,1298.2857142857142,182.08258928571428,3489.1,1298.2857142857142,182.08258928571428,3589.9,1298.2857142857142,182.08258928571428,3691.9,1298.2857142857142,182.08258928571428,3795.8,1298.2857142857142,182.08258928571428,3902.1,1298.2857142857142,182.08258928571428,4004.3,1298.2857142857142,182.08258928571428,4107.4,1298.2857142857142,182.08258928571428,4208.6,1298.2857142857142,182.08258928571428,4309.7,1298.2857142857142,182.08258928571428,4412.3,1298.2857142857142,182.08258928571428,4516.5,1298.2857142857142,182.08258928571428,4616.7,1298.2857142857142,182.08258928571428,4722.3,1298.2857142857142,182.08258928571428,4826,1298.2857142857142,182.08258928571428,4931.8]","[1509.1,1509.1,1000,0,509.1,""oops"",""right"",""left"",""bad_move"",4413.4,2903.6,2463.9,1509.8,439.7,""smooth"",""up"",""up"",""good_move"",11506,7092.3,2438.6,8722.5,344.9,""smooth"",""up"",""up"",""good_move"",14428.5,2922.4,2461.6,11506.1,460.8,""smooth"",""right"",""right"",""good_move"",30240.3,15811.6,2673.3,27043.3,523.7,""smooth"",""right"",""right"",""good_move""]","",""
"3015","","<div style=""width:500px;"">
  <p>What determined the result of this run?</p>
  </div>","100","html-slider-response","25","481415","0.0-5.0-1.3","33","1","2025-07-10 12:14:57","01610cd0009c79a99da7d0a3353eb402","102.182.169.207","Mozilla/5.0 (Macintosh; Intel Mac OS X 10_15_7) AppleWebKit/537.36 (KHTML, like Gecko) Chrome/137.0.0.0 Safari/537.36","Macintosh","Chrome","137.0.0.0","OS X","10_15_7","https://app.prolific.com/","en-ZA,en-GB;q=0.9,en-US;q=0.8,en;q=0.7","61248a51eefb6797024ecb85","683db7602f5db6a34d12d064","686faebc4fb79c8409affd50","1","61248a51eefb6797024ecb85","1","2025-07-10T12:23:00.114Z","","","","","","","","","","","AttribQ","","50","","","","","","","","","","","","","","","","","","","","","","","","","","","","",""
"2966","","<div style=""width:500px;"">
  <p>How much control did you have over the ball?</p>
  </div>","100","html-slider-response","26","484382","0.0-5.0-2.3","33","1","2025-07-10 12:14:57","01610cd0009c79a99da7d0a3353eb402","102.182.169.207","Mozilla/5.0 (Macintosh; Intel Mac OS X 10_15_7) AppleWebKit/537.36 (KHTML, like Gecko) Chrome/137.0.0.0 Safari/537.36","Macintosh","Chrome","137.0.0.0","OS X","10_15_7","https://app.prolific.com/","en-ZA,en-GB;q=0.9,en-US;q=0.8,en;q=0.7","61248a51eefb6797024ecb85","683db7602f5db6a34d12d064","686faebc4fb79c8409affd50","1","61248a51eefb6797024ecb85","1","2025-07-10T12:23:03.081Z","","","","","","","","","","","ControlQ","","50","","","","","","","","","","","","","","","","","","","","","","","","","","","","",""
"3100","","<div style=""width:500px;"">
  <p>How would you describe your current emotional state?</p>
  </div>","75","html-slider-response","27","487483","0.0-5.0-3.3","33","1","2025-07-10 12:14:57","01610cd0009c79a99da7d0a3353eb402","102.182.169.207","Mozilla/5.0 (Macintosh; Intel Mac OS X 10_15_7) AppleWebKit/537.36 (KHTML, like Gecko) Chrome/137.0.0.0 Safari/537.36","Macintosh","Chrome","137.0.0.0","OS X","10_15_7","https://app.prolific.com/","en-ZA,en-GB;q=0.9,en-US;q=0.8,en;q=0.7","61248a51eefb6797024ecb85","683db7602f5db6a34d12d064","686faebc4fb79c8409affd50","1","61248a51eefb6797024ecb85","1","2025-07-10T12:23:06.182Z","","","","","","","","","","","StressQ","","50","","","","","","","","","","","","","","","","","","","","","","","","","","","","",""
"3247","","<div style=""width:500px;"">
  <p>What best describes how you currently feel?</p>
  </div>","23","html-slider-response","28","490732","0.0-5.0-4.3","33","1","2025-07-10 12:14:57","01610cd0009c79a99da7d0a3353eb402","102.182.169.207","Mozilla/5.0 (Macintosh; Intel Mac OS X 10_15_7) AppleWebKit/537.36 (KHTML, like Gecko) Chrome/137.0.0.0 Safari/537.36","Macintosh","Chrome","137.0.0.0","OS X","10_15_7","https://app.prolific.com/","en-ZA,en-GB;q=0.9,en-US;q=0.8,en;q=0.7","61248a51eefb6797024ecb85","683db7602f5db6a34d12d064","686faebc4fb79c8409affd50","1","61248a51eefb6797024ecb85","1","2025-07-10T12:23:09.431Z","","","","","","","","","","","MotivationQ","","50","","","","","","","","","","","","","","","","","","","","","","","","","","","","",""
"","","","","ctl-task-cpt","29","540849","0.0-5.0-0.4","33","1","2025-07-10 12:14:57","01610cd0009c79a99da7d0a3353eb402","102.182.169.207","Mozilla/5.0 (Macintosh; Intel Mac OS X 10_15_7) AppleWebKit/537.36 (KHTML, like Gecko) Chrome/137.0.0.0 Safari/537.36","Macintosh","Chrome","137.0.0.0","OS X","10_15_7","https://app.prolific.com/","en-ZA,en-GB;q=0.9,en-US;q=0.8,en;q=0.7","61248a51eefb6797024ecb85","683db7602f5db6a34d12d064","686faebc4fb79c8409affd50","1","61248a51eefb6797024ecb85","1","2025-07-10T12:23:59.548Z","","","","","","","","","","","","","","win-only","2","g1:SE,g2:NW","0.6","5","0","493047.9","20134.9","25135.8","47106.4","1","4","4","6","2","4","4","19","15","0.14393939393939395","1636","3000","130","[""left"",""up""]","{""num_key_presses"":6,""num_perfect"":4,""num_errors"":0,""num_randdir"":2,""num_randdir_good_moves"":2,""num_whilered"":0,""num_whileblue"":0,""num_blue"":2,""num_good_moves"":6}","[700.2857142857143,702.0825892857143,0.4,700.2857142857143,702.0825892857143,100.5,700.2857142857143,702.0825892857143,205.9,700.2857142857143,702.0825892857143,310.7,678.2857142857143,702.0825892857143,411.3,576.2857142857143,772.0825892857143,515.4,688.2857142857143,862.0825892857143,616.3,766.2857142857143,936.0825892857143,722.7,766.2857142857143,936.0825892857143,825.2,766.2857142857143,936.0825892857143,925.9,766.2857142857143,936.0825892857143,1031.2,442.2857142857143,674.0825892857143,1135.2,12.285714285714292,136.08258928571428,1238.1,12.285714285714292,136.08258928571428,1340.6,12.285714285714292,136.08258928571428,1440.7,60.28571428571429,138.08258928571428,1540.7,74.28571428571429,142.08258928571428,1645.8,74.28571428571429,142.08258928571428,1746,74.28571428571429,142.08258928571428,1850.5,74.28571428571429,142.08258928571428,1950.7,74.28571428571429,142.08258928571428,2056.9,126.28571428571429,134.08258928571428,2161.3,444.2857142857143,182.08258928571428,2266.3,542.2857142857143,246.08258928571428,2371.3,542.2857142857143,246.08258928571428,2471.6,542.2857142857143,246.08258928571428,2572,542.2857142857143,246.08258928571428,2672.4,542.2857142857143,246.08258928571428,2773,542.2857142857143,246.08258928571428,2873,542.2857142857143,246.08258928571428,2976.2,542.2857142857143,246.08258928571428,3076.2,542.2857142857143,246.08258928571428,3181,542.2857142857143,246.08258928571428,3285.8,542.2857142857143,246.08258928571428,3391,542.2857142857143,246.08258928571428,3495.4,542.2857142857143,246.08258928571428,3596,542.2857142857143,246.08258928571428,3700.7,542.2857142857143,246.08258928571428,3800.7,542.2857142857143,246.08258928571428,3900.8,542.2857142857143,246.08258928571428,4006,542.2857142857143,246.08258928571428,4106,542.2857142857143,246.08258928571428,4210.9,542.2857142857143,246.08258928571428,4315.9,542.2857142857143,246.08258928571428,4421,542.2857142857143,246.08258928571428,4521.2,542.2857142857143,246.08258928571428,4625.2,542.2857142857143,246.08258928571428,4725.4,542.2857142857143,246.08258928571428,4825.5,542.2857142857143,246.08258928571428,4925.5]","[5069.3,5069.3,2569.8,2005.2,494.3,""smooth"",""left"",""left"",""good_move"",7786.3,2716.5,1839,5069.8,877.5,""smooth"",""left"",""left"",""good_move"",10622.1,2835.6,2384.5,7786.5,451.1,""oops"",""left"",""up"",""good_move"",12631.7,2009.3,1585.1,10622.4,424.2,""oops"",""left"",""left"",""good_move"",19014.2,6382.3,2800.2,15790.2,423.8,""smooth"",""up"",""up"",""good_move"",21872.2,2857.8,2617,19014.4,240.8,""smooth"",""up"",""up"",""good_move""]","",""
"3201","","<div style=""width:500px;"">
  <p>What determined the result of this run?</p>
  </div>","100","html-slider-response","30","544050","0.0-5.0-1.4","33","1","2025-07-10 12:14:57","01610cd0009c79a99da7d0a3353eb402","102.182.169.207","Mozilla/5.0 (Macintosh; Intel Mac OS X 10_15_7) AppleWebKit/537.36 (KHTML, like Gecko) Chrome/137.0.0.0 Safari/537.36","Macintosh","Chrome","137.0.0.0","OS X","10_15_7","https://app.prolific.com/","en-ZA,en-GB;q=0.9,en-US;q=0.8,en;q=0.7","61248a51eefb6797024ecb85","683db7602f5db6a34d12d064","686faebc4fb79c8409affd50","1","61248a51eefb6797024ecb85","1","2025-07-10T12:24:02.749Z","","","","","","","","","","","AttribQ","","50","","","","","","","","","","","","","","","","","","","","","","","","","","","","",""
"5732","","<div style=""width:500px;"">
  <p>How much control did you have over the ball?</p>
  </div>","16","html-slider-response","31","549783","0.0-5.0-2.4","33","1","2025-07-10 12:14:57","01610cd0009c79a99da7d0a3353eb402","102.182.169.207","Mozilla/5.0 (Macintosh; Intel Mac OS X 10_15_7) AppleWebKit/537.36 (KHTML, like Gecko) Chrome/137.0.0.0 Safari/537.36","Macintosh","Chrome","137.0.0.0","OS X","10_15_7","https://app.prolific.com/","en-ZA,en-GB;q=0.9,en-US;q=0.8,en;q=0.7","61248a51eefb6797024ecb85","683db7602f5db6a34d12d064","686faebc4fb79c8409affd50","1","61248a51eefb6797024ecb85","1","2025-07-10T12:24:08.482Z","","","","","","","","","","","ControlQ","","50","","","","","","","","","","","","","","","","","","","","","","","","","","","","",""
"9249","","<div style=""width:500px;"">
  <p>How would you describe your current emotional state?</p>
  </div>","71","html-slider-response","32","559033","0.0-5.0-3.4","33","1","2025-07-10 12:14:57","01610cd0009c79a99da7d0a3353eb402","102.182.169.207","Mozilla/5.0 (Macintosh; Intel Mac OS X 10_15_7) AppleWebKit/537.36 (KHTML, like Gecko) Chrome/137.0.0.0 Safari/537.36","Macintosh","Chrome","137.0.0.0","OS X","10_15_7","https://app.prolific.com/","en-ZA,en-GB;q=0.9,en-US;q=0.8,en;q=0.7","61248a51eefb6797024ecb85","683db7602f5db6a34d12d064","686faebc4fb79c8409affd50","1","61248a51eefb6797024ecb85","1","2025-07-10T12:24:17.732Z","","","","","","","","","","","StressQ","","50","","","","","","","","","","","","","","","","","","","","","","","","","","","","",""
"2651","","<div style=""width:500px;"">
  <p>What best describes how you currently feel?</p>
  </div>","71","html-slider-response","33","561684","0.0-5.0-4.4","33","1","2025-07-10 12:14:57","01610cd0009c79a99da7d0a3353eb402","102.182.169.207","Mozilla/5.0 (Macintosh; Intel Mac OS X 10_15_7) AppleWebKit/537.36 (KHTML, like Gecko) Chrome/137.0.0.0 Safari/537.36","Macintosh","Chrome","137.0.0.0","OS X","10_15_7","https://app.prolific.com/","en-ZA,en-GB;q=0.9,en-US;q=0.8,en;q=0.7","61248a51eefb6797024ecb85","683db7602f5db6a34d12d064","686faebc4fb79c8409affd50","1","61248a51eefb6797024ecb85","1","2025-07-10T12:24:20.384Z","","","","","","","","","","","MotivationQ","","50","","","","","","","","","","","","","","","","","","","","","","","","","","","","",""
"","","","","ctl-task-cpt","34","599190","0.0-5.0-0.5","33","1","2025-07-10 12:14:57","01610cd0009c79a99da7d0a3353eb402","102.182.169.207","Mozilla/5.0 (Macintosh; Intel Mac OS X 10_15_7) AppleWebKit/537.36 (KHTML, like Gecko) Chrome/137.0.0.0 Safari/537.36","Macintosh","Chrome","137.0.0.0","OS X","10_15_7","https://app.prolific.com/","en-ZA,en-GB;q=0.9,en-US;q=0.8,en;q=0.7","61248a51eefb6797024ecb85","683db7602f5db6a34d12d064","686faebc4fb79c8409affd50","1","61248a51eefb6797024ecb85","1","2025-07-10T12:24:57.889Z","","","","","","","","","","","","","","win-only","3","g1:SW,g2:NE","0.5","6","0","564000.9","3267.2","8271.2","34495.7","1","4","8","6","2","-8","-8","11","19","0.08333333333333333","1249.6","3000","-2975","[""up"",""right""]","{""num_key_presses"":6,""num_perfect"":3,""num_errors"":0,""num_randdir"":3,""num_randdir_good_moves"":1,""num_whilered"":0,""num_whileblue"":0,""num_blue"":2,""num_good_moves"":4}","[688.2857142857143,700.0825892857143,0.1,688.2857142857143,700.0825892857143,104,688.2857142857143,700.0825892857143,208.5,688.2857142857143,700.0825892857143,308.6,688.2857142857143,700.0825892857143,409,720.2857142857143,694.0825892857143,513.1,892.2857142857143,698.0825892857143,613.1,932.2857142857143,726.0825892857143,715.7,1132.2857142857142,424.0825892857143,821.2,1256.2857142857142,296.0825892857143,923.4,1256.2857142857142,296.0825892857143,1023.4,1266.2857142857142,188.08258928571428,1128.8,1262.2857142857142,152.08258928571428,1229.1,1262.2857142857142,152.08258928571428,1333.3,1262.2857142857142,152.08258928571428,1435.4,1262.2857142857142,152.08258928571428,1538.4,1262.2857142857142,152.08258928571428,1638.8,1262.2857142857142,152.08258928571428,1743.7,1262.2857142857142,152.08258928571428,1852.1,1262.2857142857142,152.08258928571428,1954.1,1262.2857142857142,152.08258928571428,2058.7,1262.2857142857142,152.08258928571428,2163.8,1262.2857142857142,152.08258928571428,2265.9,1262.2857142857142,152.08258928571428,2369,1262.2857142857142,152.08258928571428,2469.5,1262.2857142857142,152.08258928571428,2573.1,1262.2857142857142,152.08258928571428,2678.2,1262.2857142857142,152.08258928571428,2778.2,1262.2857142857142,152.08258928571428,2878.3,1262.2857142857142,152.08258928571428,2978.5,1262.2857142857142,152.08258928571428,3078.8,1262.2857142857142,152.08258928571428,3179.1,1262.2857142857142,152.08258928571428,3287.2,1262.2857142857142,152.08258928571428,3389.1,1262.2857142857142,152.08258928571428,3489.1,1262.2857142857142,152.08258928571428,3593.5,1262.2857142857142,152.08258928571428,3694,1262.2857142857142,152.08258928571428,3802.9,1262.2857142857142,152.08258928571428,3904.1,1262.2857142857142,152.08258928571428,4007.9,1262.2857142857142,152.08258928571428,4109,1262.2857142857142,152.08258928571428,4214,1262.2857142857142,152.08258928571428,4316.7,1262.2857142857142,152.08258928571428,4422.6,1262.2857142857142,152.08258928571428,4523.1,1262.2857142857142,152.08258928571428,4623.8,1262.2857142857142,152.08258928571428,4728.6,1262.2857142857142,152.08258928571428,4834.5,1262.2857142857142,152.08258928571428,4935.9]","[1438.1,1438.1,1000,0,438.1,""oops"",""right"",""up"",""good_move"",4252,2811.6,2374.8,1440.4,436.8,""oops"",""right"",""down"",""bad_move"",10368.9,6116.4,2778.8,7168.3,421.8,""smooth"",""right"",""right"",""good_move"",13795.5,3426.4,2921.8,10369.2,504.6,""oops"",""right"",""down"",""bad_move"",16897.4,3101.6,2587.5,13795.8,514.1,""smooth"",""right"",""right"",""good_move"",23148.2,6250.6,2724.8,19909.1,514.3,""smooth"",""right"",""right"",""good_move""]","",""
"4308","","<div style=""width:500px;"">
  <p>What determined the result of this run?</p>
  </div>","25","html-slider-response","35","603500","0.0-5.0-1.5","33","1","2025-07-10 12:14:57","01610cd0009c79a99da7d0a3353eb402","102.182.169.207","Mozilla/5.0 (Macintosh; Intel Mac OS X 10_15_7) AppleWebKit/537.36 (KHTML, like Gecko) Chrome/137.0.0.0 Safari/537.36","Macintosh","Chrome","137.0.0.0","OS X","10_15_7","https://app.prolific.com/","en-ZA,en-GB;q=0.9,en-US;q=0.8,en;q=0.7","61248a51eefb6797024ecb85","683db7602f5db6a34d12d064","686faebc4fb79c8409affd50","1","61248a51eefb6797024ecb85","1","2025-07-10T12:25:02.199Z","","","","","","","","","","","AttribQ","","50","","","","","","","","","","","","","","","","","","","","","","","","","","","","",""
"4500","","<div style=""width:500px;"">
  <p>How much control did you have over the ball?</p>
  </div>","27","html-slider-response","36","608000","0.0-5.0-2.5","33","1","2025-07-10 12:14:57","01610cd0009c79a99da7d0a3353eb402","102.182.169.207","Mozilla/5.0 (Macintosh; Intel Mac OS X 10_15_7) AppleWebKit/537.36 (KHTML, like Gecko) Chrome/137.0.0.0 Safari/537.36","Macintosh","Chrome","137.0.0.0","OS X","10_15_7","https://app.prolific.com/","en-ZA,en-GB;q=0.9,en-US;q=0.8,en;q=0.7","61248a51eefb6797024ecb85","683db7602f5db6a34d12d064","686faebc4fb79c8409affd50","1","61248a51eefb6797024ecb85","1","2025-07-10T12:25:06.699Z","","","","","","","","","","","ControlQ","","50","","","","","","","","","","","","","","","","","","","","","","","","","","","","",""
"2333","","<div style=""width:500px;"">
  <p>How would you describe your current emotional state?</p>
  </div>","70","html-slider-response","37","610334","0.0-5.0-3.5","33","1","2025-07-10 12:14:57","01610cd0009c79a99da7d0a3353eb402","102.182.169.207","Mozilla/5.0 (Macintosh; Intel Mac OS X 10_15_7) AppleWebKit/537.36 (KHTML, like Gecko) Chrome/137.0.0.0 Safari/537.36","Macintosh","Chrome","137.0.0.0","OS X","10_15_7","https://app.prolific.com/","en-ZA,en-GB;q=0.9,en-US;q=0.8,en;q=0.7","61248a51eefb6797024ecb85","683db7602f5db6a34d12d064","686faebc4fb79c8409affd50","1","61248a51eefb6797024ecb85","1","2025-07-10T12:25:09.033Z","","","","","","","","","","","StressQ","","50","","","","","","","","","","","","","","","","","","","","","","","","","","","","",""
"3899","","<div style=""width:500px;"">
  <p>What best describes how you currently feel?</p>
  </div>","25","html-slider-response","38","614233","0.0-5.0-4.5","33","1","2025-07-10 12:14:57","01610cd0009c79a99da7d0a3353eb402","102.182.169.207","Mozilla/5.0 (Macintosh; Intel Mac OS X 10_15_7) AppleWebKit/537.36 (KHTML, like Gecko) Chrome/137.0.0.0 Safari/537.36","Macintosh","Chrome","137.0.0.0","OS X","10_15_7","https://app.prolific.com/","en-ZA,en-GB;q=0.9,en-US;q=0.8,en;q=0.7","61248a51eefb6797024ecb85","683db7602f5db6a34d12d064","686faebc4fb79c8409affd50","1","61248a51eefb6797024ecb85","1","2025-07-10T12:25:12.932Z","","","","","","","","","","","MotivationQ","","50","","","","","","","","","","","","","","","","","","","","","","","","","","","","",""
"","","","","ctl-task-cpt","39","740328","0.0-5.0-0.6","33","1","2025-07-10 12:14:57","01610cd0009c79a99da7d0a3353eb402","102.182.169.207","Mozilla/5.0 (Macintosh; Intel Mac OS X 10_15_7) AppleWebKit/537.36 (KHTML, like Gecko) Chrome/137.0.0.0 Safari/537.36","Macintosh","Chrome","137.0.0.0","OS X","10_15_7","https://app.prolific.com/","en-ZA,en-GB;q=0.9,en-US;q=0.8,en;q=0.7","61248a51eefb6797024ecb85","683db7602f5db6a34d12d064","686faebc4fb79c8409affd50","1","61248a51eefb6797024ecb85","1","2025-07-10T12:27:19.027Z","","","","","","","","","","","","","","win-only","1","g1:NE,g2:SW","0.4","7","0","616550.4","93473.3","98476.1","123086.4","1","4","4","6","1","-1","-1","10","11","0.07575757575757576","1499.2","3000","-2940","[""up"",""right""]","{""num_key_presses"":7,""num_perfect"":3,""num_errors"":0,""num_randdir"":4,""num_randdir_good_moves"":1,""num_whilered"":0,""num_whileblue"":0,""num_blue"":1,""num_good_moves"":4}","[698.2857142857143,698.0825892857143,0.5,698.2857142857143,698.0825892857143,102.1,698.2857142857143,698.0825892857143,202.3,698.2857142857143,698.0825892857143,307.4,698.2857142857143,698.0825892857143,407.4,746.2857142857143,622.0825892857143,511.8,838.2857142857143,520.0825892857143,614.6,1126.2857142857142,294.0825892857143,717.9,1146.2857142857142,278.0825892857143,822.1,1146.2857142857142,278.0825892857143,922.7,1198.2857142857142,198.08258928571428,1027.3,1028.2857142857142,318.0825892857143,1134.5,1180.2857142857142,204.08258928571428,1237.3,1266.2857142857142,142.08258928571428,1337.4,1274.2857142857142,128.08258928571428,1442.6,1274.2857142857142,126.08258928571429,1547.2,1274.2857142857142,126.08258928571429,1650.7,1274.2857142857142,126.08258928571429,1752.8,1274.2857142857142,126.08258928571429,1853.5,1274.2857142857142,126.08258928571429,1957.4,1272.2857142857142,264.0825892857143,2062.4,1178.2857142857142,480.0825892857143,2162.7,1168.2857142857142,508.0825892857143,2265.2,1168.2857142857142,508.0825892857143,2367.3,1168.2857142857142,508.0825892857143,2472.9,1168.2857142857142,508.0825892857143,2580,1168.2857142857142,508.0825892857143,2681.8,1168.2857142857142,508.0825892857143,2782,1168.2857142857142,508.0825892857143,2883.9,1168.2857142857142,508.0825892857143,2987,1168.2857142857142,508.0825892857143,3087.4,1168.2857142857142,508.0825892857143,3187.6,1168.2857142857142,508.0825892857143,3292.7,1168.2857142857142,508.0825892857143,3397.7,1168.2857142857142,508.0825892857143,3502.6,1168.2857142857142,508.0825892857143,3607.4,1168.2857142857142,508.0825892857143,3707.6,1168.2857142857142,508.0825892857143,3807.8,1168.2857142857142,508.0825892857143,3914.2,1168.2857142857142,508.0825892857143,4019.8,1168.2857142857142,508.0825892857143,4119.9,1168.2857142857142,508.0825892857143,4222.4,1168.2857142857142,508.0825892857143,4327.6,1168.2857142857142,508.0825892857143,4434.5,1168.2857142857142,508.0825892857143,4537.5,1168.2857142857142,508.0825892857143,4637.9,1168.2857142857142,508.0825892857143,4742.2,1168.2857142857142,508.0825892857143,4842.3,1168.2857142857142,508.0825892857143,4952.5]","[1423.6,1423.7,1000,0,423.7,""oops"",""up"",""down"",""bad_move"",4154.3,2729.8,2322.3,1424.5,407.5,""smooth"",""right"",""right"",""good_move"",7704.9,3550.4,3134.6,4154.5,415.8,""oops"",""up"",""right"",""good_move"",14346.7,6641.6,2570.2,11384.5,392,""oops"",""up"",""down"",""bad_move"",17299,2951.9,2556.1,14347.1,395.8,""smooth"",""up"",""up"",""good_move"",19602.2,2303,1881.9,17299.2,421.1,""oops"",""up"",""left"",""bad_move"",21987,2384.6,1888.9,19602.4,495.7,""smooth"",""up"",""up"",""good_move""]","",""
"6541","","<div style=""width:500px;"">
  <p>What determined the result of this run?</p>
  </div>","27","html-slider-response","40","746869","0.0-5.0-1.6","33","1","2025-07-10 12:14:57","01610cd0009c79a99da7d0a3353eb402","102.182.169.207","Mozilla/5.0 (Macintosh; Intel Mac OS X 10_15_7) AppleWebKit/537.36 (KHTML, like Gecko) Chrome/137.0.0.0 Safari/537.36","Macintosh","Chrome","137.0.0.0","OS X","10_15_7","https://app.prolific.com/","en-ZA,en-GB;q=0.9,en-US;q=0.8,en;q=0.7","61248a51eefb6797024ecb85","683db7602f5db6a34d12d064","686faebc4fb79c8409affd50","1","61248a51eefb6797024ecb85","1","2025-07-10T12:27:25.569Z","","","","","","","","","","","AttribQ","","50","","","","","","","","","","","","","","","","","","","","","","","","","","","","",""
"4547","","<div style=""width:500px;"">
  <p>How much control did you have over the ball?</p>
  </div>","5","html-slider-response","41","751419","0.0-5.0-2.6","33","1","2025-07-10 12:14:57","01610cd0009c79a99da7d0a3353eb402","102.182.169.207","Mozilla/5.0 (Macintosh; Intel Mac OS X 10_15_7) AppleWebKit/537.36 (KHTML, like Gecko) Chrome/137.0.0.0 Safari/537.36","Macintosh","Chrome","137.0.0.0","OS X","10_15_7","https://app.prolific.com/","en-ZA,en-GB;q=0.9,en-US;q=0.8,en;q=0.7","61248a51eefb6797024ecb85","683db7602f5db6a34d12d064","686faebc4fb79c8409affd50","1","61248a51eefb6797024ecb85","1","2025-07-10T12:27:30.118Z","","","","","","","","","","","ControlQ","","50","","","","","","","","","","","","","","","","","","","","","","","","","","","","",""
"3732","","<div style=""width:500px;"">
  <p>How would you describe your current emotional state?</p>
  </div>","73","html-slider-response","42","755151","0.0-5.0-3.6","33","1","2025-07-10 12:14:57","01610cd0009c79a99da7d0a3353eb402","102.182.169.207","Mozilla/5.0 (Macintosh; Intel Mac OS X 10_15_7) AppleWebKit/537.36 (KHTML, like Gecko) Chrome/137.0.0.0 Safari/537.36","Macintosh","Chrome","137.0.0.0","OS X","10_15_7","https://app.prolific.com/","en-ZA,en-GB;q=0.9,en-US;q=0.8,en;q=0.7","61248a51eefb6797024ecb85","683db7602f5db6a34d12d064","686faebc4fb79c8409affd50","1","61248a51eefb6797024ecb85","1","2025-07-10T12:27:33.851Z","","","","","","","","","","","StressQ","","50","","","","","","","","","","","","","","","","","","","","","","","","","","","","",""
"2349","","<div style=""width:500px;"">
  <p>What best describes how you currently feel?</p>
  </div>","63","html-slider-response","43","757501","0.0-5.0-4.6","33","1","2025-07-10 12:14:57","01610cd0009c79a99da7d0a3353eb402","102.182.169.207","Mozilla/5.0 (Macintosh; Intel Mac OS X 10_15_7) AppleWebKit/537.36 (KHTML, like Gecko) Chrome/137.0.0.0 Safari/537.36","Macintosh","Chrome","137.0.0.0","OS X","10_15_7","https://app.prolific.com/","en-ZA,en-GB;q=0.9,en-US;q=0.8,en;q=0.7","61248a51eefb6797024ecb85","683db7602f5db6a34d12d064","686faebc4fb79c8409affd50","1","61248a51eefb6797024ecb85","1","2025-07-10T12:27:36.200Z","","","","","","","","","","","MotivationQ","","50","","","","","","","","","","","","","","","","","","","","","","","","","","","","",""
"","","","","ctl-task-cpt","44","796226","0.0-5.0-0.7","33","1","2025-07-10 12:14:57","01610cd0009c79a99da7d0a3353eb402","102.182.169.207","Mozilla/5.0 (Macintosh; Intel Mac OS X 10_15_7) AppleWebKit/537.36 (KHTML, like Gecko) Chrome/137.0.0.0 Safari/537.36","Macintosh","Chrome","137.0.0.0","OS X","10_15_7","https://app.prolific.com/","en-ZA,en-GB;q=0.9,en-US;q=0.8,en;q=0.7","61248a51eefb6797024ecb85","683db7602f5db6a34d12d064","686faebc4fb79c8409affd50","1","61248a51eefb6797024ecb85","1","2025-07-10T12:28:14.925Z","","","","","","","","","","","","","","win-only","0","g1:NW,g2:SE","0.3","8","0","759820.4","1199.6","6201.3","35715.6","1","4","8","6","2","-8","-8","2","10","0.015151515151515152","1835.1","3000","-2940","[""down"",""right""]","{""num_key_presses"":6,""num_perfect"":2,""num_errors"":0,""num_randdir"":4,""num_randdir_good_moves"":3,""num_whilered"":0,""num_whileblue"":0,""num_blue"":3,""num_good_moves"":5}","[686.2857142857143,708.0825892857143,0,686.2857142857143,708.0825892857143,104.4,686.2857142857143,708.0825892857143,205.6,686.2857142857143,708.0825892857143,306.8,686.2857142857143,708.0825892857143,409.2,686.2857142857143,708.0825892857143,511.1,686.2857142857143,708.0825892857143,611.5,686.2857142857143,708.0825892857143,716.1,686.2857142857143,708.0825892857143,816.2,686.2857142857143,708.0825892857143,916.3,686.2857142857143,708.0825892857143,1020.6,686.2857142857143,708.0825892857143,1122.1,686.2857142857143,708.0825892857143,1226.6,686.2857142857143,708.0825892857143,1330.7,744.2857142857143,768.0825892857143,1436.1,1240.2857142857142,1212.0825892857142,1536.6,1306.2857142857142,1292.0825892857142,1640,1306.2857142857142,1292.0825892857142,1741.1,1306.2857142857142,1292.0825892857142,1841.4,1306.2857142857142,1292.0825892857142,1945,1306.2857142857142,1292.0825892857142,2046.4,1306.2857142857142,1292.0825892857142,2150.4,1444.2857142857142,1276.0825892857142,2251.4,1652.2857142857142,1240.0825892857142,2358.9,1654.2857142857142,1240.0825892857142,2460.8,1654.2857142857142,1240.0825892857142,2560.8,1654.2857142857142,1240.0825892857142,2666.9,1654.2857142857142,1240.0825892857142,2773.9,1654.2857142857142,1240.0825892857142,2875.5,1654.2857142857142,1240.0825892857142,2975.8,1654.2857142857142,1240.0825892857142,3076.1,1654.2857142857142,1240.0825892857142,3176.5,1654.2857142857142,1240.0825892857142,3281.3,1654.2857142857142,1240.0825892857142,3385.7,1654.2857142857142,1240.0825892857142,3486.2,1654.2857142857142,1240.0825892857142,3588.3,1654.2857142857142,1240.0825892857142,3689.9,1654.2857142857142,1240.0825892857142,3790.1,1654.2857142857142,1240.0825892857142,3890.7,1654.2857142857142,1240.0825892857142,3990.7,1654.2857142857142,1240.0825892857142,4090.8,1654.2857142857142,1240.0825892857142,4193,1654.2857142857142,1240.0825892857142,4295.4,1654.2857142857142,1240.0825892857142,4395.8,1654.2857142857142,1240.0825892857142,4496.3,1654.2857142857142,1240.0825892857142,4600.6,1654.2857142857142,1240.0825892857142,4702.2,1654.2857142857142,1240.0825892857142,4805.6,1654.2857142857142,1240.0825892857142,4906.5]","[1507.9,1507.9,1000,0,507.9,""oops"",""down"",""right"",""good_move"",7796.7,6288.6,2633.9,4754.3,408.5,""smooth"",""right"",""right"",""good_move"",10508.7,2711.9,2307,7796.8,404.9,""oops"",""down"",""right"",""good_move"",13069.5,2560.6,2183.8,10508.9,376.9,""oops"",""down"",""down"",""good_move"",23081.3,10011,2911.9,19678.8,490.6,""smooth"",""down"",""down"",""good_move"",26211.1,3129.4,2659.3,23081.7,470.1,""oops"",""down"",""left"",""bad_move""]","",""
"11179","","<div style=""width:500px;"">
  <p>What determined the result of this run?</p>
  </div>","71","html-slider-response","45","807406","0.0-5.0-1.7","33","1","2025-07-10 12:14:57","01610cd0009c79a99da7d0a3353eb402","102.182.169.207","Mozilla/5.0 (Macintosh; Intel Mac OS X 10_15_7) AppleWebKit/537.36 (KHTML, like Gecko) Chrome/137.0.0.0 Safari/537.36","Macintosh","Chrome","137.0.0.0","OS X","10_15_7","https://app.prolific.com/","en-ZA,en-GB;q=0.9,en-US;q=0.8,en;q=0.7","61248a51eefb6797024ecb85","683db7602f5db6a34d12d064","686faebc4fb79c8409affd50","1","61248a51eefb6797024ecb85","1","2025-07-10T12:28:26.105Z","","","","","","","","","","","AttribQ","","50","","","","","","","","","","","","","","","","","","","","","","","","","","","","",""
"3528","","<div style=""width:500px;"">
  <p>How much control did you have over the ball?</p>
  </div>","37","html-slider-response","46","810935","0.0-5.0-2.7","33","1","2025-07-10 12:14:57","01610cd0009c79a99da7d0a3353eb402","102.182.169.207","Mozilla/5.0 (Macintosh; Intel Mac OS X 10_15_7) AppleWebKit/537.36 (KHTML, like Gecko) Chrome/137.0.0.0 Safari/537.36","Macintosh","Chrome","137.0.0.0","OS X","10_15_7","https://app.prolific.com/","en-ZA,en-GB;q=0.9,en-US;q=0.8,en;q=0.7","61248a51eefb6797024ecb85","683db7602f5db6a34d12d064","686faebc4fb79c8409affd50","1","61248a51eefb6797024ecb85","1","2025-07-10T12:28:29.634Z","","","","","","","","","","","ControlQ","","50","","","","","","","","","","","","","","","","","","","","","","","","","","","","",""
"2668","","<div style=""width:500px;"">
  <p>How would you describe your current emotional state?</p>
  </div>","75","html-slider-response","47","813604","0.0-5.0-3.7","33","1","2025-07-10 12:14:57","01610cd0009c79a99da7d0a3353eb402","102.182.169.207","Mozilla/5.0 (Macintosh; Intel Mac OS X 10_15_7) AppleWebKit/537.36 (KHTML, like Gecko) Chrome/137.0.0.0 Safari/537.36","Macintosh","Chrome","137.0.0.0","OS X","10_15_7","https://app.prolific.com/","en-ZA,en-GB;q=0.9,en-US;q=0.8,en;q=0.7","61248a51eefb6797024ecb85","683db7602f5db6a34d12d064","686faebc4fb79c8409affd50","1","61248a51eefb6797024ecb85","1","2025-07-10T12:28:32.303Z","","","","","","","","","","","StressQ","","50","","","","","","","","","","","","","","","","","","","","","","","","","","","","",""
"2848","","<div style=""width:500px;"">
  <p>What best describes how you currently feel?</p>
  </div>","33","html-slider-response","48","816452","0.0-5.0-4.7","33","1","2025-07-10 12:14:57","01610cd0009c79a99da7d0a3353eb402","102.182.169.207","Mozilla/5.0 (Macintosh; Intel Mac OS X 10_15_7) AppleWebKit/537.36 (KHTML, like Gecko) Chrome/137.0.0.0 Safari/537.36","Macintosh","Chrome","137.0.0.0","OS X","10_15_7","https://app.prolific.com/","en-ZA,en-GB;q=0.9,en-US;q=0.8,en;q=0.7","61248a51eefb6797024ecb85","683db7602f5db6a34d12d064","686faebc4fb79c8409affd50","1","61248a51eefb6797024ecb85","1","2025-07-10T12:28:35.151Z","","","","","","","","","","","MotivationQ","","50","","","","","","","","","","","","","","","","","","","","","","","","","","","","",""
"","","","","ctl-task-cpt","49","849790","0.0-5.0-0.8","33","1","2025-07-10 12:14:57","01610cd0009c79a99da7d0a3353eb402","102.182.169.207","Mozilla/5.0 (Macintosh; Intel Mac OS X 10_15_7) AppleWebKit/537.36 (KHTML, like Gecko) Chrome/137.0.0.0 Safari/537.36","Macintosh","Chrome","137.0.0.0","OS X","10_15_7","https://app.prolific.com/","en-ZA,en-GB;q=0.9,en-US;q=0.8,en;q=0.7","61248a51eefb6797024ecb85","683db7602f5db6a34d12d064","686faebc4fb79c8409affd50","1","61248a51eefb6797024ecb85","1","2025-07-10T12:29:08.489Z","","","","","","","","","","","","","","win-only","1","g1:NE,g2:SW","0.2","9","0","818774.4","4647.5","9653.8","30325.8","1","4","8","6","2","-8","-8","0","2","0","1638.3","3000","-2970","[""down"",""left""]","{""num_key_presses"":7,""num_perfect"":2,""num_errors"":0,""num_randdir"":5,""num_randdir_good_moves"":2,""num_whilered"":0,""num_whileblue"":0,""num_blue"":0,""num_good_moves"":4}","[694.2857142857143,696.0825892857143,0.2,694.2857142857143,696.0825892857143,106.1,694.2857142857143,696.0825892857143,208.3,694.2857142857143,696.0825892857143,308.7,694.2857142857143,696.0825892857143,413.1,772.2857142857143,656.0825892857143,513.2,928.2857142857143,556.0825892857143,613.2,928.2857142857143,556.0825892857143,718,928.2857142857143,556.0825892857143,818.6,912.2857142857143,564.0825892857143,918.6,778.2857142857143,638.0825892857143,1022.8,170.28571428571428,1336.0825892857142,1123.1,92.28571428571429,1450.0825892857142,1223.5,92.28571428571429,1450.0825892857142,1327.7,86.28571428571429,1414.0825892857142,1428.1,84.28571428571429,1256.0825892857142,1528.5,84.28571428571429,1254.0825892857142,1632.7,84.28571428571429,1254.0825892857142,1732.9,84.28571428571429,1254.0825892857142,1833.1,84.28571428571429,1254.0825892857142,1933.4,84.28571428571429,1254.0825892857142,2040,-65.71428571428571,1248.0825892857142,2143.1,-131.71428571428572,1210.0825892857142,2243.7,-131.71428571428572,1208.0825892857142,2348.1,-131.71428571428572,1208.0825892857142,2448.4,-131.71428571428572,1208.0825892857142,2553,-131.71428571428572,1208.0825892857142,2653.5,-131.71428571428572,1208.0825892857142,2757,-131.71428571428572,1208.0825892857142,2857.9,-131.71428571428572,1208.0825892857142,2963.1,-131.71428571428572,1208.0825892857142,3063.5,-131.71428571428572,1208.0825892857142,3168.3,-131.71428571428572,1208.0825892857142,3268.5,-131.71428571428572,1208.0825892857142,3372.9,-131.71428571428572,1208.0825892857142,3473.1,-131.71428571428572,1208.0825892857142,3573.5,-131.71428571428572,1208.0825892857142,3678.1,-131.71428571428572,1208.0825892857142,3778.8,-131.71428571428572,1208.0825892857142,3883.6,-131.71428571428572,1208.0825892857142,3988.9,-131.71428571428572,1208.0825892857142,4089.3,-131.71428571428572,1208.0825892857142,4192.8,-131.71428571428572,1208.0825892857142,4297.9,-131.71428571428572,1208.0825892857142,4398.4,-131.71428571428572,1208.0825892857142,4498.4,-131.71428571428572,1208.0825892857142,4607.5,-131.71428571428572,1208.0825892857142,4708.7,-131.71428571428572,1208.0825892857142,4812.7,-131.71428571428572,1208.0825892857142,4913.2]","[1448.7,1448.7,1000,0,448.7,""smooth"",""down"",""down"",""good_move"",3617.2,2168.3,1748.5,1448.9,419.8,""oops"",""down"",""up"",""bad_move"",6371.4,2753.9,2344,3617.5,409.9,""smooth"",""down"",""down"",""good_move"",9053.3,2681.9,2328.9,6371.5,352.9,""oops"",""left"",""down"",""good_move"",12442.6,3389.2,2999.1,9053.4,390.1,""oops"",""left"",""down"",""good_move"",14951.4,2508.6,2101.7,12442.8,406.9,""oops"",""left"",""up"",""bad_move"",17897.4,2945.7,2534.2,14951.7,411.5,""oops"",""right"",""up"",""bad_move""]","",""
"2995","","<div style=""width:500px;"">
  <p>What determined the result of this run?</p>
  </div>","63","html-slider-response","50","852786","0.0-5.0-1.8","33","1","2025-07-10 12:14:57","01610cd0009c79a99da7d0a3353eb402","102.182.169.207","Mozilla/5.0 (Macintosh; Intel Mac OS X 10_15_7) AppleWebKit/537.36 (KHTML, like Gecko) Chrome/137.0.0.0 Safari/537.36","Macintosh","Chrome","137.0.0.0","OS X","10_15_7","https://app.prolific.com/","en-ZA,en-GB;q=0.9,en-US;q=0.8,en;q=0.7","61248a51eefb6797024ecb85","683db7602f5db6a34d12d064","686faebc4fb79c8409affd50","1","61248a51eefb6797024ecb85","1","2025-07-10T12:29:11.485Z","","","","","","","","","","","AttribQ","","50","","","","","","","","","","","","","","","","","","","","","","","","","","","","",""
"2083","","<div style=""width:500px;"">
  <p>How much control did you have over the ball?</p>
  </div>","56","html-slider-response","51","854870","0.0-5.0-2.8","33","1","2025-07-10 12:14:57","01610cd0009c79a99da7d0a3353eb402","102.182.169.207","Mozilla/5.0 (Macintosh; Intel Mac OS X 10_15_7) AppleWebKit/537.36 (KHTML, like Gecko) Chrome/137.0.0.0 Safari/537.36","Macintosh","Chrome","137.0.0.0","OS X","10_15_7","https://app.prolific.com/","en-ZA,en-GB;q=0.9,en-US;q=0.8,en;q=0.7","61248a51eefb6797024ecb85","683db7602f5db6a34d12d064","686faebc4fb79c8409affd50","1","61248a51eefb6797024ecb85","1","2025-07-10T12:29:13.569Z","","","","","","","","","","","ControlQ","","50","","","","","","","","","","","","","","","","","","","","","","","","","","","","",""
"1415","","<div style=""width:500px;"">
  <p>How would you describe your current emotional state?</p>
  </div>","60","html-slider-response","52","856286","0.0-5.0-3.8","33","1","2025-07-10 12:14:57","01610cd0009c79a99da7d0a3353eb402","102.182.169.207","Mozilla/5.0 (Macintosh; Intel Mac OS X 10_15_7) AppleWebKit/537.36 (KHTML, like Gecko) Chrome/137.0.0.0 Safari/537.36","Macintosh","Chrome","137.0.0.0","OS X","10_15_7","https://app.prolific.com/","en-ZA,en-GB;q=0.9,en-US;q=0.8,en;q=0.7","61248a51eefb6797024ecb85","683db7602f5db6a34d12d064","686faebc4fb79c8409affd50","1","61248a51eefb6797024ecb85","1","2025-07-10T12:29:14.985Z","","","","","","","","","","","StressQ","","50","","","","","","","","","","","","","","","","","","","","","","","","","","","","",""
"1917","","<div style=""width:500px;"">
  <p>What best describes how you currently feel?</p>
  </div>","59","html-slider-response","53","858203","0.0-5.0-4.8","33","1","2025-07-10 12:14:57","01610cd0009c79a99da7d0a3353eb402","102.182.169.207","Mozilla/5.0 (Macintosh; Intel Mac OS X 10_15_7) AppleWebKit/537.36 (KHTML, like Gecko) Chrome/137.0.0.0 Safari/537.36","Macintosh","Chrome","137.0.0.0","OS X","10_15_7","https://app.prolific.com/","en-ZA,en-GB;q=0.9,en-US;q=0.8,en;q=0.7","61248a51eefb6797024ecb85","683db7602f5db6a34d12d064","686faebc4fb79c8409affd50","1","61248a51eefb6797024ecb85","1","2025-07-10T12:29:16.903Z","","","","","","","","","","","MotivationQ","","50","","","","","","","","","","","","","","","","","","","","","","","","","","","","",""
"","","","","ctl-task-cpt","54","882240","0.0-5.0-0.9","33","1","2025-07-10 12:14:57","01610cd0009c79a99da7d0a3353eb402","102.182.169.207","Mozilla/5.0 (Macintosh; Intel Mac OS X 10_15_7) AppleWebKit/537.36 (KHTML, like Gecko) Chrome/137.0.0.0 Safari/537.36","Macintosh","Chrome","137.0.0.0","OS X","10_15_7","https://app.prolific.com/","en-ZA,en-GB;q=0.9,en-US;q=0.8,en;q=0.7","61248a51eefb6797024ecb85","683db7602f5db6a34d12d064","686faebc4fb79c8409affd50","1","61248a51eefb6797024ecb85","1","2025-07-10T12:29:40.939Z","","","","","","","","","","","","","","win-only","3","g1:SW,g2:NE","0.4","10","0","860525.7","1618.5","6623.3","21026.3","1","4","4","6","1","1","1","1","0","0.007575757575757576","1646.7","3000","1465","[""down"",""left""]","{""num_key_presses"":4,""num_perfect"":3,""num_errors"":0,""num_randdir"":1,""num_randdir_good_moves"":1,""num_whilered"":0,""num_whileblue"":0,""num_blue"":1,""num_good_moves"":4}","[686.2857142857143,694.0825892857143,0.1,686.2857142857143,694.0825892857143,101.3,686.2857142857143,694.0825892857143,202.2,686.2857142857143,694.0825892857143,307.5,686.2857142857143,694.0825892857143,412.3,686.2857142857143,694.0825892857143,512.3,686.2857142857143,694.0825892857143,612.3,686.2857142857143,694.0825892857143,712.6,686.2857142857143,694.0825892857143,812.7,686.2857142857143,694.0825892857143,919.4,686.2857142857143,694.0825892857143,1022.7,686.2857142857143,694.0825892857143,1127.3,416.2857142857143,938.0825892857143,1227.3,168.28571428571428,1244.0825892857142,1336.9,130.28571428571428,1290.0825892857142,1439.6,102.28571428571429,1318.0825892857142,1542.8,92.28571428571429,1326.0825892857142,1650.6,92.28571428571429,1326.0825892857142,1752.7,92.28571428571429,1326.0825892857142,1852.9,92.28571428571429,1326.0825892857142,1959.2,92.28571428571429,1326.0825892857142,2070.9,92.28571428571429,1326.0825892857142,2171.1,92.28571428571429,1326.0825892857142,2271.1,92.28571428571429,1326.0825892857142,2374.2,92.28571428571429,1326.0825892857142,2479.4,92.28571428571429,1326.0825892857142,2589.8,92.28571428571429,1326.0825892857142,2696.4,92.28571428571429,1326.0825892857142,2797,92.28571428571429,1326.0825892857142,2898,92.28571428571429,1326.0825892857142,3002.9,92.28571428571429,1326.0825892857142,3107.1,92.28571428571429,1326.0825892857142,3212.3,92.28571428571429,1326.0825892857142,3318.9,92.28571428571429,1326.0825892857142,3420.6,92.28571428571429,1326.0825892857142,3522.6,92.28571428571429,1326.0825892857142,3627.1,92.28571428571429,1326.0825892857142,3731.9,92.28571428571429,1326.0825892857142,3835.6,92.28571428571429,1326.0825892857142,3938.2,92.28571428571429,1326.0825892857142,4041.9,92.28571428571429,1326.0825892857142,4142.2,92.28571428571429,1326.0825892857142,4246.9,92.28571428571429,1326.0825892857142,4347.3,92.28571428571429,1326.0825892857142,4447.8,92.28571428571429,1326.0825892857142,4553.5,92.28571428571429,1326.0825892857142,4657,92.28571428571429,1326.0825892857142,4762.2,92.28571428571429,1326.0825892857142,4862.2,92.28571428571429,1326.0825892857142,4966.8]","[5506.8,5506.8,3112.5,2002.9,391.4,""smooth"",""left"",""left"",""good_move"",8651.4,3144.3,2737.6,5507.1,406.7,""smooth"",""left"",""left"",""good_move"",11403.5,2752.1,2344.3,8651.5,407.8,""smooth"",""down"",""down"",""good_move"",14306.5,2902.7,2518.8,11403.8,383.9,""oops"",""down"",""down"",""good_move""]","",""
"7912","","<div style=""width:500px;"">
  <p>What determined the result of this run?</p>
  </div>","73","html-slider-response","55","890153","0.0-5.0-1.9","33","1","2025-07-10 12:14:57","01610cd0009c79a99da7d0a3353eb402","102.182.169.207","Mozilla/5.0 (Macintosh; Intel Mac OS X 10_15_7) AppleWebKit/537.36 (KHTML, like Gecko) Chrome/137.0.0.0 Safari/537.36","Macintosh","Chrome","137.0.0.0","OS X","10_15_7","https://app.prolific.com/","en-ZA,en-GB;q=0.9,en-US;q=0.8,en;q=0.7","61248a51eefb6797024ecb85","683db7602f5db6a34d12d064","686faebc4fb79c8409affd50","1","61248a51eefb6797024ecb85","1","2025-07-10T12:29:48.852Z","","","","","","","","","","","AttribQ","","50","","","","","","","","","","","","","","","","","","","","","","","","","","","","",""
"2182","","<div style=""width:500px;"">
  <p>How much control did you have over the ball?</p>
  </div>","76","html-slider-response","56","892336","0.0-5.0-2.9","33","1","2025-07-10 12:14:57","01610cd0009c79a99da7d0a3353eb402","102.182.169.207","Mozilla/5.0 (Macintosh; Intel Mac OS X 10_15_7) AppleWebKit/537.36 (KHTML, like Gecko) Chrome/137.0.0.0 Safari/537.36","Macintosh","Chrome","137.0.0.0","OS X","10_15_7","https://app.prolific.com/","en-ZA,en-GB;q=0.9,en-US;q=0.8,en;q=0.7","61248a51eefb6797024ecb85","683db7602f5db6a34d12d064","686faebc4fb79c8409affd50","1","61248a51eefb6797024ecb85","1","2025-07-10T12:29:51.035Z","","","","","","","","","","","ControlQ","","50","","","","","","","","","","","","","","","","","","","","","","","","","","","","",""
"2217","","<div style=""width:500px;"">
  <p>How would you describe your current emotional state?</p>
  </div>","73","html-slider-response","57","894553","0.0-5.0-3.9","33","1","2025-07-10 12:14:57","01610cd0009c79a99da7d0a3353eb402","102.182.169.207","Mozilla/5.0 (Macintosh; Intel Mac OS X 10_15_7) AppleWebKit/537.36 (KHTML, like Gecko) Chrome/137.0.0.0 Safari/537.36","Macintosh","Chrome","137.0.0.0","OS X","10_15_7","https://app.prolific.com/","en-ZA,en-GB;q=0.9,en-US;q=0.8,en;q=0.7","61248a51eefb6797024ecb85","683db7602f5db6a34d12d064","686faebc4fb79c8409affd50","1","61248a51eefb6797024ecb85","1","2025-07-10T12:29:53.252Z","","","","","","","","","","","StressQ","","50","","","","","","","","","","","","","","","","","","","","","","","","","","","","",""
"2083","","<div style=""width:500px;"">
  <p>What best describes how you currently feel?</p>
  </div>","69","html-slider-response","58","896636","0.0-5.0-4.9","33","1","2025-07-10 12:14:57","01610cd0009c79a99da7d0a3353eb402","102.182.169.207","Mozilla/5.0 (Macintosh; Intel Mac OS X 10_15_7) AppleWebKit/537.36 (KHTML, like Gecko) Chrome/137.0.0.0 Safari/537.36","Macintosh","Chrome","137.0.0.0","OS X","10_15_7","https://app.prolific.com/","en-ZA,en-GB;q=0.9,en-US;q=0.8,en;q=0.7","61248a51eefb6797024ecb85","683db7602f5db6a34d12d064","686faebc4fb79c8409affd50","1","61248a51eefb6797024ecb85","1","2025-07-10T12:29:55.335Z","","","","","","","","","","","MotivationQ","","50","","","","","","","","","","","","","","","","","","","","","","","","","","","","",""
"","","","","ctl-task-cpt","59","924661","0.0-5.0-0.10","33","1","2025-07-10 12:14:57","01610cd0009c79a99da7d0a3353eb402","102.182.169.207","Mozilla/5.0 (Macintosh; Intel Mac OS X 10_15_7) AppleWebKit/537.36 (KHTML, like Gecko) Chrome/137.0.0.0 Safari/537.36","Macintosh","Chrome","137.0.0.0","OS X","10_15_7","https://app.prolific.com/","en-ZA,en-GB;q=0.9,en-US;q=0.8,en;q=0.7","61248a51eefb6797024ecb85","683db7602f5db6a34d12d064","686faebc4fb79c8409affd50","1","61248a51eefb6797024ecb85","1","2025-07-10T12:30:23.360Z","","","","","","","","","","","","","","win-only","0","g1:NW,g2:SE","0.5","11","0","898958.2","1199.6","6200.9","25015.8","1","4","4","6","2","-4","-4","0","1","0","1406.6","3000","-2635","[""down"",""right""]","{""num_key_presses"":6,""num_perfect"":3,""num_errors"":0,""num_randdir"":3,""num_randdir_good_moves"":1,""num_whilered"":0,""num_whileblue"":0,""num_blue"":0,""num_good_moves"":4}","[694.2857142857143,692.0825892857143,0.2,694.2857142857143,692.0825892857143,101.7,694.2857142857143,692.0825892857143,205.6,694.2857142857143,692.0825892857143,306.5,694.2857142857143,692.0825892857143,410.8,694.2857142857143,692.0825892857143,516.5,694.2857142857143,692.0825892857143,621.6,694.2857142857143,692.0825892857143,723,778.2857142857143,790.0825892857143,826.5,1216.2857142857142,1212.0825892857142,926.7,1240.2857142857142,1238.0825892857142,1031,1240.2857142857142,1238.0825892857142,1131.1,1240.2857142857142,1238.0825892857142,1231.7,1250.2857142857142,1234.0825892857142,1337,1250.2857142857142,1234.0825892857142,1443.3,1250.2857142857142,1234.0825892857142,1545.6,1250.2857142857142,1234.0825892857142,1645.8,1264.2857142857142,1232.0825892857142,1746.2,1596.2857142857142,1180.0825892857142,1846.2,1642.2857142857142,1180.0825892857142,1946.3,1642.2857142857142,1180.0825892857142,2046.3,1642.2857142857142,1180.0825892857142,2151.2,1642.2857142857142,1180.0825892857142,2251.3,1642.2857142857142,1180.0825892857142,2351.7,1642.2857142857142,1180.0825892857142,2453.3,1642.2857142857142,1180.0825892857142,2555.9,1642.2857142857142,1180.0825892857142,2661.5,1642.2857142857142,1180.0825892857142,2765.9,1642.2857142857142,1180.0825892857142,2866.4,1642.2857142857142,1180.0825892857142,2971.7,1642.2857142857142,1180.0825892857142,3076.2,1642.2857142857142,1180.0825892857142,3180.9,1642.2857142857142,1180.0825892857142,3281.2,1642.2857142857142,1180.0825892857142,3387.8,1642.2857142857142,1180.0825892857142,3488.3,1642.2857142857142,1180.0825892857142,3591.5,1642.2857142857142,1180.0825892857142,3695.9,1642.2857142857142,1180.0825892857142,3801,1642.2857142857142,1180.0825892857142,3901.6,1642.2857142857142,1180.0825892857142,4006.1,1642.2857142857142,1180.0825892857142,4106.5,1642.2857142857142,1180.0825892857142,4211.3,1642.2857142857142,1180.0825892857142,4316.4,1642.2857142857142,1180.0825892857142,4421.2,1642.2857142857142,1180.0825892857142,4521.4,1642.2857142857142,1180.0825892857142,4625.7,1642.2857142857142,1180.0825892857142,4726,1642.2857142857142,1180.0825892857142,4830.8,1642.2857142857142,1180.0825892857142,4931]","[1642.7,1642.7,1000,0,642.7,""oops"",""down"",""up"",""bad_move"",4605.3,2962.3,2333.2,1643,629.1,""smooth"",""right"",""right"",""good_move"",7544.2,2938.6,2517.4,4605.6,421.2,""oops"",""down"",""up"",""bad_move"",9970.2,2425.7,1950,7544.5,475.7,""smooth"",""right"",""right"",""good_move"",13348.1,3377.5,2949.6,9970.6,427.9,""smooth"",""down"",""down"",""good_move"",16790.5,3442,3010.4,13348.5,431.6,""oops"",""down"",""down"",""good_move""]","",""
"29225","","<div style=""width:500px;"">
  <p>What determined the result of this run?</p>
  </div>","67","html-slider-response","60","953886","0.0-5.0-1.10","33","1","2025-07-10 12:14:57","01610cd0009c79a99da7d0a3353eb402","102.182.169.207","Mozilla/5.0 (Macintosh; Intel Mac OS X 10_15_7) AppleWebKit/537.36 (KHTML, like Gecko) Chrome/137.0.0.0 Safari/537.36","Macintosh","Chrome","137.0.0.0","OS X","10_15_7","https://app.prolific.com/","en-ZA,en-GB;q=0.9,en-US;q=0.8,en;q=0.7","61248a51eefb6797024ecb85","683db7602f5db6a34d12d064","686faebc4fb79c8409affd50","1","61248a51eefb6797024ecb85","1","2025-07-10T12:30:52.585Z","","","","","","","","","","","AttribQ","","50","","","","","","","","","","","","","","","","","","","","","","","","","","","","",""
"2583","","<div style=""width:500px;"">
  <p>How much control did you have over the ball?</p>
  </div>","68","html-slider-response","61","956470","0.0-5.0-2.10","33","1","2025-07-10 12:14:57","01610cd0009c79a99da7d0a3353eb402","102.182.169.207","Mozilla/5.0 (Macintosh; Intel Mac OS X 10_15_7) AppleWebKit/537.36 (KHTML, like Gecko) Chrome/137.0.0.0 Safari/537.36","Macintosh","Chrome","137.0.0.0","OS X","10_15_7","https://app.prolific.com/","en-ZA,en-GB;q=0.9,en-US;q=0.8,en;q=0.7","61248a51eefb6797024ecb85","683db7602f5db6a34d12d064","686faebc4fb79c8409affd50","1","61248a51eefb6797024ecb85","1","2025-07-10T12:30:55.169Z","","","","","","","","","","","ControlQ","","50","","","","","","","","","","","","","","","","","","","","","","","","","","","","",""
"2415","","<div style=""width:500px;"">
  <p>How would you describe your current emotional state?</p>
  </div>","58","html-slider-response","62","958887","0.0-5.0-3.10","33","1","2025-07-10 12:14:57","01610cd0009c79a99da7d0a3353eb402","102.182.169.207","Mozilla/5.0 (Macintosh; Intel Mac OS X 10_15_7) AppleWebKit/537.36 (KHTML, like Gecko) Chrome/137.0.0.0 Safari/537.36","Macintosh","Chrome","137.0.0.0","OS X","10_15_7","https://app.prolific.com/","en-ZA,en-GB;q=0.9,en-US;q=0.8,en;q=0.7","61248a51eefb6797024ecb85","683db7602f5db6a34d12d064","686faebc4fb79c8409affd50","1","61248a51eefb6797024ecb85","1","2025-07-10T12:30:57.586Z","","","","","","","","","","","StressQ","","50","","","","","","","","","","","","","","","","","","","","","","","","","","","","",""
"1766","","<div style=""width:500px;"">
  <p>What best describes how you currently feel?</p>
  </div>","58","html-slider-response","63","960654","0.0-5.0-4.10","33","1","2025-07-10 12:14:57","01610cd0009c79a99da7d0a3353eb402","102.182.169.207","Mozilla/5.0 (Macintosh; Intel Mac OS X 10_15_7) AppleWebKit/537.36 (KHTML, like Gecko) Chrome/137.0.0.0 Safari/537.36","Macintosh","Chrome","137.0.0.0","OS X","10_15_7","https://app.prolific.com/","en-ZA,en-GB;q=0.9,en-US;q=0.8,en;q=0.7","61248a51eefb6797024ecb85","683db7602f5db6a34d12d064","686faebc4fb79c8409affd50","1","61248a51eefb6797024ecb85","1","2025-07-10T12:30:59.353Z","","","","","","","","","","","MotivationQ","","50","","","","","","","","","","","","","","","","","","","","","","","","","","","","",""
"","","","","ctl-task-cpt","64","1039844","0.0-5.0-0.11","33","1","2025-07-10 12:14:57","01610cd0009c79a99da7d0a3353eb402","102.182.169.207","Mozilla/5.0 (Macintosh; Intel Mac OS X 10_15_7) AppleWebKit/537.36 (KHTML, like Gecko) Chrome/137.0.0.0 Safari/537.36","Macintosh","Chrome","137.0.0.0","OS X","10_15_7","https://app.prolific.com/","en-ZA,en-GB;q=0.9,en-US;q=0.8,en;q=0.7","61248a51eefb6797024ecb85","683db7602f5db6a34d12d064","686faebc4fb79c8409affd50","1","61248a51eefb6797024ecb85","1","2025-07-10T12:32:18.543Z","","","","","","","","","","","","","","win-only","3","g1:SW,g2:NE","0.6","12","0","962976.7","34459.5","39460.5","76210.1","1","4","8","6","2","-8","-10","0","0","0","1790.6","3000","-2925","[""up"",""right""]","{""num_key_presses"":9,""num_perfect"":5,""num_errors"":2,""num_randdir"":2,""num_randdir_good_moves"":1,""num_whilered"":0,""num_whileblue"":0,""num_blue"":4,""num_good_moves"":6}","[700.2857142857143,696.0825892857143,0.3,700.2857142857143,696.0825892857143,100.9,700.2857142857143,696.0825892857143,201.5,700.2857142857143,696.0825892857143,306.6,700.2857142857143,696.0825892857143,416.6,700.2857142857143,696.0825892857143,521.1,654.2857142857143,764.0825892857143,621.4,572.2857142857143,850.0825892857143,721.5,572.2857142857143,850.0825892857143,826.5,572.2857142857143,850.0825892857143,931.8,572.2857142857143,850.0825892857143,1034.9,766.2857142857143,686.0825892857143,1136.3,1312.2857142857142,178.08258928571428,1241.5,1312.2857142857142,178.08258928571428,1349.4,1218.2857142857142,242.08258928571428,1451.4,1150.2857142857142,266.0825892857143,1555.9,1272.2857142857142,146.08258928571428,1656.3,1282.2857142857142,138.08258928571428,1764.9,1282.2857142857142,138.08258928571428,1866.5,1282.2857142857142,138.08258928571428,1971,1282.2857142857142,138.08258928571428,2071.1,1282.2857142857142,138.08258928571428,2171.4,1282.2857142857142,138.08258928571428,2275.9,1282.2857142857142,138.08258928571428,2377.4,1282.2857142857142,138.08258928571428,2481.5,1282.2857142857142,138.08258928571428,2581.5,1282.2857142857142,138.08258928571428,2686.5,1282.2857142857142,138.08258928571428,2791.3,1282.2857142857142,138.08258928571428,2894.5,1282.2857142857142,138.08258928571428,2996.5,1282.2857142857142,138.08258928571428,3099.5,1282.2857142857142,138.08258928571428,3201.7,1282.2857142857142,138.08258928571428,3306.1,1282.2857142857142,138.08258928571428,3408.2,1282.2857142857142,138.08258928571428,3512.3,1282.2857142857142,138.08258928571428,3616.1,1282.2857142857142,138.08258928571428,3716.5,1282.2857142857142,138.08258928571428,3816.5,1282.2857142857142,138.08258928571428,3921.2,1282.2857142857142,138.08258928571428,4021.3,1282.2857142857142,138.08258928571428,4121.4,1282.2857142857142,138.08258928571428,4221.6,1282.2857142857142,138.08258928571428,4330.8,1282.2857142857142,138.08258928571428,4431.4,1282.2857142857142,138.08258928571428,4536,1282.2857142857142,138.08258928571428,4636.1,1282.2857142857142,138.08258928571428,4741.4,1282.2857142857142,138.08258928571428,4850.7,1282.2857142857142,138.08258928571428,4950.7]","[1438.7,1438.7,1000,0,438.7,""smooth"",""up"",""up"",""good_move"",4482.6,3042.6,2698.9,1440.1,343.6,""oops"",""up"",""right"",""good_move"",6882.6,2399.8,2001,4482.8,398.8,""smooth"",""up"",""up"",""good_move"",9824.5,2941.7,2619.2,6882.9,322.5,""oops"",""up"",""down"",""bad_move"",15831.9,6007,1504.3,13885,442.6,""smooth"",""right"",""right"",""good_move"",24911.8,9079.6,2445.9,22083.1,382.8,""smooth"",""up"",""up"",""good_move"",27327.7,2415.6,1982.3,24912.1,433.3,""smooth"",""right"",""right"",""good_move"",27747,419.2,3201.2,27327.8,-2782,""error"",""-"",""-"",""no_move"",29082.3,1335.2,3223.9,28750.4,-2892,""error"",""-"",""-"",""no_move""]","",""
"17764","","<div style=""width:500px;"">
  <p>What determined the result of this run?</p>
  </div>","75","html-slider-response","65","1057609","0.0-5.0-1.11","33","1","2025-07-10 12:14:57","01610cd0009c79a99da7d0a3353eb402","102.182.169.207","Mozilla/5.0 (Macintosh; Intel Mac OS X 10_15_7) AppleWebKit/537.36 (KHTML, like Gecko) Chrome/137.0.0.0 Safari/537.36","Macintosh","Chrome","137.0.0.0","OS X","10_15_7","https://app.prolific.com/","en-ZA,en-GB;q=0.9,en-US;q=0.8,en;q=0.7","61248a51eefb6797024ecb85","683db7602f5db6a34d12d064","686faebc4fb79c8409affd50","1","61248a51eefb6797024ecb85","1","2025-07-10T12:32:36.308Z","","","","","","","","","","","AttribQ","","50","","","","","","","","","","","","","","","","","","","","","","","","","","","","",""
"5582","","<div style=""width:500px;"">
  <p>How much control did you have over the ball?</p>
  </div>","60","html-slider-response","66","1063192","0.0-5.0-2.11","33","1","2025-07-10 12:14:57","01610cd0009c79a99da7d0a3353eb402","102.182.169.207","Mozilla/5.0 (Macintosh; Intel Mac OS X 10_15_7) AppleWebKit/537.36 (KHTML, like Gecko) Chrome/137.0.0.0 Safari/537.36","Macintosh","Chrome","137.0.0.0","OS X","10_15_7","https://app.prolific.com/","en-ZA,en-GB;q=0.9,en-US;q=0.8,en;q=0.7","61248a51eefb6797024ecb85","683db7602f5db6a34d12d064","686faebc4fb79c8409affd50","1","61248a51eefb6797024ecb85","1","2025-07-10T12:32:41.891Z","","","","","","","","","","","ControlQ","","50","","","","","","","","","","","","","","","","","","","","","","","","","","","","",""
"2933","","<div style=""width:500px;"">
  <p>How would you describe your current emotional state?</p>
  </div>","60","html-slider-response","67","1066125","0.0-5.0-3.11","33","1","2025-07-10 12:14:57","01610cd0009c79a99da7d0a3353eb402","102.182.169.207","Mozilla/5.0 (Macintosh; Intel Mac OS X 10_15_7) AppleWebKit/537.36 (KHTML, like Gecko) Chrome/137.0.0.0 Safari/537.36","Macintosh","Chrome","137.0.0.0","OS X","10_15_7","https://app.prolific.com/","en-ZA,en-GB;q=0.9,en-US;q=0.8,en;q=0.7","61248a51eefb6797024ecb85","683db7602f5db6a34d12d064","686faebc4fb79c8409affd50","1","61248a51eefb6797024ecb85","1","2025-07-10T12:32:44.824Z","","","","","","","","","","","StressQ","","50","","","","","","","","","","","","","","","","","","","","","","","","","","","","",""
"3082","","<div style=""width:500px;"">
  <p>What best describes how you currently feel?</p>
  </div>","64","html-slider-response","68","1069208","0.0-5.0-4.11","33","1","2025-07-10 12:14:57","01610cd0009c79a99da7d0a3353eb402","102.182.169.207","Mozilla/5.0 (Macintosh; Intel Mac OS X 10_15_7) AppleWebKit/537.36 (KHTML, like Gecko) Chrome/137.0.0.0 Safari/537.36","Macintosh","Chrome","137.0.0.0","OS X","10_15_7","https://app.prolific.com/","en-ZA,en-GB;q=0.9,en-US;q=0.8,en;q=0.7","61248a51eefb6797024ecb85","683db7602f5db6a34d12d064","686faebc4fb79c8409affd50","1","61248a51eefb6797024ecb85","1","2025-07-10T12:32:47.907Z","","","","","","","","","","","MotivationQ","","50","","","","","","","","","","","","","","","","","","","","","","","","","","","","",""
"","","","","ctl-task-cpt","69","1108608","0.0-5.0-0.12","33","1","2025-07-10 12:14:57","01610cd0009c79a99da7d0a3353eb402","102.182.169.207","Mozilla/5.0 (Macintosh; Intel Mac OS X 10_15_7) AppleWebKit/537.36 (KHTML, like Gecko) Chrome/137.0.0.0 Safari/537.36","Macintosh","Chrome","137.0.0.0","OS X","10_15_7","https://app.prolific.com/","en-ZA,en-GB;q=0.9,en-US;q=0.8,en;q=0.7","61248a51eefb6797024ecb85","683db7602f5db6a34d12d064","686faebc4fb79c8409affd50","1","61248a51eefb6797024ecb85","1","2025-07-10T12:33:27.307Z","","","","","","","","","","","","","","win-only","3","g1:SW,g2:NE","0.7","13","0","1071561.7","2898.6","7901.1","36390.7","1","4","4","6","1","-1","-5","0","0","0","1868.6","3000","-2970","[""down"",""left""]","{""num_key_presses"":10,""num_perfect"":4,""num_errors"":4,""num_randdir"":1,""num_randdir_good_moves"":0,""num_whilered"":1,""num_whileblue"":0,""num_blue"":1,""num_good_moves"":4}","[686.2857142857143,686.0825892857143,0.1,686.2857142857143,686.0825892857143,102.9,686.2857142857143,686.0825892857143,203.4,686.2857142857143,686.0825892857143,307.6,686.2857142857143,686.0825892857143,408.4,750.2857142857143,386.0825892857143,513,870.2857142857143,164.08258928571428,613,880.2857142857143,202.08258928571428,717.4,870.2857142857143,210.08258928571428,822.2,870.2857142857143,210.08258928571428,922.6,930.2857142857143,166.08258928571428,1023,1014.2857142857143,126.08258928571429,1127.1,1034.2857142857142,100.08258928571429,1232.5,1020.2857142857143,118.08258928571429,1337.1,278.2857142857143,1114.0825892857142,1437.7,206.28571428571428,1250.0825892857142,1542.1,206.28571428571428,1250.0825892857142,1642.7,178.28571428571428,1272.0825892857142,1742.7,138.28571428571428,1280.0825892857142,1847.4,138.28571428571428,1280.0825892857142,1955.9,138.28571428571428,1280.0825892857142,2057,138.28571428571428,1280.0825892857142,2157.6,138.28571428571428,1280.0825892857142,2257.6,138.28571428571428,1280.0825892857142,2361.6,-59.71428571428571,1288.0825892857142,2462.3,-151.71428571428572,1188.0825892857142,2567.5,-153.71428571428572,1180.0825892857142,2667.7,-153.71428571428572,1180.0825892857142,2767.9,-153.71428571428572,1180.0825892857142,2872.2,-153.71428571428572,1180.0825892857142,2973.5,-153.71428571428572,1180.0825892857142,3077.8,-153.71428571428572,1180.0825892857142,3182.3,-153.71428571428572,1180.0825892857142,3282.9,-153.71428571428572,1180.0825892857142,3390.2,-153.71428571428572,1180.0825892857142,3492.3,-153.71428571428572,1180.0825892857142,3592.7,-153.71428571428572,1180.0825892857142,3697.3,-153.71428571428572,1180.0825892857142,3797.7,-153.71428571428572,1180.0825892857142,3902.6,-153.71428571428572,1180.0825892857142,4006.8,-153.71428571428572,1180.0825892857142,4106.9,-153.71428571428572,1180.0825892857142,4212.8,-153.71428571428572,1180.0825892857142,4317.3,-153.71428571428572,1180.0825892857142,4417.8,-153.71428571428572,1180.0825892857142,4522.7,-153.71428571428572,1180.0825892857142,4626.4,-153.71428571428572,1180.0825892857142,4727,-153.71428571428572,1180.0825892857142,4827.3,-153.71428571428572,1180.0825892857142,4932.4]","[1459.5,1459.5,1000,0,459.5,""smooth"",""down"",""down"",""good_move"",4775.1,3315.1,2651.3,1460,663.8,""oops"",""down"",""right"",""bad_move"",7509.5,2734.2,2193.4,4775.3,540.8,""smooth"",""left"",""left"",""good_move"",14493.4,6983.7,2774.9,11250.2,468.4,""smooth"",""left"",""left"",""good_move"",17779.9,3286.2,2411.6,14493.7,874.6,""smooth"",""left"",""left"",""good_move"",19640.3,1860.3,2524.3,17780,-664,""error"",""-"",""-"",""no_move"",19977.5,337.1,2524.3,17780,-326.8,""while_red"",""-"",""-"",""no_move"",20939.7,1299.3,2183.4,20641.8,-1885.5,""error"",""-"",""-"",""no_move"",22785.6,1845.6,2315.3,21945.1,-1474.8,""error"",""-"",""-"",""no_move"",25072.8,2287.1,2875.1,23789.5,-1591.8,""error"",""-"",""-"",""no_move""]","",""
"6748","","<div style=""width:500px;"">
  <p>What determined the result of this run?</p>
  </div>","60","html-slider-response","70","1115358","0.0-5.0-1.12","33","1","2025-07-10 12:14:57","01610cd0009c79a99da7d0a3353eb402","102.182.169.207","Mozilla/5.0 (Macintosh; Intel Mac OS X 10_15_7) AppleWebKit/537.36 (KHTML, like Gecko) Chrome/137.0.0.0 Safari/537.36","Macintosh","Chrome","137.0.0.0","OS X","10_15_7","https://app.prolific.com/","en-ZA,en-GB;q=0.9,en-US;q=0.8,en;q=0.7","61248a51eefb6797024ecb85","683db7602f5db6a34d12d064","686faebc4fb79c8409affd50","1","61248a51eefb6797024ecb85","1","2025-07-10T12:33:34.057Z","","","","","","","","","","","AttribQ","","50","","","","","","","","","","","","","","","","","","","","","","","","","","","","",""
"2166","","<div style=""width:500px;"">
  <p>How much control did you have over the ball?</p>
  </div>","65","html-slider-response","71","1117525","0.0-5.0-2.12","33","1","2025-07-10 12:14:57","01610cd0009c79a99da7d0a3353eb402","102.182.169.207","Mozilla/5.0 (Macintosh; Intel Mac OS X 10_15_7) AppleWebKit/537.36 (KHTML, like Gecko) Chrome/137.0.0.0 Safari/537.36","Macintosh","Chrome","137.0.0.0","OS X","10_15_7","https://app.prolific.com/","en-ZA,en-GB;q=0.9,en-US;q=0.8,en;q=0.7","61248a51eefb6797024ecb85","683db7602f5db6a34d12d064","686faebc4fb79c8409affd50","1","61248a51eefb6797024ecb85","1","2025-07-10T12:33:36.224Z","","","","","","","","","","","ControlQ","","50","","","","","","","","","","","","","","","","","","","","","","","","","","","","",""
"2233","","<div style=""width:500px;"">
  <p>How would you describe your current emotional state?</p>
  </div>","68","html-slider-response","72","1119758","0.0-5.0-3.12","33","1","2025-07-10 12:14:57","01610cd0009c79a99da7d0a3353eb402","102.182.169.207","Mozilla/5.0 (Macintosh; Intel Mac OS X 10_15_7) AppleWebKit/537.36 (KHTML, like Gecko) Chrome/137.0.0.0 Safari/537.36","Macintosh","Chrome","137.0.0.0","OS X","10_15_7","https://app.prolific.com/","en-ZA,en-GB;q=0.9,en-US;q=0.8,en;q=0.7","61248a51eefb6797024ecb85","683db7602f5db6a34d12d064","686faebc4fb79c8409affd50","1","61248a51eefb6797024ecb85","1","2025-07-10T12:33:38.458Z","","","","","","","","","","","StressQ","","50","","","","","","","","","","","","","","","","","","","","","","","","","","","","",""
"1699","","<div style=""width:500px;"">
  <p>What best describes how you currently feel?</p>
  </div>","63","html-slider-response","73","1121458","0.0-5.0-4.12","33","1","2025-07-10 12:14:57","01610cd0009c79a99da7d0a3353eb402","102.182.169.207","Mozilla/5.0 (Macintosh; Intel Mac OS X 10_15_7) AppleWebKit/537.36 (KHTML, like Gecko) Chrome/137.0.0.0 Safari/537.36","Macintosh","Chrome","137.0.0.0","OS X","10_15_7","https://app.prolific.com/","en-ZA,en-GB;q=0.9,en-US;q=0.8,en;q=0.7","61248a51eefb6797024ecb85","683db7602f5db6a34d12d064","686faebc4fb79c8409affd50","1","61248a51eefb6797024ecb85","1","2025-07-10T12:33:40.157Z","","","","","","","","","","","MotivationQ","","50","","","","","","","","","","","","","","","","","","","","","","","","","","","","",""
"","","","","ctl-task-cpt","74","1152962","0.0-5.0-0.13","33","1","2025-07-10 12:14:57","01610cd0009c79a99da7d0a3353eb402","102.182.169.207","Mozilla/5.0 (Macintosh; Intel Mac OS X 10_15_7) AppleWebKit/537.36 (KHTML, like Gecko) Chrome/137.0.0.0 Safari/537.36","Macintosh","Chrome","137.0.0.0","OS X","10_15_7","https://app.prolific.com/","en-ZA,en-GB;q=0.9,en-US;q=0.8,en;q=0.7","61248a51eefb6797024ecb85","683db7602f5db6a34d12d064","686faebc4fb79c8409affd50","1","61248a51eefb6797024ecb85","1","2025-07-10T12:34:11.662Z","","","","","","","","","","","","","","win-only","0","g1:NW,g2:SE","0.8","14","0","1123812.6","1399.4","6401.3","28491","1","4","8","6","2","-8","-8","0","0","0","1582.8","3000","-2990","[""down"",""right""]","{""num_key_presses"":7,""num_perfect"":5,""num_errors"":0,""num_randdir"":2,""num_randdir_good_moves"":0,""num_whilered"":0,""num_whileblue"":0,""num_blue"":0,""num_good_moves"":5}","[692.2857142857143,700.0825892857143,0,692.2857142857143,700.0825892857143,101.3,692.2857142857143,700.0825892857143,206.7,692.2857142857143,700.0825892857143,310.8,692.2857142857143,700.0825892857143,411.2,692.2857142857143,700.0825892857143,511.5,692.2857142857143,700.0825892857143,616,618.2857142857143,644.0825892857143,716.5,570.2857142857143,594.0825892857143,821.3,570.2857142857143,594.0825892857143,921.7,638.2857142857143,628.0825892857143,1026.5,1360.2857142857142,1228.0825892857142,1131.9,1476.2857142857142,1342.0825892857142,1237.2,1476.2857142857142,1342.0825892857142,1341.3,1408.2857142857142,1320.0825892857142,1441.3,1356.2857142857142,1296.0825892857142,1546.2,1356.2857142857142,1296.0825892857142,1646.2,1356.2857142857142,1296.0825892857142,1746.4,1356.2857142857142,1296.0825892857142,1846.6,1356.2857142857142,1296.0825892857142,1951.8,1356.2857142857142,1296.0825892857142,2056.3,1356.2857142857142,1296.0825892857142,2161.5,1356.2857142857142,1296.0825892857142,2266.7,1356.2857142857142,1296.0825892857142,2366.8,1356.2857142857142,1296.0825892857142,2466.8,1356.2857142857142,1296.0825892857142,2570.7,1356.2857142857142,1296.0825892857142,2671.3,1356.2857142857142,1296.0825892857142,2776.9,1356.2857142857142,1296.0825892857142,2881.9,1356.2857142857142,1296.0825892857142,2986.2,1356.2857142857142,1296.0825892857142,3091.2,1356.2857142857142,1296.0825892857142,3191.6,1356.2857142857142,1296.0825892857142,3296.6,1356.2857142857142,1296.0825892857142,3401,1356.2857142857142,1296.0825892857142,3501.4,1356.2857142857142,1296.0825892857142,3605.7,1356.2857142857142,1296.0825892857142,3705.7,1356.2857142857142,1296.0825892857142,3805.9,1356.2857142857142,1296.0825892857142,3906,1356.2857142857142,1296.0825892857142,4006,1356.2857142857142,1296.0825892857142,4106.7,1356.2857142857142,1296.0825892857142,4211.5,1356.2857142857142,1296.0825892857142,4316.8,1356.2857142857142,1296.0825892857142,4421.8,1356.2857142857142,1296.0825892857142,4526.2,1356.2857142857142,1296.0825892857142,4631.1,1356.2857142857142,1296.0825892857142,4731.5,1356.2857142857142,1296.0825892857142,4836,1356.2857142857142,1296.0825892857142,4936.1]","[1484.1,1484.1,1000,0,484.1,""smooth"",""down"",""down"",""good_move"",4443.2,2958.7,2384.3,1484.5,574.4,""smooth"",""down"",""down"",""good_move"",7709.4,3265.9,2814.4,4443.5,451.5,""oops"",""down"",""left"",""bad_move"",10689.7,2980.2,2551.6,7709.5,428.6,""smooth"",""down"",""down"",""good_move"",13534.5,2844.4,2455.5,10690.1,388.9,""smooth"",""right"",""right"",""good_move"",16439.7,2904.9,2558.9,13534.8,346,""smooth"",""right"",""right"",""good_move"",19688.9,3248.9,2936.8,16440.1,312.1,""oops"",""right"",""up"",""bad_move""]","",""
"2963","","<div style=""width:500px;"">
  <p>What determined the result of this run?</p>
