"rt","response_timestamp","stimulus","response","trial_type","trial_index","time_elapsed","internal_node_id","run_id","condition","recorded_at","source_code_version","ip","user_agent","device","browser","browser_version","platform","platform_version","referer","accept_language","PROLIFIC_PID","STUDY_ID","SESSION_ID","WEEK","BATCH","prolific_id","week","batch","realtime","success","responses","item_order","radio_event_ids","radio_event_times","key_event_times","mouse_event_times","straightlining","zigzagging","honeypot","eventType","view_history","slider_start","which_type","canvas_config","goals_layout","control_level","trial_number","tutorial_trial_number","trial_start_time","phase1_start_time","phase2_start_time","phase3_start_time","goal_1_value","goal_1_distance","goal_2_value","goal_2_distance","goal_selected","outcome","outcome_total","participant_final_score","participant_initial_score","participant_final_score_prop","goal_choice_rt","allocated_time","allocated_time_remaining","goal_direction","counts","mouse_movements","key_presses","question_order","question_id"
"7266","1753891661837","<p style='font-size:40px;line-height:1.25'><strong>Welcome to the experiment!</strong></p><p style='font-size:1.1em;line-height:1.25'>Thank you for participanting in our experiment again! You will be asked to play the Dysfunctional Ball Game again. We will briefly recap the rules before we start.</p><p style='font-size:1.1em;line-height:1.25'>Press <strong>Next</strong> to continue.</p>","0","custom-html-button-response","0","7271","0.0-0.0","294","1","2025-07-30 16:06:47","1f75c3e559b7213887762d5229550c2b","37.47.116.83","Mozilla/5.0 (Windows NT 10.0; Win64; x64) AppleWebKit/537.36 (KHTML, like Gecko) Chrome/138.0.0.0 Safari/537.36","WebKit","Chrome","138.0.0.0","Windows","10.0","https://app.prolific.com/","pl-PL,pl;q=0.9","5c39ed7a688b59000102a145","6877631c9844ddd5501205fc","688a4308ddd6133e5b5a958f","3","1","5c39ed7a688b59000102a145","3","1","2025-07-30T16:07:41.839Z","","","","","","","","","","","","","","","","","","","","","","","","","","","","","","","","","","","","","","","","","",""
"1983","","","","fullscreen","1","10258","0.0-1.0","294","1","2025-07-30 16:06:47","1f75c3e559b7213887762d5229550c2b","37.47.116.83","Mozilla/5.0 (Windows NT 10.0; Win64; x64) AppleWebKit/537.36 (KHTML, like Gecko) Chrome/138.0.0.0 Safari/537.36","WebKit","Chrome","138.0.0.0","Windows","10.0","https://app.prolific.com/","pl-PL,pl;q=0.9","5c39ed7a688b59000102a145","6877631c9844ddd5501205fc","688a4308ddd6133e5b5a958f","3","1","5c39ed7a688b59000102a145","3","1","","true","","","","","","","","","","","","","","","","","","","","","","","","","","","","","","","","","","","","","","","","",""
"4243","1753891669069","<p style='font-size:1.1em;line-height:1.25'>In the following, we will ask you a few questions relating to your feelings in the last 24 hours.<br></p><p style='font-size:1.1em;line-height:1.25'>Press the <strong>Next</strong> button to continue.</p>","0","custom-html-button-response","2","14502","0.0-2.0-0.0","294","1","2025-07-30 16:06:47","1f75c3e559b7213887762d5229550c2b","37.47.116.83","Mozilla/5.0 (Windows NT 10.0; Win64; x64) AppleWebKit/537.36 (KHTML, like Gecko) Chrome/138.0.0.0 Safari/537.36","WebKit","Chrome","138.0.0.0","Windows","10.0","https://app.prolific.com/","pl-PL,pl;q=0.9","5c39ed7a688b59000102a145","6877631c9844ddd5501205fc","688a4308ddd6133e5b5a958f","3","1","5c39ed7a688b59000102a145","3","1","2025-07-30T16:07:49.070Z","","","","","","","","","","","","","","","","","","","","","","","","","","","","","","","","","","","","","","","","","",""
"117216.30000019073","","","","survey-template","3","131729","0.0-2.0-1.0","294","1","2025-07-30 16:06:47","1f75c3e559b7213887762d5229550c2b","37.47.116.83","Mozilla/5.0 (Windows NT 10.0; Win64; x64) AppleWebKit/537.36 (KHTML, like Gecko) Chrome/138.0.0.0 Safari/537.36","WebKit","Chrome","138.0.0.0","Windows","10.0","https://app.prolific.com/","pl-PL,pl;q=0.9","5c39ed7a688b59000102a145","6877631c9844ddd5501205fc","688a4308ddd6133e5b5a958f","3","1","5c39ed7a688b59000102a145","3","1","2025-07-30T16:09:46.297Z","","{""Q01"":""1"",""Q02"":""1"",""Q03"":""0"",""Q04"":""2"",""Q05"":""1"",""Q06"":""0"",""Q07"":""0"",""Q08"":""0"",""Q09"":""1"",""Q10"":""1"",""Q11"":""2"",""Q12"":""1"",""Q13"":""5"",""Q14"":""3"",""Q15"":""2"",""Q16"":""2"",""Q17"":""1"",""Q18"":""0"",""Q19"":""2"",""Q20"":""2"",""Q21"":""1"",""Q22"":""0""}","[0,1,2,3,4,5,6,7,8,9,10,11,12,13,14,15,16,17,18,19,20,21]","[""Q01"",""Q02"",""Q03"",""Q04"",""Q05"",""Q06"",""Q08"",""Q09"",""Q10"",""Q11"",""Q12"",""Q13"",""Q14"",""Q15"",""Q15"",""Q16"",""Q17"",""Q18"",""Q19"",""Q21"",""Q20"",""Q22"",""Q07""]","[5472.400000095367,9432.400000095367,12406,23360,25392.300000190735,28607.700000047684,31797.700000047684,34863.800000190735,37747.800000190735,42404,44879.200000047684,59861.300000190735,71235.40000009537,74857.60000014305,75900.30000019073,77835.40000009537,79601.5,82357.5,84725.80000019073,91623.40000009537,93841.60000014305,97619.70000004768,113304.30000019073]","[]","[0.40000009536743164,5472.400000095367,9432.400000095367,12406,15317.800000190735,21213.900000095367,23360,25392.300000190735,28607.700000047684,31797.700000047684,34863.800000190735,37747.800000190735,42404,44879.200000047684,59861.300000190735,71235.40000009537,74857.60000014305,75900.30000019073,77835.40000009537,79601.5,82357.5,84725.80000019073,87114,90439.40000009537,91623.40000009537,93841.60000014305,97619.70000004768,99652.30000019073,113304.30000019073,117205.80000019073]","0.36363636363636365","0.5238095238095238","0","drsp","","","","","","","","","","","","","","","","","","","","","","","","","","","","","","",""
"18387.799999952316","","","","survey-template","4","150121","0.0-2.0-2.0","294","1","2025-07-30 16:06:47","1f75c3e559b7213887762d5229550c2b","37.47.116.83","Mozilla/5.0 (Windows NT 10.0; Win64; x64) AppleWebKit/537.36 (KHTML, like Gecko) Chrome/138.0.0.0 Safari/537.36","WebKit","Chrome","138.0.0.0","Windows","10.0","https://app.prolific.com/","pl-PL,pl;q=0.9","5c39ed7a688b59000102a145","6877631c9844ddd5501205fc","688a4308ddd6133e5b5a958f","3","1","5c39ed7a688b59000102a145","3","1","2025-07-30T16:10:04.689Z","","{""Q01"":""2"",""Q02"":""1"",""Q03"":""2""}","[0,1,2]","[""Q01"",""Q02"",""Q03""]","[4107.200000047684,11732.799999952316,16829.200000047684]","[]","[4107.200000047684,11732.799999952316,16829.200000047684,18385.200000047684]","0.6666666666666666","0","0","stress","","","","","","","","","","","","","","","","","","","","","","","","","","","","","","",""
"6647","","","","instructions","5","156770","0.0-3.0-0.0","294","1","2025-07-30 16:06:47","1f75c3e559b7213887762d5229550c2b","37.47.116.83","Mozilla/5.0 (Windows NT 10.0; Win64; x64) AppleWebKit/537.36 (KHTML, like Gecko) Chrome/138.0.0.0 Safari/537.36","WebKit","Chrome","138.0.0.0","Windows","10.0","https://app.prolific.com/","pl-PL,pl;q=0.9","5c39ed7a688b59000102a145","6877631c9844ddd5501205fc","688a4308ddd6133e5b5a958f","3","1","5c39ed7a688b59000102a145","3","1","","","","","","","","","","","","","[{""page_index"":0,""viewing_time"":6646}]","","","","","","","","","","","","","","","","","","","","","","","","","","","","","",""
"9871","","<p>Before you start with this game please answer the following three questions yourself. </p>
  <p>Through this game, we measure several aspects of your cognitive performance, such as reaction times, multi-tasking capabilities </p>
  <p>and the ability to assess the situation you are in.</p>
  <p></p>
  <p><b>How good do you usually are in such tasks?</b></p>","71","html-slider-response","6","166644","0.0-4.0-0.0","294","1","2025-07-30 16:06:47","1f75c3e559b7213887762d5229550c2b","37.47.116.83","Mozilla/5.0 (Windows NT 10.0; Win64; x64) AppleWebKit/537.36 (KHTML, like Gecko) Chrome/138.0.0.0 Safari/537.36","WebKit","Chrome","138.0.0.0","Windows","10.0","https://app.prolific.com/","pl-PL,pl;q=0.9","5c39ed7a688b59000102a145","6877631c9844ddd5501205fc","688a4308ddd6133e5b5a958f","3","1","5c39ed7a688b59000102a145","3","1","2025-07-30T16:10:21.212Z","","","","","","","","","","","PreSkillQ","","50","","","","","","","","","","","","","","","","","","","","","","","","","","","","",""
"5191","","<div style=""width:500px;"">
  <p>How well do you think you will perform in this task compared to other participants?</p>
  </div>","65","html-slider-response","7","171838","0.0-4.0-1.0","294","1","2025-07-30 16:06:47","1f75c3e559b7213887762d5229550c2b","37.47.116.83","Mozilla/5.0 (Windows NT 10.0; Win64; x64) AppleWebKit/537.36 (KHTML, like Gecko) Chrome/138.0.0.0 Safari/537.36","WebKit","Chrome","138.0.0.0","Windows","10.0","https://app.prolific.com/","pl-PL,pl;q=0.9","5c39ed7a688b59000102a145","6877631c9844ddd5501205fc","688a4308ddd6133e5b5a958f","3","1","5c39ed7a688b59000102a145","3","1","2025-07-30T16:10:26.406Z","","","","","","","","","","","PrePerfQ","","50","","","","","","","","","","","","","","","","","","","","","","","","","","","","",""
"4281","","<div style=""width:500px;"">
  <p>What best describes how you currently feel?</p>
  </div>","99","html-slider-response","8","176121","0.0-4.0-2.0","294","1","2025-07-30 16:06:47","1f75c3e559b7213887762d5229550c2b","37.47.116.83","Mozilla/5.0 (Windows NT 10.0; Win64; x64) AppleWebKit/537.36 (KHTML, like Gecko) Chrome/138.0.0.0 Safari/537.36","WebKit","Chrome","138.0.0.0","Windows","10.0","https://app.prolific.com/","pl-PL,pl;q=0.9","5c39ed7a688b59000102a145","6877631c9844ddd5501205fc","688a4308ddd6133e5b5a958f","3","1","5c39ed7a688b59000102a145","3","1","2025-07-30T16:10:30.690Z","","","","","","","","","","","PreMotivationQ","","50","","","","","","","","","","","","","","","","","","","","","","","","","","","","",""
"","","","","ctl-task-cpt","9","208445","0.0-5.0-0.0","294","1","2025-07-30 16:06:47","1f75c3e559b7213887762d5229550c2b","37.47.116.83","Mozilla/5.0 (Windows NT 10.0; Win64; x64) AppleWebKit/537.36 (KHTML, like Gecko) Chrome/138.0.0.0 Safari/537.36","WebKit","Chrome","138.0.0.0","Windows","10.0","https://app.prolific.com/","pl-PL,pl;q=0.9","5c39ed7a688b59000102a145","6877631c9844ddd5501205fc","688a4308ddd6133e5b5a958f","3","1","5c39ed7a688b59000102a145","3","1","2025-07-30T16:11:03.014Z","","","","","","","","","","","","","","win-only","3","g1:SW,g2:NE","1","1","0","178354.6","2608.2","7613.1","29310.7","1","4","4","6","2","4","4","4","0","0.030303030303030304","2466.1","3000","325","[""up"",""right""]","{""num_key_presses"":6,""num_perfect"":6,""num_errors"":0,""num_randdir"":0,""num_randdir_good_moves"":0,""num_whilered"":0,""num_whileblue"":0,""num_blue"":2,""num_good_moves"":6}","[294.22232142857143,300.12857142857143,0.5,294.22232142857143,300.12857142857143,104.8,294.22232142857143,300.12857142857143,208.8,294.22232142857143,300.12857142857143,309,294.22232142857143,300.12857142857143,413.3,294.22232142857143,300.12857142857143,518,294.22232142857143,300.12857142857143,618.7,294.22232142857143,300.12857142857143,723.2,294.22232142857143,300.12857142857143,827.9,294.22232142857143,300.12857142857143,928.3,294.22232142857143,300.12857142857143,1033.3,294.22232142857143,300.12857142857143,1137.4,294.22232142857143,300.12857142857143,1238.9,294.22232142857143,300.12857142857143,1342.3,294.22232142857143,300.12857142857143,1442.9,311.22232142857143,311.12857142857143,1545.1,467.22232142857143,346.12857142857143,1650.2,450.22232142857143,346.12857142857143,1750.4,456.22232142857143,286.12857142857143,1852.8,503.22232142857143,143.12857142857143,1958.1,514.2223214285714,57.128571428571426,2058.9,520.2223214285714,37.128571428571426,2159.1,520.2223214285714,37.128571428571426,2260.8,523.2223214285714,42.128571428571426,2364.2,523.2223214285714,45.128571428571426,2479.3,523.2223214285714,45.128571428571426,2584.1,523.2223214285714,45.128571428571426,2688.4,523.2223214285714,45.128571428571426,2793.1,523.2223214285714,45.128571428571426,2898.8,523.2223214285714,45.128571428571426,2998.9,523.2223214285714,45.128571428571426,3103.5,523.2223214285714,45.128571428571426,3208.5,523.2223214285714,45.128571428571426,3312.9,523.2223214285714,45.128571428571426,3413.1,523.2223214285714,45.128571428571426,3514.4,523.2223214285714,45.128571428571426,3618.3,523.2223214285714,45.128571428571426,3722.7,523.2223214285714,45.128571428571426,3823.1,523.2223214285714,45.128571428571426,3923.5,523.2223214285714,45.128571428571426,4028.9,523.2223214285714,45.128571428571426,4133.7,523.2223214285714,45.128571428571426,4238.4,523.2223214285714,45.128571428571426,4342.9,523.2223214285714,45.128571428571426,4443.1,523.2223214285714,45.128571428571426,4543.8,523.2223214285714,45.128571428571426,4645.1,523.2223214285714,45.128571428571426,4747.8,523.2223214285714,45.128571428571426,4848.8,523.2223214285714,45.128571428571426,4953.1]","[1513.5,1513.4,1000,0.1,513.5,""smooth"",""up"",""up"",""good_move"",7850.2,6336.1,2294.2,5132.7,423.3,""smooth"",""up"",""up"",""good_move"",10486.7,2634.3,2168.7,7852.5,465.5,""smooth"",""right"",""right"",""good_move"",12867,2379.7,1935.5,10487.4,444.1,""smooth"",""right"",""right"",""good_move"",16010.7,3143.2,2655.9,12867.5,487.4,""smooth"",""right"",""right"",""good_move"",21593.7,5580.6,2081.7,19037.6,474.4,""smooth"",""up"",""up"",""good_move""]","",""
"5802","","<div style=""width:500px;"">
  <p>What determined the result of this run?</p>
  </div>","88","html-slider-response","10","214249","0.0-5.0-1.0","294","1","2025-07-30 16:06:47","1f75c3e559b7213887762d5229550c2b","37.47.116.83","Mozilla/5.0 (Windows NT 10.0; Win64; x64) AppleWebKit/537.36 (KHTML, like Gecko) Chrome/138.0.0.0 Safari/537.36","WebKit","Chrome","138.0.0.0","Windows","10.0","https://app.prolific.com/","pl-PL,pl;q=0.9","5c39ed7a688b59000102a145","6877631c9844ddd5501205fc","688a4308ddd6133e5b5a958f","3","1","5c39ed7a688b59000102a145","3","1","2025-07-30T16:11:08.818Z","","","","","","","","","","","AttribQ","","50","","","","","","","","","","","","","","","","","","","","","","","","","","","","",""
"3558","","<div style=""width:500px;"">
  <p>How much control did you have over the ball?</p>
  </div>","100","html-slider-response","11","217810","0.0-5.0-2.0","294","1","2025-07-30 16:06:47","1f75c3e559b7213887762d5229550c2b","37.47.116.83","Mozilla/5.0 (Windows NT 10.0; Win64; x64) AppleWebKit/537.36 (KHTML, like Gecko) Chrome/138.0.0.0 Safari/537.36","WebKit","Chrome","138.0.0.0","Windows","10.0","https://app.prolific.com/","pl-PL,pl;q=0.9","5c39ed7a688b59000102a145","6877631c9844ddd5501205fc","688a4308ddd6133e5b5a958f","3","1","5c39ed7a688b59000102a145","3","1","2025-07-30T16:11:12.378Z","","","","","","","","","","","ControlQ","","50","","","","","","","","","","","","","","","","","","","","","","","","","","","","",""
"6696","","<div style=""width:500px;"">
  <p>How would you describe your current emotional state?</p>
  </div>","99","html-slider-response","12","224509","0.0-5.0-3.0","294","1","2025-07-30 16:06:47","1f75c3e559b7213887762d5229550c2b","37.47.116.83","Mozilla/5.0 (Windows NT 10.0; Win64; x64) AppleWebKit/537.36 (KHTML, like Gecko) Chrome/138.0.0.0 Safari/537.36","WebKit","Chrome","138.0.0.0","Windows","10.0","https://app.prolific.com/","pl-PL,pl;q=0.9","5c39ed7a688b59000102a145","6877631c9844ddd5501205fc","688a4308ddd6133e5b5a958f","3","1","5c39ed7a688b59000102a145","3","1","2025-07-30T16:11:19.077Z","","","","","","","","","","","StressQ","","50","","","","","","","","","","","","","","","","","","","","","","","","","","","","",""
"2955","","<div style=""width:500px;"">
  <p>What best describes how you currently feel?</p>
  </div>","100","html-slider-response","13","227467","0.0-5.0-4.0","294","1","2025-07-30 16:06:47","1f75c3e559b7213887762d5229550c2b","37.47.116.83","Mozilla/5.0 (Windows NT 10.0; Win64; x64) AppleWebKit/537.36 (KHTML, like Gecko) Chrome/138.0.0.0 Safari/537.36","WebKit","Chrome","138.0.0.0","Windows","10.0","https://app.prolific.com/","pl-PL,pl;q=0.9","5c39ed7a688b59000102a145","6877631c9844ddd5501205fc","688a4308ddd6133e5b5a958f","3","1","5c39ed7a688b59000102a145","3","1","2025-07-30T16:11:22.035Z","","","","","","","","","","","MotivationQ","","50","","","","","","","","","","","","","","","","","","","","","","","","","","","","",""
"","","","","ctl-task-cpt","14","260921","0.0-5.0-0.1","294","1","2025-07-30 16:06:47","1f75c3e559b7213887762d5229550c2b","37.47.116.83","Mozilla/5.0 (Windows NT 10.0; Win64; x64) AppleWebKit/537.36 (KHTML, like Gecko) Chrome/138.0.0.0 Safari/537.36","WebKit","Chrome","138.0.0.0","Windows","10.0","https://app.prolific.com/","pl-PL,pl;q=0.9","5c39ed7a688b59000102a145","6877631c9844ddd5501205fc","688a4308ddd6133e5b5a958f","3","1","5c39ed7a688b59000102a145","3","1","2025-07-30T16:11:55.489Z","","","","","","","","","","","","","","win-only","1","g1:NE,g2:SW","0.9","2","0","229696.6","1308.7","6311.5","30436.6","1","4","8","6","2","-8","-8","0","4","0","1502.3","3000","-3000","[""down"",""left""]","{""num_key_presses"":6,""num_perfect"":5,""num_errors"":0,""num_randdir"":1,""num_randdir_good_moves"":0,""num_whilered"":0,""num_whileblue"":0,""num_blue"":2,""num_good_moves"":5}","[295.22232142857143,298.12857142857143,0.4,295.22232142857143,298.12857142857143,106.5,295.22232142857143,298.12857142857143,207,295.22232142857143,298.12857142857143,308.5,295.22232142857143,298.12857142857143,411.8,295.22232142857143,298.12857142857143,512.8,264.22232142857143,327.12857142857143,616.8,47.222321428571426,518.1285714285714,718.5,-80.77767857142857,626.1285714285714,823.6,-83.77767857142857,642.1285714285714,927.7,-33.777678571428574,612.1285714285714,1032.5,8.222321428571426,569.1285714285714,1132.7,40.222321428571426,547.1285714285714,1232.8,43.222321428571426,545.1285714285714,1338.6,43.222321428571426,545.1285714285714,1442,43.222321428571426,544.1285714285714,1544.1,43.222321428571426,544.1285714285714,1650.5,43.222321428571426,544.1285714285714,1752.3,43.222321428571426,544.1285714285714,1852.5,43.222321428571426,544.1285714285714,1957.1,43.222321428571426,544.1285714285714,2062.7,43.222321428571426,544.1285714285714,2163,43.222321428571426,544.1285714285714,2263.6,43.222321428571426,544.1285714285714,2367.2,43.222321428571426,544.1285714285714,2467.9,43.222321428571426,544.1285714285714,2572,43.222321428571426,544.1285714285714,2672,43.222321428571426,544.1285714285714,2772.2,43.222321428571426,544.1285714285714,2872.5,43.222321428571426,544.1285714285714,2972.6,43.222321428571426,544.1285714285714,3076.8,43.222321428571426,544.1285714285714,3179.5,43.222321428571426,544.1285714285714,3282.2,43.222321428571426,544.1285714285714,3386.6,43.222321428571426,544.1285714285714,3487.3,43.222321428571426,544.1285714285714,3591.8,43.222321428571426,544.1285714285714,3692.1,43.222321428571426,544.1285714285714,3792.2,43.222321428571426,544.1285714285714,3897.8,43.222321428571426,544.1285714285714,3997.8,43.222321428571426,544.1285714285714,4098.5,43.222321428571426,544.1285714285714,4201.9,43.222321428571426,544.1285714285714,4302.6,43.222321428571426,544.1285714285714,4407.6,43.222321428571426,544.1285714285714,4516,43.222321428571426,544.1285714285714,4618.1,43.222321428571426,544.1285714285714,4722.7,43.222321428571426,544.1285714285714,4827.8,43.222321428571426,544.1285714285714,4927.8]","[1461.1,1461,1000,0.1,461,""smooth"",""down"",""down"",""good_move"",3847.1,2384.9,1984.4,1462.3,400.4,""smooth"",""left"",""left"",""good_move"",6239.7,2391.9,1966.5,3847.8,425.4,""smooth"",""down"",""down"",""good_move"",12252.7,6012.6,1843.8,9989.8,419.1,""oops"",""left"",""up"",""bad_move"",17901.6,5647.9,2223.9,15269.9,407.8,""smooth"",""left"",""left"",""good_move"",21342.2,3440,2643.8,17902.3,796.2,""smooth"",""down"",""down"",""good_move""]","",""
"4721","","<div style=""width:500px;"">
  <p>What determined the result of this run?</p>
  </div>","79","html-slider-response","15","265644","0.0-5.0-1.1","294","1","2025-07-30 16:06:47","1f75c3e559b7213887762d5229550c2b","37.47.116.83","Mozilla/5.0 (Windows NT 10.0; Win64; x64) AppleWebKit/537.36 (KHTML, like Gecko) Chrome/138.0.0.0 Safari/537.36","WebKit","Chrome","138.0.0.0","Windows","10.0","https://app.prolific.com/","pl-PL,pl;q=0.9","5c39ed7a688b59000102a145","6877631c9844ddd5501205fc","688a4308ddd6133e5b5a958f","3","1","5c39ed7a688b59000102a145","3","1","2025-07-30T16:12:00.212Z","","","","","","","","","","","AttribQ","","50","","","","","","","","","","","","","","","","","","","","","","","","","","","","",""
"2940","","<div style=""width:500px;"">
  <p>How much control did you have over the ball?</p>
  </div>","90","html-slider-response","16","268587","0.0-5.0-2.1","294","1","2025-07-30 16:06:47","1f75c3e559b7213887762d5229550c2b","37.47.116.83","Mozilla/5.0 (Windows NT 10.0; Win64; x64) AppleWebKit/537.36 (KHTML, like Gecko) Chrome/138.0.0.0 Safari/537.36","WebKit","Chrome","138.0.0.0","Windows","10.0","https://app.prolific.com/","pl-PL,pl;q=0.9","5c39ed7a688b59000102a145","6877631c9844ddd5501205fc","688a4308ddd6133e5b5a958f","3","1","5c39ed7a688b59000102a145","3","1","2025-07-30T16:12:03.155Z","","","","","","","","","","","ControlQ","","50","","","","","","","","","","","","","","","","","","","","","","","","","","","","",""
"3629","","<div style=""width:500px;"">
  <p>How would you describe your current emotional state?</p>
  </div>","99","html-slider-response","17","272219","0.0-5.0-3.1","294","1","2025-07-30 16:06:47","1f75c3e559b7213887762d5229550c2b","37.47.116.83","Mozilla/5.0 (Windows NT 10.0; Win64; x64) AppleWebKit/537.36 (KHTML, like Gecko) Chrome/138.0.0.0 Safari/537.36","WebKit","Chrome","138.0.0.0","Windows","10.0","https://app.prolific.com/","pl-PL,pl;q=0.9","5c39ed7a688b59000102a145","6877631c9844ddd5501205fc","688a4308ddd6133e5b5a958f","3","1","5c39ed7a688b59000102a145","3","1","2025-07-30T16:12:06.787Z","","","","","","","","","","","StressQ","","50","","","","","","","","","","","","","","","","","","","","","","","","","","","","",""
"2505","","<div style=""width:500px;"">
  <p>What best describes how you currently feel?</p>
  </div>","98","html-slider-response","18","274727","0.0-5.0-4.1","294","1","2025-07-30 16:06:47","1f75c3e559b7213887762d5229550c2b","37.47.116.83","Mozilla/5.0 (Windows NT 10.0; Win64; x64) AppleWebKit/537.36 (KHTML, like Gecko) Chrome/138.0.0.0 Safari/537.36","WebKit","Chrome","138.0.0.0","Windows","10.0","https://app.prolific.com/","pl-PL,pl;q=0.9","5c39ed7a688b59000102a145","6877631c9844ddd5501205fc","688a4308ddd6133e5b5a958f","3","1","5c39ed7a688b59000102a145","3","1","2025-07-30T16:12:09.295Z","","","","","","","","","","","MotivationQ","","50","","","","","","","","","","","","","","","","","","","","","","","","","","","","",""
"","","","","ctl-task-cpt","19","309151","0.0-5.0-0.2","294","1","2025-07-30 16:06:47","1f75c3e559b7213887762d5229550c2b","37.47.116.83","Mozilla/5.0 (Windows NT 10.0; Win64; x64) AppleWebKit/537.36 (KHTML, like Gecko) Chrome/138.0.0.0 Safari/537.36","WebKit","Chrome","138.0.0.0","Windows","10.0","https://app.prolific.com/","pl-PL,pl;q=0.9","5c39ed7a688b59000102a145","6877631c9844ddd5501205fc","688a4308ddd6133e5b5a958f","3","1","5c39ed7a688b59000102a145","3","1","2025-07-30T16:12:43.720Z","","","","","","","","","","","","","","win-only","0","g1:NW,g2:SE","0.8","3","0","276960.3","1628.6","6630.8","31406","1","4","4","6","2","-4","-4","0","0","0","1438.5","3000","-2985","[""down"",""right""]","{""num_key_presses"":7,""num_perfect"":5,""num_errors"":0,""num_randdir"":2,""num_randdir_good_moves"":1,""num_whilered"":0,""num_whileblue"":0,""num_blue"":1,""num_good_moves"":6}","[295.22232142857143,295.12857142857143,0.2,295.22232142857143,295.12857142857143,103.8,295.22232142857143,295.12857142857143,204,295.22232142857143,295.12857142857143,308.8,295.22232142857143,296.12857142857143,413.8,295.22232142857143,296.12857142857143,517.7,339.22232142857143,351.12857142857143,618.2,402.22232142857143,442.12857142857143,723.5,511.22232142857143,555.1285714285714,829.5,529.2223214285714,560.1285714285714,933.7,530.2223214285714,560.1285714285714,1038,530.2223214285714,558.1285714285714,1144,530.2223214285714,558.1285714285714,1244,530.2223214285714,556.1285714285714,1344.4,532.2223214285714,554.1285714285714,1445.1,532.2223214285714,554.1285714285714,1546.8,532.2223214285714,554.1285714285714,1647.7,532.2223214285714,554.1285714285714,1748.5,531.2223214285714,554.1285714285714,1853.3,531.2223214285714,554.1285714285714,1957.3,531.2223214285714,554.1285714285714,2063,531.2223214285714,554.1285714285714,2167,531.2223214285714,554.1285714285714,2267.5,531.2223214285714,554.1285714285714,2372.3,531.2223214285714,554.1285714285714,2472.4,531.2223214285714,554.1285714285714,2581.3,531.2223214285714,554.1285714285714,2682.2,531.2223214285714,554.1285714285714,2783.3,531.2223214285714,554.1285714285714,2887.8,531.2223214285714,554.1285714285714,3000.9,531.2223214285714,554.1285714285714,3102.4,531.2223214285714,554.1285714285714,3208,531.2223214285714,554.1285714285714,3308.8,531.2223214285714,554.1285714285714,3412.2,531.2223214285714,554.1285714285714,3512.2,531.2223214285714,554.1285714285714,3613.3,531.2223214285714,554.1285714285714,3717,531.2223214285714,554.1285714285714,3822.1,531.2223214285714,554.1285714285714,3922.3,531.2223214285714,554.1285714285714,4024.2,531.2223214285714,554.1285714285714,4127.5,531.2223214285714,554.1285714285714,4227.5,531.2223214285714,554.1285714285714,4332.6,531.2223214285714,554.1285714285714,4437.2,531.2223214285714,554.1285714285714,4538.1,531.2223214285714,554.1285714285714,4644.3,531.2223214285714,554.1285714285714,4744.8,531.2223214285714,554.1285714285714,4847.6,531.2223214285714,554.1285714285714,4952.3]","[1404.8,1404.8,1000,0,404.8,""smooth"",""down"",""down"",""good_move"",4372.4,2966.3,2582.8,1406.1,383.5,""oops"",""down"",""left"",""bad_move"",7266.1,2893.1,2482.3,4373.1,410.7,""smooth"",""down"",""down"",""good_move"",10509,3242.5,2848,7266.5,394.5,""smooth"",""down"",""down"",""good_move"",16976.2,6466.9,2446,14128.1,402.1,""smooth"",""right"",""right"",""good_move"",19620.3,2642.4,2120.2,16977.9,522.2,""smooth"",""right"",""right"",""good_move"",22432,2810.1,2411.1,19621.9,399,""oops"",""right"",""right"",""good_move""]","",""
"2088","","<div style=""width:500px;"">
  <p>What determined the result of this run?</p>
  </div>","78","html-slider-response","20","311241","0.0-5.0-1.2","294","1","2025-07-30 16:06:47","1f75c3e559b7213887762d5229550c2b","37.47.116.83","Mozilla/5.0 (Windows NT 10.0; Win64; x64) AppleWebKit/537.36 (KHTML, like Gecko) Chrome/138.0.0.0 Safari/537.36","WebKit","Chrome","138.0.0.0","Windows","10.0","https://app.prolific.com/","pl-PL,pl;q=0.9","5c39ed7a688b59000102a145","6877631c9844ddd5501205fc","688a4308ddd6133e5b5a958f","3","1","5c39ed7a688b59000102a145","3","1","2025-07-30T16:12:45.809Z","","","","","","","","","","","AttribQ","","50","","","","","","","","","","","","","","","","","","","","","","","","","","","","",""
"2617","","<div style=""width:500px;"">
  <p>How much control did you have over the ball?</p>
  </div>","95","html-slider-response","21","313861","0.0-5.0-2.2","294","1","2025-07-30 16:06:47","1f75c3e559b7213887762d5229550c2b","37.47.116.83","Mozilla/5.0 (Windows NT 10.0; Win64; x64) AppleWebKit/537.36 (KHTML, like Gecko) Chrome/138.0.0.0 Safari/537.36","WebKit","Chrome","138.0.0.0","Windows","10.0","https://app.prolific.com/","pl-PL,pl;q=0.9","5c39ed7a688b59000102a145","6877631c9844ddd5501205fc","688a4308ddd6133e5b5a958f","3","1","5c39ed7a688b59000102a145","3","1","2025-07-30T16:12:48.429Z","","","","","","","","","","","ControlQ","","50","","","","","","","","","","","","","","","","","","","","","","","","","","","","",""
"2489","","<div style=""width:500px;"">
  <p>How would you describe your current emotional state?</p>
  </div>","98","html-slider-response","22","316352","0.0-5.0-3.2","294","1","2025-07-30 16:06:47","1f75c3e559b7213887762d5229550c2b","37.47.116.83","Mozilla/5.0 (Windows NT 10.0; Win64; x64) AppleWebKit/537.36 (KHTML, like Gecko) Chrome/138.0.0.0 Safari/537.36","WebKit","Chrome","138.0.0.0","Windows","10.0","https://app.prolific.com/","pl-PL,pl;q=0.9","5c39ed7a688b59000102a145","6877631c9844ddd5501205fc","688a4308ddd6133e5b5a958f","3","1","5c39ed7a688b59000102a145","3","1","2025-07-30T16:12:50.920Z","","","","","","","","","","","StressQ","","50","","","","","","","","","","","","","","","","","","","","","","","","","","","","",""
"1914","","<div style=""width:500px;"">
  <p>What best describes how you currently feel?</p>
  </div>","99","html-slider-response","23","318269","0.0-5.0-4.2","294","1","2025-07-30 16:06:47","1f75c3e559b7213887762d5229550c2b","37.47.116.83","Mozilla/5.0 (Windows NT 10.0; Win64; x64) AppleWebKit/537.36 (KHTML, like Gecko) Chrome/138.0.0.0 Safari/537.36","WebKit","Chrome","138.0.0.0","Windows","10.0","https://app.prolific.com/","pl-PL,pl;q=0.9","5c39ed7a688b59000102a145","6877631c9844ddd5501205fc","688a4308ddd6133e5b5a958f","3","1","5c39ed7a688b59000102a145","3","1","2025-07-30T16:12:52.837Z","","","","","","","","","","","MotivationQ","","50","","","","","","","","","","","","","","","","","","","","","","","","","","","","",""
"","","","","ctl-task-cpt","24","356916","0.0-5.0-0.3","294","1","2025-07-30 16:06:47","1f75c3e559b7213887762d5229550c2b","37.47.116.83","Mozilla/5.0 (Windows NT 10.0; Win64; x64) AppleWebKit/537.36 (KHTML, like Gecko) Chrome/138.0.0.0 Safari/537.36","WebKit","Chrome","138.0.0.0","Windows","10.0","https://app.prolific.com/","pl-PL,pl;q=0.9","5c39ed7a688b59000102a145","6877631c9844ddd5501205fc","688a4308ddd6133e5b5a958f","3","1","5c39ed7a688b59000102a145","3","1","2025-07-30T16:13:31.484Z","","","","","","","","","","","","","","win-only","2","g1:SE,g2:NW","0.7","4","0","320501","1006.4","6015.2","35626.4","1","4","8","6","2","-8","-10","0","0","0","1385.7","3000","-2880","[""left"",""up""]","{""num_key_presses"":10,""num_perfect"":6,""num_errors"":2,""num_randdir"":2,""num_randdir_good_moves"":0,""num_whilered"":0,""num_whileblue"":2,""num_blue"":2,""num_good_moves"":7}","[294.22232142857143,294.12857142857143,0.4,294.22232142857143,294.12857142857143,102.5,294.22232142857143,294.12857142857143,203.6,294.22232142857143,294.12857142857143,304.1,312.22232142857143,376.12857142857143,404.5,315.22232142857143,396.12857142857143,505.7,175.22232142857143,313.12857142857143,616.5,22.222321428571426,107.12857142857143,719.3,12.222321428571426,84.12857142857143,819.8,12.222321428571426,84.12857142857143,920,18.222321428571426,87.12857142857143,1020.9,26.222321428571426,88.12857142857143,1127.6,38.222321428571426,83.12857142857143,1231.5,42.222321428571426,69.12857142857143,1334.9,42.222321428571426,68.12857142857143,1437.2,42.222321428571426,68.12857142857143,1545.9,42.222321428571426,68.12857142857143,1646.7,42.222321428571426,68.12857142857143,1749.6,43.222321428571426,68.12857142857143,1850.4,43.222321428571426,68.12857142857143,1951.5,43.222321428571426,68.12857142857143,2052.2,43.222321428571426,68.12857142857143,2160.2,43.222321428571426,68.12857142857143,2260.6,43.222321428571426,68.12857142857143,2364.3,43.222321428571426,68.12857142857143,2465.5,43.222321428571426,68.12857142857143,2568.9,43.222321428571426,68.12857142857143,2669.5,43.222321428571426,68.12857142857143,2776.2,43.222321428571426,68.12857142857143,2881.7,43.222321428571426,68.12857142857143,2984.5,43.222321428571426,68.12857142857143,3084.6,43.222321428571426,68.12857142857143,3195,43.222321428571426,68.12857142857143,3295.3,43.222321428571426,68.12857142857143,3395.5,43.222321428571426,68.12857142857143,3500.7,43.222321428571426,68.12857142857143,3606.3,43.222321428571426,68.12857142857143,3707.6,43.222321428571426,68.12857142857143,3816.2,43.222321428571426,68.12857142857143,3926.1,43.222321428571426,68.12857142857143,4035.5,43.222321428571426,68.12857142857143,4142.1,43.222321428571426,68.12857142857143,4245,43.222321428571426,68.12857142857143,4350.1,43.222321428571426,68.12857142857143,4450.2,43.222321428571426,68.12857142857143,4556.7,43.222321428571426,68.12857142857143,4659.8,43.222321428571426,68.12857142857143,4760.2,43.222321428571426,68.12857142857143,4864,43.222321428571426,68.12857142857143,4964.4]","[1397.4,1397.5,1000.4,0,397.1,""while_blue"",""left"",""right"",""bad_move"",3883.1,2484.9,1942.2,1398.2,542.7,""smooth"",""left"",""left"",""good_move"",7027.9,3144.3,2746.5,3883.7,397.8,""smooth"",""up"",""up"",""good_move"",10062.3,3032.9,2696.4,7029.4,336.5,""smooth"",""up"",""up"",""good_move"",12572.6,2509.8,2118,10062.8,391.8,""smooth"",""up"",""up"",""good_move"",15486.8,2913.8,2581.8,12573,332,""oops"",""left"",""right"",""bad_move"",17668.7,2180.6,1810.5,15488.1,370.1,""smooth"",""left"",""left"",""good_move"",21424.3,3754.3,3459.4,17670,294.9,""oops"",""left"",""right"",""bad_move"",24313.6,2888.1,2588.3,21425.5,299.8,""while_blue"",""left"",""left"",""good_move"",27081.4,2767,2293.3,24314.5,473.6,""smooth"",""left"",""left"",""good_move""]","",""
"4945","","<div style=""width:500px;"">
  <p>What determined the result of this run?</p>
  </div>","74","html-slider-response","25","361863","0.0-5.0-1.3","294","1","2025-07-30 16:06:47","1f75c3e559b7213887762d5229550c2b","37.47.116.83","Mozilla/5.0 (Windows NT 10.0; Win64; x64) AppleWebKit/537.36 (KHTML, like Gecko) Chrome/138.0.0.0 Safari/537.36","WebKit","Chrome","138.0.0.0","Windows","10.0","https://app.prolific.com/","pl-PL,pl;q=0.9","5c39ed7a688b59000102a145","6877631c9844ddd5501205fc","688a4308ddd6133e5b5a958f","3","1","5c39ed7a688b59000102a145","3","1","2025-07-30T16:13:36.432Z","","","","","","","","","","","AttribQ","","50","","","","","","","","","","","","","","","","","","","","","","","","","","","","",""
"3259","","<div style=""width:500px;"">
  <p>How much control did you have over the ball?</p>
  </div>","73","html-slider-response","26","365125","0.0-5.0-2.3","294","1","2025-07-30 16:06:47","1f75c3e559b7213887762d5229550c2b","37.47.116.83","Mozilla/5.0 (Windows NT 10.0; Win64; x64) AppleWebKit/537.36 (KHTML, like Gecko) Chrome/138.0.0.0 Safari/537.36","WebKit","Chrome","138.0.0.0","Windows","10.0","https://app.prolific.com/","pl-PL,pl;q=0.9","5c39ed7a688b59000102a145","6877631c9844ddd5501205fc","688a4308ddd6133e5b5a958f","3","1","5c39ed7a688b59000102a145","3","1","2025-07-30T16:13:39.693Z","","","","","","","","","","","ControlQ","","50","","","","","","","","","","","","","","","","","","","","","","","","","","","","",""
"2653","","<div style=""width:500px;"">
  <p>How would you describe your current emotional state?</p>
  </div>","99","html-slider-response","27","367781","0.0-5.0-3.3","294","1","2025-07-30 16:06:47","1f75c3e559b7213887762d5229550c2b","37.47.116.83","Mozilla/5.0 (Windows NT 10.0; Win64; x64) AppleWebKit/537.36 (KHTML, like Gecko) Chrome/138.0.0.0 Safari/537.36","WebKit","Chrome","138.0.0.0","Windows","10.0","https://app.prolific.com/","pl-PL,pl;q=0.9","5c39ed7a688b59000102a145","6877631c9844ddd5501205fc","688a4308ddd6133e5b5a958f","3","1","5c39ed7a688b59000102a145","3","1","2025-07-30T16:13:42.349Z","","","","","","","","","","","StressQ","","50","","","","","","","","","","","","","","","","","","","","","","","","","","","","",""
"2832","","<div style=""width:500px;"">
  <p>What best describes how you currently feel?</p>
  </div>","100","html-slider-response","28","370615","0.0-5.0-4.3","294","1","2025-07-30 16:06:47","1f75c3e559b7213887762d5229550c2b","37.47.116.83","Mozilla/5.0 (Windows NT 10.0; Win64; x64) AppleWebKit/537.36 (KHTML, like Gecko) Chrome/138.0.0.0 Safari/537.36","WebKit","Chrome","138.0.0.0","Windows","10.0","https://app.prolific.com/","pl-PL,pl;q=0.9","5c39ed7a688b59000102a145","6877631c9844ddd5501205fc","688a4308ddd6133e5b5a958f","3","1","5c39ed7a688b59000102a145","3","1","2025-07-30T16:13:45.184Z","","","","","","","","","","","MotivationQ","","50","","","","","","","","","","","","","","","","","","","","","","","","","","","","",""
"","","","","ctl-task-cpt","29","399098","0.0-5.0-0.4","294","1","2025-07-30 16:06:47","1f75c3e559b7213887762d5229550c2b","37.47.116.83","Mozilla/5.0 (Windows NT 10.0; Win64; x64) AppleWebKit/537.36 (KHTML, like Gecko) Chrome/138.0.0.0 Safari/537.36","WebKit","Chrome","138.0.0.0","Windows","10.0","https://app.prolific.com/","pl-PL,pl;q=0.9","5c39ed7a688b59000102a145","6877631c9844ddd5501205fc","688a4308ddd6133e5b5a958f","3","1","5c39ed7a688b59000102a145","3","1","2025-07-30T16:14:13.666Z","","","","","","","","","","","","","","win-only","0","g1:NW,g2:SE","0.6","5","0","372847.2","1534.2","6537.3","25466.2","1","4","4","6","2","4","2","2","0","0.015151515151515152","2696.4","3000","1085","[""down"",""right""]","{""num_key_presses"":7,""num_perfect"":3,""num_errors"":2,""num_randdir"":2,""num_randdir_good_moves"":2,""num_whilered"":0,""num_whileblue"":1,""num_blue"":1,""num_good_moves"":6}","[305.22232142857143,294.12857142857143,0.5,305.22232142857143,294.12857142857143,101,305.22232142857143,294.12857142857143,203.3,305.22232142857143,294.12857142857143,308.2,305.22232142857143,294.12857142857143,410.8,310.22232142857143,309.12857142857143,515.4,310.22232142857143,310.12857142857143,621.8,310.22232142857143,310.12857142857143,729.7,310.22232142857143,310.12857142857143,832.2,310.22232142857143,310.12857142857143,937,310.22232142857143,310.12857142857143,1044.4,310.22232142857143,310.12857142857143,1146.2,310.22232142857143,310.12857142857143,1247.1,310.22232142857143,310.12857142857143,1351.1,310.22232142857143,310.12857142857143,1453,310.22232142857143,310.12857142857143,1553.1,310.22232142857143,310.12857142857143,1653.1,310.22232142857143,310.12857142857143,1753.2,310.22232142857143,310.12857142857143,1853.7,310.22232142857143,311.12857142857143,1959.7,387.22232142857143,322.12857142857143,2068,508.22232142857143,439.12857142857143,2171.9,529.2223214285714,456.12857142857143,2281,530.2223214285714,483.12857142857143,2381.6,535.2223214285714,498.12857142857143,2483.4,537.2223214285714,501.12857142857143,2592.9,539.2223214285714,507.12857142857143,2701.2,539.2223214285714,507.12857142857143,2803.4,539.2223214285714,507.12857142857143,2903.9,539.2223214285714,507.12857142857143,3009.9,539.2223214285714,507.12857142857143,3118.2,539.2223214285714,507.12857142857143,3222.6,539.2223214285714,507.12857142857143,3325.7,539.2223214285714,507.12857142857143,3428.6,539.2223214285714,507.12857142857143,3532.1,539.2223214285714,507.12857142857143,3632.6,539.2223214285714,507.12857142857143,3736.9,539.2223214285714,507.12857142857143,3836.9,539.2223214285714,507.12857142857143,3936.9,539.2223214285714,507.12857142857143,4037,539.2223214285714,507.12857142857143,4140.6,539.2223214285714,507.12857142857143,4247,539.2223214285714,507.12857142857143,4352.2,539.2223214285714,507.12857142857143,4462.5,539.2223214285714,507.12857142857143,4564.6,539.2223214285714,507.12857142857143,4668,539.2223214285714,507.12857142857143,4774.7,539.2223214285714,507.12857142857143,4880.5,539.2223214285714,507.12857142857143,4981.8]","[1454.5,1454.5,1000,0,454.5,""smooth"",""down"",""down"",""good_move"",5018.6,3562.3,3150.2,1456.3,412.1,""smooth"",""down"",""down"",""good_move"",7468.8,2448.4,2100.3,5020.6,347.9,""oops"",""right"",""right"",""good_move"",9879.2,2409.4,2060.9,7469.8,348.5,""while_blue"",""right"",""right"",""good_move"",12681.1,2801.2,2865.5,9879.9,-64.3,""error"",""-"",""-"",""no_move"",16173.7,3492.4,1890.6,13683.9,599.3,""smooth"",""down"",""down"",""good_move"",18811.3,2636.9,2238.1,16174.4,398.8,""oops"",""right"",""right"",""good_move""]","",""
"5660","","<div style=""width:500px;"">
  <p>What determined the result of this run?</p>
  </div>","82","html-slider-response","30","404761","0.0-5.0-1.4","294","1","2025-07-30 16:06:47","1f75c3e559b7213887762d5229550c2b","37.47.116.83","Mozilla/5.0 (Windows NT 10.0; Win64; x64) AppleWebKit/537.36 (KHTML, like Gecko) Chrome/138.0.0.0 Safari/537.36","WebKit","Chrome","138.0.0.0","Windows","10.0","https://app.prolific.com/","pl-PL,pl;q=0.9","5c39ed7a688b59000102a145","6877631c9844ddd5501205fc","688a4308ddd6133e5b5a958f","3","1","5c39ed7a688b59000102a145","3","1","2025-07-30T16:14:19.330Z","","","","","","","","","","","AttribQ","","50","","","","","","","","","","","","","","","","","","","","","","","","","","","","",""
"2405","","<div style=""width:500px;"">
  <p>How much control did you have over the ball?</p>
  </div>","87","html-slider-response","31","407168","0.0-5.0-2.4","294","1","2025-07-30 16:06:47","1f75c3e559b7213887762d5229550c2b","37.47.116.83","Mozilla/5.0 (Windows NT 10.0; Win64; x64) AppleWebKit/537.36 (KHTML, like Gecko) Chrome/138.0.0.0 Safari/537.36","WebKit","Chrome","138.0.0.0","Windows","10.0","https://app.prolific.com/","pl-PL,pl;q=0.9","5c39ed7a688b59000102a145","6877631c9844ddd5501205fc","688a4308ddd6133e5b5a958f","3","1","5c39ed7a688b59000102a145","3","1","2025-07-30T16:14:21.737Z","","","","","","","","","","","ControlQ","","50","","","","","","","","","","","","","","","","","","","","","","","","","","","","",""
"2182","","<div style=""width:500px;"">
  <p>How would you describe your current emotional state?</p>
  </div>","100","html-slider-response","32","409353","0.0-5.0-3.4","294","1","2025-07-30 16:06:47","1f75c3e559b7213887762d5229550c2b","37.47.116.83","Mozilla/5.0 (Windows NT 10.0; Win64; x64) AppleWebKit/537.36 (KHTML, like Gecko) Chrome/138.0.0.0 Safari/537.36","WebKit","Chrome","138.0.0.0","Windows","10.0","https://app.prolific.com/","pl-PL,pl;q=0.9","5c39ed7a688b59000102a145","6877631c9844ddd5501205fc","688a4308ddd6133e5b5a958f","3","1","5c39ed7a688b59000102a145","3","1","2025-07-30T16:14:23.922Z","","","","","","","","","","","StressQ","","50","","","","","","","","","","","","","","","","","","","","","","","","","","","","",""
"2157","","<div style=""width:500px;"">
  <p>What best describes how you currently feel?</p>
  </div>","100","html-slider-response","33","411513","0.0-5.0-4.4","294","1","2025-07-30 16:06:47","1f75c3e559b7213887762d5229550c2b","37.47.116.83","Mozilla/5.0 (Windows NT 10.0; Win64; x64) AppleWebKit/537.36 (KHTML, like Gecko) Chrome/138.0.0.0 Safari/537.36","WebKit","Chrome","138.0.0.0","Windows","10.0","https://app.prolific.com/","pl-PL,pl;q=0.9","5c39ed7a688b59000102a145","6877631c9844ddd5501205fc","688a4308ddd6133e5b5a958f","3","1","5c39ed7a688b59000102a145","3","1","2025-07-30T16:14:26.081Z","","","","","","","","","","","MotivationQ","","50","","","","","","","","","","","","","","","","","","","","","","","","","","","","",""
"","","","","ctl-task-cpt","34","464428","0.0-5.0-0.5","294","1","2025-07-30 16:06:47","1f75c3e559b7213887762d5229550c2b","37.47.116.83","Mozilla/5.0 (Windows NT 10.0; Win64; x64) AppleWebKit/537.36 (KHTML, like Gecko) Chrome/138.0.0.0 Safari/537.36","WebKit","Chrome","138.0.0.0","Windows","10.0","https://app.prolific.com/","pl-PL,pl;q=0.9","5c39ed7a688b59000102a145","6877631c9844ddd5501205fc","688a4308ddd6133e5b5a958f","3","1","5c39ed7a688b59000102a145","3","1","2025-07-30T16:15:18.996Z","","","","","","","","","","","","","","win-only","0","g1:NW,g2:SE","0.5","6","0","413744.3","912.3","5915.4","49886.8","1","4","8","6","2","-8","-11","0","2","0","1151.7","3000","-2630","[""down"",""right""]","{""num_key_presses"":11,""num_perfect"":4,""num_errors"":3,""num_randdir"":4,""num_randdir_good_moves"":2,""num_whilered"":0,""num_whileblue"":3,""num_blue"":6,""num_good_moves"":7}","[299.22232142857143,297.12857142857143,0.2,299.22232142857143,297.12857142857143,104.3,299.22232142857143,297.12857142857143,214.1,299.22232142857143,297.12857142857143,323.2,297.22232142857143,298.12857142857143,425.3,293.22232142857143,436.12857142857143,528.4,431.22232142857143,499.12857142857143,628.9,437.22232142857143,499.12857142857143,729.1,450.22232142857143,515.1285714285714,833.6,500.22232142857143,551.1285714285714,933.8,530.2223214285714,540.1285714285714,1040.4,531.2223214285714,538.1285714285714,1143.4,531.2223214285714,537.1285714285714,1244.9,530.2223214285714,536.1285714285714,1345.1,530.2223214285714,535.1285714285714,1445.4,530.2223214285714,535.1285714285714,1545.6,530.2223214285714,535.1285714285714,1652,530.2223214285714,535.1285714285714,1760,530.2223214285714,535.1285714285714,1863.8,530.2223214285714,535.1285714285714,1963.9,530.2223214285714,535.1285714285714,2067.3,530.2223214285714,535.1285714285714,2168.9,530.2223214285714,535.1285714285714,2269,530.2223214285714,535.1285714285714,2374.6,530.2223214285714,535.1285714285714,2480,530.2223214285714,535.1285714285714,2588.8,530.2223214285714,535.1285714285714,2690.2,530.2223214285714,535.1285714285714,2793.9,530.2223214285714,535.1285714285714,2894.3,530.2223214285714,535.1285714285714,2994.9,530.2223214285714,535.1285714285714,3098.5,530.2223214285714,535.1285714285714,3199.5,530.2223214285714,535.1285714285714,3307.9,530.2223214285714,535.1285714285714,3409.6,530.2223214285714,535.1285714285714,3513.8,530.2223214285714,535.1285714285714,3614.7,530.2223214285714,535.1285714285714,3716.4,530.2223214285714,535.1285714285714,3821.6,530.2223214285714,535.1285714285714,3924.3,530.2223214285714,535.1285714285714,4029.9,530.2223214285714,535.1285714285714,4133.5,530.2223214285714,535.1285714285714,4237.5,530.2223214285714,535.1285714285714,4338.3,530.2223214285714,535.1285714285714,4439.9,530.2223214285714,535.1285714285714,4544.9,530.2223214285714,535.1285714285714,4645,530.2223214285714,535.1285714285714,4750.5,530.2223214285714,535.1285714285714,4854.3,530.2223214285714,535.1285714285714,4960]","[8787.2,8787.2,2687,5757.1,343.2,""smooth"",""down"",""down"",""good_move"",11733.1,2945.3,2525.1,8787.8,420.2,""smooth"",""right"",""right"",""good_move"",14580.1,2846.4,2477.7,11733.7,368.7,""while_blue"",""right"",""right"",""good_move"",17155.8,2575,2136.6,14580.8,438.4,""oops"",""down"",""up"",""bad_move"",20034.5,2877.5,2487.9,17157.1,389.6,""oops"",""down"",""right"",""good_move"",23055.9,3019.9,2619.5,20036,400.4,""oops"",""down"",""down"",""good_move"",26387.5,3331.1,2999.1,23056.4,332,""while_blue"",""down"",""up"",""bad_move"",29462.3,3074.4,2676.5,26387.9,397.9,""smooth"",""down"",""down"",""good_move"",36224.8,6762,3042,32744.9,437.9,""oops"",""down"",""left"",""bad_move"",39017.4,2792.1,2378.3,36225.3,413.8,""smooth"",""down"",""down"",""good_move"",41447.9,2430.1,2124.2,39017.8,305.9,""while_blue"",""down"",""left"",""bad_move""]","",""
"5011","","<div style=""width:500px;"">
  <p>What determined the result of this run?</p>
  </div>","80","html-slider-response","35","469441","0.0-5.0-1.5","294","1","2025-07-30 16:06:47","1f75c3e559b7213887762d5229550c2b","37.47.116.83","Mozilla/5.0 (Windows NT 10.0; Win64; x64) AppleWebKit/537.36 (KHTML, like Gecko) Chrome/138.0.0.0 Safari/537.36","WebKit","Chrome","138.0.0.0","Windows","10.0","https://app.prolific.com/","pl-PL,pl;q=0.9","5c39ed7a688b59000102a145","6877631c9844ddd5501205fc","688a4308ddd6133e5b5a958f","3","1","5c39ed7a688b59000102a145","3","1","2025-07-30T16:15:24.009Z","","","","","","","","","","","AttribQ","","50","","","","","","","","","","","","","","","","","","","","","","","","","","","","",""
"2821","","<div style=""width:500px;"">
  <p>How much control did you have over the ball?</p>
  </div>","77","html-slider-response","36","472265","0.0-5.0-2.5","294","1","2025-07-30 16:06:47","1f75c3e559b7213887762d5229550c2b","37.47.116.83","Mozilla/5.0 (Windows NT 10.0; Win64; x64) AppleWebKit/537.36 (KHTML, like Gecko) Chrome/138.0.0.0 Safari/537.36","WebKit","Chrome","138.0.0.0","Windows","10.0","https://app.prolific.com/","pl-PL,pl;q=0.9","5c39ed7a688b59000102a145","6877631c9844ddd5501205fc","688a4308ddd6133e5b5a958f","3","1","5c39ed7a688b59000102a145","3","1","2025-07-30T16:15:26.833Z","","","","","","","","","","","ControlQ","","50","","","","","","","","","","","","","","","","","","","","","","","","","","","","",""
"2560","","<div style=""width:500px;"">
  <p>How would you describe your current emotional state?</p>
  </div>","99","html-slider-response","37","474827","0.0-5.0-3.5","294","1","2025-07-30 16:06:47","1f75c3e559b7213887762d5229550c2b","37.47.116.83","Mozilla/5.0 (Windows NT 10.0; Win64; x64) AppleWebKit/537.36 (KHTML, like Gecko) Chrome/138.0.0.0 Safari/537.36","WebKit","Chrome","138.0.0.0","Windows","10.0","https://app.prolific.com/","pl-PL,pl;q=0.9","5c39ed7a688b59000102a145","6877631c9844ddd5501205fc","688a4308ddd6133e5b5a958f","3","1","5c39ed7a688b59000102a145","3","1","2025-07-30T16:15:29.395Z","","","","","","","","","","","StressQ","","50","","","","","","","","","","","","","","","","","","","","","","","","","","","","",""
"2721","","<div style=""width:500px;"">
  <p>What best describes how you currently feel?</p>
  </div>","99","html-slider-response","38","477551","0.0-5.0-4.5","294","1","2025-07-30 16:06:47","1f75c3e559b7213887762d5229550c2b","37.47.116.83","Mozilla/5.0 (Windows NT 10.0; Win64; x64) AppleWebKit/537.36 (KHTML, like Gecko) Chrome/138.0.0.0 Safari/537.36","WebKit","Chrome","138.0.0.0","Windows","10.0","https://app.prolific.com/","pl-PL,pl;q=0.9","5c39ed7a688b59000102a145","6877631c9844ddd5501205fc","688a4308ddd6133e5b5a958f","3","1","5c39ed7a688b59000102a145","3","1","2025-07-30T16:15:32.119Z","","","","","","","","","","","MotivationQ","","50","","","","","","","","","","","","","","","","","","","","","","","","","","","","",""
"","","","","ctl-task-cpt","39","523468","0.0-5.0-0.6","294","1","2025-07-30 16:06:47","1f75c3e559b7213887762d5229550c2b","37.47.116.83","Mozilla/5.0 (Windows NT 10.0; Win64; x64) AppleWebKit/537.36 (KHTML, like Gecko) Chrome/138.0.0.0 Safari/537.36","WebKit","Chrome","138.0.0.0","Windows","10.0","https://app.prolific.com/","pl-PL,pl;q=0.9","5c39ed7a688b59000102a145","6877631c9844ddd5501205fc","688a4308ddd6133e5b5a958f","3","1","5c39ed7a688b59000102a145","3","1","2025-07-30T16:16:18.037Z","","","","","","","","","","","","","","win-only","1","g1:NE,g2:SW","0.4","7","0","479782.4","1371.1","6375.8","42892","1","4","4","6","2","-4","-5","0","0","0","1316.1","3000","-2540","[""down"",""left""]","{""num_key_presses"":10,""num_perfect"":4,""num_errors"":1,""num_randdir"":5,""num_randdir_good_moves"":2,""num_whilered"":0,""num_whileblue"":1,""num_blue"":3,""num_good_moves"":6}","[296.22232142857143,293.12857142857143,0.5,297.22232142857143,293.12857142857143,100,297.22232142857143,293.12857142857143,201,297.22232142857143,291.12857142857143,308.1,440.22232142857143,199.12857142857143,411.3,584.2223214285714,100.12857142857143,515.9,546.2223214285714,101.12857142857143,617.7,172.22232142857143,439.12857142857143,721.5,106.22232142857143,537.1285714285714,830.5,107.22232142857143,533.1285714285714,932.6,107.22232142857143,533.1285714285714,1032.7,63.222321428571426,518.1285714285714,1134.6,38.222321428571426,517.1285714285714,1235.5,38.222321428571426,517.1285714285714,1339.8,38.222321428571426,518.1285714285714,1441.9,38.222321428571426,518.1285714285714,1554.7,59.222321428571426,520.1285714285714,1661.4,105.22232142857143,521.1285714285714,1761.9,113.22232142857143,529.1285714285714,1865.8,133.22232142857143,534.1285714285714,1975.3,90.22232142857143,533.1285714285714,2075.3,-22.777678571428574,573.1285714285714,2177.8,-23.777678571428574,570.1285714285714,2277.9,2.2223214285714263,551.1285714285714,2380.2,8.222321428571426,546.1285714285714,2481.9,10.222321428571426,546.1285714285714,2584.6,11.222321428571426,546.1285714285714,2689.1,11.222321428571426,546.1285714285714,2791.8,11.222321428571426,546.1285714285714,2893.5,11.222321428571426,546.1285714285714,2996.5,11.222321428571426,546.1285714285714,3099.9,11.222321428571426,546.1285714285714,3200.4,13.222321428571426,546.1285714285714,3300.4,31.222321428571426,549.1285714285714,3400.9,31.222321428571426,550.1285714285714,3504.6,11.222321428571426,550.1285714285714,3616.8,13.222321428571426,552.1285714285714,3723.2,25.222321428571426,552.1285714285714,3823.4,28.222321428571426,553.1285714285714,3923.6,30.222321428571426,553.1285714285714,4024.4,30.222321428571426,553.1285714285714,4125.1,30.222321428571426,553.1285714285714,4225.4,30.222321428571426,553.1285714285714,4331.4,345.22232142857143,594.1285714285714,4439.2,978.2223214285714,683.1285714285714,4540.3,978.2223214285714,683.1285714285714,4641.4,978.2223214285714,683.1285714285714,4742.7,978.2223214285714,683.1285714285714,4846.7,978.2223214285714,683.1285714285714,4957.4]","[1350,1350,1000,0,350,""oops"",""down"",""up"",""bad_move"",4100.4,2749.9,2397.2,1350.5,352.7,""while_blue"",""down"",""up"",""bad_move"",11005.7,6904.3,2817.4,7750.4,437.9,""oops"",""down"",""right"",""bad_move"",13622.4,2614.9,2198.7,11007.6,416.1,""oops"",""down"",""right"",""bad_move"",16035.6,2412.5,1958.3,13623.1,454.2,""smooth"",""down"",""down"",""good_move"",18449.5,2413.3,2005.6,16036.2,407.7,""smooth"",""down"",""down"",""good_move"",21993,3542,3152.2,18451,389.8,""smooth"",""down"",""down"",""good_move"",24893.3,2899.9,2555.4,21993.4,344.5,""smooth"",""left"",""left"",""good_move"",27183.7,2289.6,1941,24894.1,348.6,""oops"",""left"",""down"",""good_move"",34071.5,6887.5,2811.9,30716.4,543.3,""oops"",""left"",""left"",""good_move""]","",""
"5982","","<div style=""width:500px;"">
  <p>What determined the result of this run?</p>
  </div>","78","html-slider-response","40","529453","0.0-5.0-1.6","294","1","2025-07-30 16:06:47","1f75c3e559b7213887762d5229550c2b","37.47.116.83","Mozilla/5.0 (Windows NT 10.0; Win64; x64) AppleWebKit/537.36 (KHTML, like Gecko) Chrome/138.0.0.0 Safari/537.36","WebKit","Chrome","138.0.0.0","Windows","10.0","https://app.prolific.com/","pl-PL,pl;q=0.9","5c39ed7a688b59000102a145","6877631c9844ddd5501205fc","688a4308ddd6133e5b5a958f","3","1","5c39ed7a688b59000102a145","3","1","2025-07-30T16:16:24.021Z","","","","","","","","","","","AttribQ","","50","","","","","","","","","","","","","","","","","","","","","","","","","","","","",""
"2514","","<div style=""width:500px;"">
  <p>How much control did you have over the ball?</p>
  </div>","78","html-slider-response","41","531971","0.0-5.0-2.6","294","1","2025-07-30 16:06:47","1f75c3e559b7213887762d5229550c2b","37.47.116.83","Mozilla/5.0 (Windows NT 10.0; Win64; x64) AppleWebKit/537.36 (KHTML, like Gecko) Chrome/138.0.0.0 Safari/537.36","WebKit","Chrome","138.0.0.0","Windows","10.0","https://app.prolific.com/","pl-PL,pl;q=0.9","5c39ed7a688b59000102a145","6877631c9844ddd5501205fc","688a4308ddd6133e5b5a958f","3","1","5c39ed7a688b59000102a145","3","1","2025-07-30T16:16:26.540Z","","","","","","","","","","","ControlQ","","50","","","","","","","","","","","","","","","","","","","","","","","","","","","","",""
"3396","","<div style=""width:500px;"">
  <p>How would you describe your current emotional state?</p>
  </div>","100","html-slider-response","42","535372","0.0-5.0-3.6","294","1","2025-07-30 16:06:47","1f75c3e559b7213887762d5229550c2b","37.47.116.83","Mozilla/5.0 (Windows NT 10.0; Win64; x64) AppleWebKit/537.36 (KHTML, like Gecko) Chrome/138.0.0.0 Safari/537.36","WebKit","Chrome","138.0.0.0","Windows","10.0","https://app.prolific.com/","pl-PL,pl;q=0.9","5c39ed7a688b59000102a145","6877631c9844ddd5501205fc","688a4308ddd6133e5b5a958f","3","1","5c39ed7a688b59000102a145","3","1","2025-07-30T16:16:29.941Z","","","","","","","","","","","StressQ","","50","","","","","","","","","","","","","","","","","","","","","","","","","","","","",""
"2345","","<div style=""width:500px;"">
  <p>What best describes how you currently feel?</p>
  </div>","99","html-slider-response","43","537720","0.0-5.0-4.6","294","1","2025-07-30 16:06:47","1f75c3e559b7213887762d5229550c2b","37.47.116.83","Mozilla/5.0 (Windows NT 10.0; Win64; x64) AppleWebKit/537.36 (KHTML, like Gecko) Chrome/138.0.0.0 Safari/537.36","WebKit","Chrome","138.0.0.0","Windows","10.0","https://app.prolific.com/","pl-PL,pl;q=0.9","5c39ed7a688b59000102a145","6877631c9844ddd5501205fc","688a4308ddd6133e5b5a958f","3","1","5c39ed7a688b59000102a145","3","1","2025-07-30T16:16:32.289Z","","","","","","","","","","","MotivationQ","","50","","","","","","","","","","","","","","","","","","","","","","","","","","","","",""
"","","","","ctl-task-cpt","44","593497","0.0-5.0-0.7","294","1","2025-07-30 16:06:47","1f75c3e559b7213887762d5229550c2b","37.47.116.83","Mozilla/5.0 (Windows NT 10.0; Win64; x64) AppleWebKit/537.36 (KHTML, like Gecko) Chrome/138.0.0.0 Safari/537.36","WebKit","Chrome","138.0.0.0","Windows","10.0","https://app.prolific.com/","pl-PL,pl;q=0.9","5c39ed7a688b59000102a145","6877631c9844ddd5501205fc","688a4308ddd6133e5b5a958f","3","1","5c39ed7a688b59000102a145","3","1","2025-07-30T16:17:28.065Z","","","","","","","","","","","","","","win-only","2","g1:SE,g2:NW","0.3","8","0","539953.1","1480.5","6490.7","52746.8","1","4","8","6","2","-8","-11","0","0","0","1089.6","3000","-2355","[""left"",""up""]","{""num_key_presses"":12,""num_perfect"":2,""num_errors"":3,""num_randdir"":7,""num_randdir_good_moves"":3,""num_whilered"":0,""num_whileblue"":2,""num_blue"":5,""num_good_moves"":6}","[305.22232142857143,297.12857142857143,0.3,305.22232142857143,297.12857142857143,103,304.22232142857143,297.12857142857143,206.9,304.22232142857143,297.12857142857143,315.3,298.22232142857143,301.12857142857143,418.1,211.22232142857143,324.12857142857143,524.3,95.22232142857143,203.12857142857143,625.4,19.222321428571426,69.12857142857143,737.1,21.222321428571426,68.12857142857143,837.9,36.222321428571426,62.128571428571426,940.5,45.222321428571426,56.128571428571426,1040.8,45.222321428571426,56.128571428571426,1142.1,45.222321428571426,56.128571428571426,1242.9,45.222321428571426,56.128571428571426,1356.6,46.222321428571426,59.128571428571426,1462.3,46.222321428571426,59.128571428571426,1563,46.222321428571426,59.128571428571426,1666.9,46.222321428571426,59.128571428571426,1770,46.222321428571426,59.128571428571426,1870.2,46.222321428571426,59.128571428571426,1970.6,46.222321428571426,59.128571428571426,2074.3,46.222321428571426,59.128571428571426,2177,46.222321428571426,59.128571428571426,2282.1,46.222321428571426,59.128571428571426,2382.1,46.222321428571426,59.128571428571426,2485.1,46.222321428571426,59.128571428571426,2585.2,46.222321428571426,59.128571428571426,2687,46.222321428571426,59.128571428571426,2793,46.222321428571426,59.128571428571426,2896.9,46.222321428571426,59.128571428571426,3002.9,46.222321428571426,59.128571428571426,3110.1,46.222321428571426,59.128571428571426,3218,46.222321428571426,59.128571428571426,3320.6,46.222321428571426,59.128571428571426,3420.7,46.222321428571426,59.128571428571426,3521.3,46.222321428571426,59.128571428571426,3627.7,46.222321428571426,59.128571428571426,3729.8,46.222321428571426,59.128571428571426,3831.4,46.222321428571426,59.128571428571426,3932.8,46.222321428571426,59.128571428571426,4035.1,46.222321428571426,59.128571428571426,4135.8,46.222321428571426,59.128571428571426,4241.5,46.222321428571426,59.128571428571426,4347.3,46.222321428571426,59.128571428571426,4449.9,46.222321428571426,59.128571428571426,4551.4,46.222321428571426,59.128571428571426,4655.5,46.222321428571426,59.128571428571426,4765.7,46.222321428571426,59.128571428571426,4870.8,46.222321428571426,59.128571428571426,4971]","[1377.1,1377.1,1000,0,377.1,""oops"",""left"",""up"",""good_move"",7830.3,6452.4,3188.4,4325.4,316.6,""while_blue"",""left"",""left"",""good_move"",14500.6,6668.5,2109.4,11799.8,591.4,""oops"",""left"",""right"",""bad_move"",17629.7,3126.4,2722,14503.3,404.4,""oops"",""left"",""right"",""bad_move"",20187.3,2556,2188.7,17631.5,367.1,""oops"",""up"",""right"",""bad_move"",22417.8,2230,1868.9,20187.8,361.1,""smooth"",""up"",""up"",""good_move"",25415.8,2996.3,2664.6,22419.5,331.7,""oops"",""left"",""down"",""bad_move"",26828.6,1412.3,1949.5,25416.3,-537.2,""error"",""-"",""-"",""no_move"",31142.1,4312.7,2891.4,27833.6,417.1,""oops"",""up"",""up"",""good_move"",33846.4,2703.9,2265.1,31142.5,438.8,""while_blue"",""up"",""down"",""bad_move"",36931.3,3084.4,2621.8,33846.9,462.6,""oops"",""up"",""up"",""good_move"",39992.2,3059.7,2452.4,36932.5,607.4,""smooth"",""up"",""up"",""good_move""]","",""
"6127","","<div style=""width:500px;"">
  <p>What determined the result of this run?</p>
  </div>","67","html-slider-response","45","599627","0.0-5.0-1.7","294","1","2025-07-30 16:06:47","1f75c3e559b7213887762d5229550c2b","37.47.116.83","Mozilla/5.0 (Windows NT 10.0; Win64; x64) AppleWebKit/537.36 (KHTML, like Gecko) Chrome/138.0.0.0 Safari/537.36","WebKit","Chrome","138.0.0.0","Windows","10.0","https://app.prolific.com/","pl-PL,pl;q=0.9","5c39ed7a688b59000102a145","6877631c9844ddd5501205fc","688a4308ddd6133e5b5a958f","3","1","5c39ed7a688b59000102a145","3","1","2025-07-30T16:17:34.195Z","","","","","","","","","","","AttribQ","","50","","","","","","","","","","","","","","","","","","","","","","","","","","","","",""
"3228","","<div style=""width:500px;"">
  <p>How much control did you have over the ball?</p>
  </div>","71","html-slider-response","46","602857","0.0-5.0-2.7","294","1","2025-07-30 16:06:47","1f75c3e559b7213887762d5229550c2b","37.47.116.83","Mozilla/5.0 (Windows NT 10.0; Win64; x64) AppleWebKit/537.36 (KHTML, like Gecko) Chrome/138.0.0.0 Safari/537.36","WebKit","Chrome","138.0.0.0","Windows","10.0","https://app.prolific.com/","pl-PL,pl;q=0.9","5c39ed7a688b59000102a145","6877631c9844ddd5501205fc","688a4308ddd6133e5b5a958f","3","1","5c39ed7a688b59000102a145","3","1","2025-07-30T16:17:37.425Z","","","","","","","","","","","ControlQ","","50","","","","","","","","","","","","","","","","","","","","","","","","","","","","",""
"3881","","<div style=""width:500px;"">
  <p>How would you describe your current emotional state?</p>
  </div>","99","html-slider-response","47","606741","0.0-5.0-3.7","294","1","2025-07-30 16:06:47","1f75c3e559b7213887762d5229550c2b","37.47.116.83","Mozilla/5.0 (Windows NT 10.0; Win64; x64) AppleWebKit/537.36 (KHTML, like Gecko) Chrome/138.0.0.0 Safari/537.36","WebKit","Chrome","138.0.0.0","Windows","10.0","https://app.prolific.com/","pl-PL,pl;q=0.9","5c39ed7a688b59000102a145","6877631c9844ddd5501205fc","688a4308ddd6133e5b5a958f","3","1","5c39ed7a688b59000102a145","3","1","2025-07-30T16:17:41.309Z","","","","","","","","","","","StressQ","","50","","","","","","","","","","","","","","","","","","","","","","","","","","","","",""
"2426","","<div style=""width:500px;"">
  <p>What best describes how you currently feel?</p>
  </div>","99","html-slider-response","48","609170","0.0-5.0-4.7","294","1","2025-07-30 16:06:47","1f75c3e559b7213887762d5229550c2b","37.47.116.83","Mozilla/5.0 (Windows NT 10.0; Win64; x64) AppleWebKit/537.36 (KHTML, like Gecko) Chrome/138.0.0.0 Safari/537.36","WebKit","Chrome","138.0.0.0","Windows","10.0","https://app.prolific.com/","pl-PL,pl;q=0.9","5c39ed7a688b59000102a145","6877631c9844ddd5501205fc","688a4308ddd6133e5b5a958f","3","1","5c39ed7a688b59000102a145","3","1","2025-07-30T16:17:43.738Z","","","","","","","","","","","MotivationQ","","50","","","","","","","","","","","","","","","","","","","","","","","","","","","","",""
"","","","","ctl-task-cpt","49","656019","0.0-5.0-0.8","294","1","2025-07-30 16:06:47","1f75c3e559b7213887762d5229550c2b","37.47.116.83","Mozilla/5.0 (Windows NT 10.0; Win64; x64) AppleWebKit/537.36 (KHTML, like Gecko) Chrome/138.0.0.0 Safari/537.36","WebKit","Chrome","138.0.0.0","Windows","10.0","https://app.prolific.com/","pl-PL,pl;q=0.9","5c39ed7a688b59000102a145","6877631c9844ddd5501205fc","688a4308ddd6133e5b5a958f","3","1","5c39ed7a688b59000102a145","3","1","2025-07-30T16:18:30.587Z","","","","","","","","","","","","","","win-only","0","g1:NW,g2:SE","0.2","9","0","611402.1","1537.8","6544.8","43828.7","1","4","4","6","2","-4","-5","0","0","0","1235.9","3000","-2215","[""down"",""right""]","{""num_key_presses"":11,""num_perfect"":2,""num_errors"":1,""num_randdir"":8,""num_randdir_good_moves"":5,""num_whilered"":0,""num_whileblue"":1,""num_blue"":2,""num_good_moves"":7}","[294.22232142857143,291.12857142857143,1,295.22232142857143,291.12857142857143,105.2,295.22232142857143,291.12857142857143,212.8,295.22232142857143,291.12857142857143,313.5,283.22232142857143,274.12857142857143,413.9,237.22232142857143,219.12857142857143,514.3,354.22232142857143,314.12857142857143,614.7,542.2223214285714,493.12857142857143,720.6,563.2223214285714,507.12857142857143,826.3,586.2223214285714,515.1285714285714,928.3,572.2223214285714,522.1285714285714,1028.6,550.2223214285714,538.1285714285714,1130.3,539.2223214285714,545.1285714285714,1258.2,539.2223214285714,545.1285714285714,1362.4,539.2223214285714,545.1285714285714,1465.9,539.2223214285714,545.1285714285714,1577,539.2223214285714,544.1285714285714,1678.1,539.2223214285714,544.1285714285714,1778.6,539.2223214285714,544.1285714285714,1893.2,539.2223214285714,544.1285714285714,1993.7,539.2223214285714,544.1285714285714,2099.6,539.2223214285714,544.1285714285714,2203.2,539.2223214285714,544.1285714285714,2309.5,540.2223214285714,544.1285714285714,2419.7,540.2223214285714,544.1285714285714,2521,540.2223214285714,544.1285714285714,2621,540.2223214285714,544.1285714285714,2724.6,540.2223214285714,544.1285714285714,2827.9,540.2223214285714,544.1285714285714,2939.4,540.2223214285714,544.1285714285714,3040.2,540.2223214285714,544.1285714285714,3143,540.2223214285714,544.1285714285714,3245.6,540.2223214285714,544.1285714285714,3353.2,540.2223214285714,544.1285714285714,3454.2,540.2223214285714,544.1285714285714,3555.2,540.2223214285714,544.1285714285714,3657,540.2223214285714,544.1285714285714,3759.7,540.2223214285714,544.1285714285714,3874.4,540.2223214285714,544.1285714285714,3975.1,540.2223214285714,544.1285714285714,4075.4,540.2223214285714,544.1285714285714,4178.4,540.2223214285714,544.1285714285714,4279,540.2223214285714,544.1285714285714,4381.2,540.2223214285714,544.1285714285714,4484.6,540.2223214285714,544.1285714285714,4587.4,540.2223214285714,544.1285714285714,4690.8,540.2223214285714,544.1285714285714,4795.2,540.2223214285714,544.1285714285714,4906.2]","[1374.3,1374.3,1000,0,374.3,""oops"",""down"",""up"",""bad_move"",4426.4,3051.6,2637.2,1374.8,414.4,""oops"",""down"",""down"",""good_move"",11764.6,7336.7,2959,8350.3,455.3,""oops"",""down"",""down"",""good_move"",14922.7,3157.3,2737.1,11765.4,420.2,""oops"",""right"",""down"",""good_move"",17932.6,3008.7,2594.5,14924,414.2,""oops"",""right"",""down"",""good_move"",20459.4,2526,2175.7,17933.4,350.3,""oops"",""right"",""left"",""bad_move"",22979.7,2518.8,2181.9,20461,336.8,""smooth"",""left"",""left"",""bad_move"",25976.7,2996.3,2650.3,22980.4,346,""oops"",""right"",""up"",""bad_move"",28562.7,2584.8,2181.5,25977.9,403.3,""while_blue"",""right"",""right"",""good_move"",31217.8,2654.4,2210.5,28563.4,443.9,""smooth"",""right"",""right"",""good_move"",34783.6,3564.7,3247.1,31218.9,317.6,""oops"",""right"",""down"",""good_move""]","",""
"2277","","<div style=""width:500px;"">
  <p>What determined the result of this run?</p>
  </div>","70","html-slider-response","50","658297","0.0-5.0-1.8","294","1","2025-07-30 16:06:47","1f75c3e559b7213887762d5229550c2b","37.47.116.83","Mozilla/5.0 (Windows NT 10.0; Win64; x64) AppleWebKit/537.36 (KHTML, like Gecko) Chrome/138.0.0.0 Safari/537.36","WebKit","Chrome","138.0.0.0","Windows","10.0","https://app.prolific.com/","pl-PL,pl;q=0.9","5c39ed7a688b59000102a145","6877631c9844ddd5501205fc","688a4308ddd6133e5b5a958f","3","1","5c39ed7a688b59000102a145","3","1","2025-07-30T16:18:32.866Z","","","","","","","","","","","AttribQ","","50","","","","","","","","","","","","","","","","","","","","","","","","","","","","",""
"2698","","<div style=""width:500px;"">
  <p>How much control did you have over the ball?</p>
  </div>","73","html-slider-response","51","660998","0.0-5.0-2.8","294","1","2025-07-30 16:06:47","1f75c3e559b7213887762d5229550c2b","37.47.116.83","Mozilla/5.0 (Windows NT 10.0; Win64; x64) AppleWebKit/537.36 (KHTML, like Gecko) Chrome/138.0.0.0 Safari/537.36","WebKit","Chrome","138.0.0.0","Windows","10.0","https://app.prolific.com/","pl-PL,pl;q=0.9","5c39ed7a688b59000102a145","6877631c9844ddd5501205fc","688a4308ddd6133e5b5a958f","3","1","5c39ed7a688b59000102a145","3","1","2025-07-30T16:18:35.567Z","","","","","","","","","","","ControlQ","","50","","","","","","","","","","","","","","","","","","","","","","","","","","","","",""
"2620","","<div style=""width:500px;"">
  <p>How would you describe your current emotional state?</p>
  </div>","99","html-slider-response","52","663622","0.0-5.0-3.8","294","1","2025-07-30 16:06:47","1f75c3e559b7213887762d5229550c2b","37.47.116.83","Mozilla/5.0 (Windows NT 10.0; Win64; x64) AppleWebKit/537.36 (KHTML, like Gecko) Chrome/138.0.0.0 Safari/537.36","WebKit","Chrome","138.0.0.0","Windows","10.0","https://app.prolific.com/","pl-PL,pl;q=0.9","5c39ed7a688b59000102a145","6877631c9844ddd5501205fc","688a4308ddd6133e5b5a958f","3","1","5c39ed7a688b59000102a145","3","1","2025-07-30T16:18:38.191Z","","","","","","","","","","","StressQ","","50","","","","","","","","","","","","","","","","","","","","","","","","","","","","",""
"2802","","<div style=""width:500px;"">
  <p>What best describes how you currently feel?</p>
  </div>","99","html-slider-response","53","666427","0.0-5.0-4.8","294","1","2025-07-30 16:06:47","1f75c3e559b7213887762d5229550c2b","37.47.116.83","Mozilla/5.0 (Windows NT 10.0; Win64; x64) AppleWebKit/537.36 (KHTML, like Gecko) Chrome/138.0.0.0 Safari/537.36","WebKit","Chrome","138.0.0.0","Windows","10.0","https://app.prolific.com/","pl-PL,pl;q=0.9","5c39ed7a688b59000102a145","6877631c9844ddd5501205fc","688a4308ddd6133e5b5a958f","3","1","5c39ed7a688b59000102a145","3","1","2025-07-30T16:18:40.996Z","","","","","","","","","","","MotivationQ","","50","","","","","","","","","","","","","","","","","","","","","","","","","","","","",""
"","","","","ctl-task-cpt","54","716790","0.0-5.0-0.9","294","1","2025-07-30 16:06:47","1f75c3e559b7213887762d5229550c2b","37.47.116.83","Mozilla/5.0 (Windows NT 10.0; Win64; x64) AppleWebKit/537.36 (KHTML, like Gecko) Chrome/138.0.0.0 Safari/537.36","WebKit","Chrome","138.0.0.0","Windows","10.0","https://app.prolific.com/","pl-PL,pl;q=0.9","5c39ed7a688b59000102a145","6877631c9844ddd5501205fc","688a4308ddd6133e5b5a958f","3","1","5c39ed7a688b59000102a145","3","1","2025-07-30T16:19:31.358Z","","","","","","","","","","","","","","win-only","1","g1:NE,g2:SW","0.4","10","0","668659.2","1441","6446.1","47333.4","1","4","8","6","2","-8","-11","0","0","0","1425.3","3000","-2280","[""down"",""left""]","{""num_key_presses"":13,""num_perfect"":4,""num_errors"":3,""num_randdir"":6,""num_randdir_good_moves"":3,""num_whilered"":0,""num_whileblue"":3,""num_blue"":4,""num_good_moves"":8}","[303.22232142857143,298.12857142857143,1.8,303.22232142857143,298.12857142857143,105.2,303.22232142857143,298.12857142857143,205.4,303.22232142857143,298.12857142857143,307.1,303.22232142857143,298.12857142857143,408.2,303.22232142857143,298.12857142857143,510.6,303.22232142857143,298.12857142857143,611.8,235.22232142857143,372.12857142857143,712.7,123.22232142857143,459.12857142857143,816.7,70.22232142857143,464.12857142857143,920.8,38.222321428571426,471.12857142857143,1024.9,45.222321428571426,485.12857142857143,1125.3,48.222321428571426,517.1285714285714,1240,48.222321428571426,518.1285714285714,1340,48.222321428571426,521.1285714285714,1441,48.222321428571426,522.1285714285714,1541.4,48.222321428571426,521.1285714285714,1641.8,48.222321428571426,520.1285714285714,1746.4,48.222321428571426,520.1285714285714,1847.6,48.222321428571426,520.1285714285714,1951,48.222321428571426,520.1285714285714,2053,48.222321428571426,520.1285714285714,2153,48.222321428571426,520.1285714285714,2255,48.222321428571426,520.1285714285714,2356.7,48.222321428571426,520.1285714285714,2472.3,48.222321428571426,520.1285714285714,2577.3,48.222321428571426,520.1285714285714,2679,48.222321428571426,520.1285714285714,2781.2,48.222321428571426,520.1285714285714,2884.7,48.222321428571426,520.1285714285714,2985.9,48.222321428571426,520.1285714285714,3089.9,48.222321428571426,520.1285714285714,3190.1,48.222321428571426,520.1285714285714,3306.1,48.222321428571426,520.1285714285714,3420.8,48.222321428571426,520.1285714285714,3521.1,48.222321428571426,520.1285714285714,3624.6,48.222321428571426,520.1285714285714,3725.8,48.222321428571426,520.1285714285714,3835.2,48.222321428571426,520.1285714285714,3935.8,48.222321428571426,520.1285714285714,4037.8,48.222321428571426,520.1285714285714,4144.6,48.222321428571426,520.1285714285714,4255.2,48.222321428571426,520.1285714285714,4355.2,48.222321428571426,520.1285714285714,4456,48.222321428571426,520.1285714285714,4570.9,48.222321428571426,520.1285714285714,4685.1,48.222321428571426,520.1285714285714,4785.2,48.222321428571426,520.1285714285714,4899.5]","[1455.4,1455.4,1000,0,455.4,""oops"",""down"",""right"",""bad_move"",4946.7,3489.9,3079.3,1456.8,410.6,""while_blue"",""down"",""left"",""good_move"",7321.4,2370,1807.2,4951.4,562.8,""smooth"",""down"",""down"",""good_move"",9635.5,2312.7,1910.7,7322.8,402.1,""while_blue"",""left"",""right"",""bad_move"",12726.2,3089,2724.8,9637.3,364.1,""oops"",""down"",""left"",""good_move"",18786.4,6058.7,2421.2,16008.7,356.5,""smooth"",""down"",""down"",""good_move"",21378.9,2589.8,2188.5,18789.1,401.3,""oops"",""left"",""left"",""good_move"",24273.8,2893.5,2523.9,21380.4,369.5,""oops"",""left"",""up"",""bad_move"",27787.2,3512.8,3183.7,24274.4,329.1,""smooth"",""down"",""down"",""good_move"",30191.2,2402.9,2045.7,27788.3,357.2,""oops"",""left"",""left"",""good_move"",32563.9,2371.9,2028.6,30192,343.3,""while_blue"",""down"",""up"",""bad_move"",35366.9,2802.7,2484.5,32564.2,318.2,""oops"",""down"",""up"",""bad_move"",38589.4,3222.3,2897.8,35367.7,324.6,""smooth"",""down"",""down"",""good_move""]","",""
"2819","","<div style=""width:500px;"">
  <p>What determined the result of this run?</p>
  </div>","74","html-slider-response","55","719613","0.0-5.0-1.9","294","1","2025-07-30 16:06:47","1f75c3e559b7213887762d5229550c2b","37.47.116.83","Mozilla/5.0 (Windows NT 10.0; Win64; x64) AppleWebKit/537.36 (KHTML, like Gecko) Chrome/138.0.0.0 Safari/537.36","WebKit","Chrome","138.0.0.0","Windows","10.0","https://app.prolific.com/","pl-PL,pl;q=0.9","5c39ed7a688b59000102a145","6877631c9844ddd5501205fc","688a4308ddd6133e5b5a958f","3","1","5c39ed7a688b59000102a145","3","1","2025-07-30T16:19:34.181Z","","","","","","","","","","","AttribQ","","50","","","","","","","","","","","","","","","","","","","","","","","","","","","","",""
"5204","","<div style=""width:500px;"">
  <p>How much control did you have over the ball?</p>
  </div>","71","html-slider-response","56","724820","0.0-5.0-2.9","294","1","2025-07-30 16:06:47","1f75c3e559b7213887762d5229550c2b","37.47.116.83","Mozilla/5.0 (Windows NT 10.0; Win64; x64) AppleWebKit/537.36 (KHTML, like Gecko) Chrome/138.0.0.0 Safari/537.36","WebKit","Chrome","138.0.0.0","Windows","10.0","https://app.prolific.com/","pl-PL,pl;q=0.9","5c39ed7a688b59000102a145","6877631c9844ddd5501205fc","688a4308ddd6133e5b5a958f","3","1","5c39ed7a688b59000102a145","3","1","2025-07-30T16:19:39.388Z","","","","","","","","","","","ControlQ","","50","","","","","","","","","","","","","","","","","","","","","","","","","","","","",""
"2486","","<div style=""width:500px;"">
  <p>How would you describe your current emotional state?</p>
  </div>","99","html-slider-response","57","727308","0.0-5.0-3.9","294","1","2025-07-30 16:06:47","1f75c3e559b7213887762d5229550c2b","37.47.116.83","Mozilla/5.0 (Windows NT 10.0; Win64; x64) AppleWebKit/537.36 (KHTML, like Gecko) Chrome/138.0.0.0 Safari/537.36","WebKit","Chrome","138.0.0.0","Windows","10.0","https://app.prolific.com/","pl-PL,pl;q=0.9","5c39ed7a688b59000102a145","6877631c9844ddd5501205fc","688a4308ddd6133e5b5a958f","3","1","5c39ed7a688b59000102a145","3","1","2025-07-30T16:19:41.876Z","","","","","","","","","","","StressQ","","50","","","","","","","","","","","","","","","","","","","","","","","","","","","","",""
"3454","","<div style=""width:500px;"">
  <p>What best describes how you currently feel?</p>
  </div>","99","html-slider-response","58","730764","0.0-5.0-4.9","294","1","2025-07-30 16:06:47","1f75c3e559b7213887762d5229550c2b","37.47.116.83","Mozilla/5.0 (Windows NT 10.0; Win64; x64) AppleWebKit/537.36 (KHTML, like Gecko) Chrome/138.0.0.0 Safari/537.36","WebKit","Chrome","138.0.0.0","Windows","10.0","https://app.prolific.com/","pl-PL,pl;q=0.9","5c39ed7a688b59000102a145","6877631c9844ddd5501205fc","688a4308ddd6133e5b5a958f","3","1","5c39ed7a688b59000102a145","3","1","2025-07-30T16:19:45.333Z","","","","","","","","","","","MotivationQ","","50","","","","","","","","","","","","","","","","","","","","","","","","","","","","",""
"","","","","ctl-task-cpt","59","778944","0.0-5.0-0.10","294","1","2025-07-30 16:06:47","1f75c3e559b7213887762d5229550c2b","37.47.116.83","Mozilla/5.0 (Windows NT 10.0; Win64; x64) AppleWebKit/537.36 (KHTML, like Gecko) Chrome/138.0.0.0 Safari/537.36","WebKit","Chrome","138.0.0.0","Windows","10.0","https://app.prolific.com/","pl-PL,pl;q=0.9","5c39ed7a688b59000102a145","6877631c9844ddd5501205fc","688a4308ddd6133e5b5a958f","3","1","5c39ed7a688b59000102a145","3","1","2025-07-30T16:20:33.512Z","","","","","","","","","","","","","","win-only","0","g1:NW,g2:SE","0.5","11","0","732997","1181.8","6183.8","45151.6","1","4","4","6","2","-4","-4","0","0","0","1427.3","3000","-2275","[""down"",""right""]","{""num_key_presses"":10,""num_perfect"":5,""num_errors"":0,""num_randdir"":5,""num_randdir_good_moves"":2,""num_whilered"":0,""num_whileblue"":0,""num_blue"":3,""num_good_moves"":7}","[299.22232142857143,292.12857142857143,0.8,299.22232142857143,292.12857142857143,103.7,299.22232142857143,292.12857142857143,205.8,299.22232142857143,293.12857142857143,307.6,296.22232142857143,296.12857142857143,412,296.22232142857143,296.12857142857143,516.6,296.22232142857143,329.12857142857143,620.7,423.22232142857143,516.1285714285714,724.1,493.22232142857143,526.1285714285714,824.6,533.2223214285714,527.1285714285714,925.1,539.2223214285714,538.1285714285714,1029.6,539.2223214285714,536.1285714285714,1139.3,539.2223214285714,536.1285714285714,1243.6,539.2223214285714,536.1285714285714,1347.5,539.2223214285714,536.1285714285714,1458.4,539.2223214285714,536.1285714285714,1571.2,539.2223214285714,536.1285714285714,1673.3,539.2223214285714,535.1285714285714,1773.3,539.2223214285714,535.1285714285714,1875.3,539.2223214285714,535.1285714285714,1979.5,539.2223214285714,535.1285714285714,2079.9,539.2223214285714,535.1285714285714,2181.7,539.2223214285714,535.1285714285714,2294.2,539.2223214285714,535.1285714285714,2394.9,539.2223214285714,535.1285714285714,2495.3,539.2223214285714,535.1285714285714,2601.4,539.2223214285714,535.1285714285714,2705.5,539.2223214285714,535.1285714285714,2805.7,539.2223214285714,535.1285714285714,2911,539.2223214285714,535.1285714285714,3023.9,539.2223214285714,535.1285714285714,3124.6,539.2223214285714,535.1285714285714,3229.3,539.2223214285714,535.1285714285714,3330,539.2223214285714,535.1285714285714,3431.2,539.2223214285714,535.1285714285714,3535.3,539.2223214285714,535.1285714285714,3636.9,539.2223214285714,535.1285714285714,3748.7,539.2223214285714,535.1285714285714,3851.8,539.2223214285714,535.1285714285714,3957.4,539.2223214285714,535.1285714285714,4065,539.2223214285714,535.1285714285714,4174.9,539.2223214285714,535.1285714285714,4283.6,539.2223214285714,535.1285714285714,4391.4,539.2223214285714,535.1285714285714,4505.3,539.2223214285714,535.1285714285714,4606.3,539.2223214285714,535.1285714285714,4709.3,539.2223214285714,535.1285714285714,4809.6,539.2223214285714,535.1285714285714,4911.2]","[1461.9,1461.9,1000,0,461.9,""smooth"",""down"",""down"",""good_move"",3903.2,2440.7,2084.4,1462.5,356.3,""oops"",""right"",""up"",""bad_move"",6657.2,2753.3,2394,3903.9,359.3,""oops"",""down"",""left"",""bad_move"",12922.6,6264.2,2788.1,9732,402.6,""oops"",""down"",""down"",""good_move"",19375.2,6451.3,2889.7,16038.8,446.7,""oops"",""down"",""down"",""good_move"",22121.1,2745.1,2336.6,19376,408.5,""smooth"",""right"",""right"",""good_move"",28517,6394.9,2508.6,25576.6,431.8,""smooth"",""right"",""right"",""good_move"",31582.5,3064.6,2705.6,28517.9,359,""oops"",""right"",""left"",""bad_move"",34173.3,2590.2,2209.7,31583.1,380.5,""smooth"",""down"",""down"",""good_move"",36422.1,2247.2,1863.9,34174.9,383.3,""smooth"",""right"",""right"",""good_move""]","",""
"3878","","<div style=""width:500px;"">
  <p>What determined the result of this run?</p>
  </div>","72","html-slider-response","60","782824","0.0-5.0-1.10","294","1","2025-07-30 16:06:47","1f75c3e559b7213887762d5229550c2b","37.47.116.83","Mozilla/5.0 (Windows NT 10.0; Win64; x64) AppleWebKit/537.36 (KHTML, like Gecko) Chrome/138.0.0.0 Safari/537.36","WebKit","Chrome","138.0.0.0","Windows","10.0","https://app.prolific.com/","pl-PL,pl;q=0.9","5c39ed7a688b59000102a145","6877631c9844ddd5501205fc","688a4308ddd6133e5b5a958f","3","1","5c39ed7a688b59000102a145","3","1","2025-07-30T16:20:37.393Z","","","","","","","","","","","AttribQ","","50","","","","","","","","","","","","","","","","","","","","","","","","","","","","",""
"3601","","<div style=""width:500px;"">
  <p>How much control did you have over the ball?</p>
  </div>","80","html-slider-response","61","786428","0.0-5.0-2.10","294","1","2025-07-30 16:06:47","1f75c3e559b7213887762d5229550c2b","37.47.116.83","Mozilla/5.0 (Windows NT 10.0; Win64; x64) AppleWebKit/537.36 (KHTML, like Gecko) Chrome/138.0.0.0 Safari/537.36","WebKit","Chrome","138.0.0.0","Windows","10.0","https://app.prolific.com/","pl-PL,pl;q=0.9","5c39ed7a688b59000102a145","6877631c9844ddd5501205fc","688a4308ddd6133e5b5a958f","3","1","5c39ed7a688b59000102a145","3","1","2025-07-30T16:20:40.997Z","","","","","","","","","","","ControlQ","","50","","","","","","","","","","","","","","","","","","","","","","","","","","","","",""
"3417","","<div style=""width:500px;"">
  <p>How would you describe your current emotional state?</p>
  </div>","100","html-slider-response","62","789848","0.0-5.0-3.10","294","1","2025-07-30 16:06:47","1f75c3e559b7213887762d5229550c2b","37.47.116.83","Mozilla/5.0 (Windows NT 10.0; Win64; x64) AppleWebKit/537.36 (KHTML, like Gecko) Chrome/138.0.0.0 Safari/537.36","WebKit","Chrome","138.0.0.0","Windows","10.0","https://app.prolific.com/","pl-PL,pl;q=0.9","5c39ed7a688b59000102a145","6877631c9844ddd5501205fc","688a4308ddd6133e5b5a958f","3","1","5c39ed7a688b59000102a145","3","1","2025-07-30T16:20:44.416Z","","","","","","","","","","","StressQ","","50","","","","","","","","","","","","","","","","","","","","","","","","","","","","",""
"2555","","<div style=""width:500px;"">
  <p>What best describes how you currently feel?</p>
  </div>","100","html-slider-response","63","792406","0.0-5.0-4.10","294","1","2025-07-30 16:06:47","1f75c3e559b7213887762d5229550c2b","37.47.116.83","Mozilla/5.0 (Windows NT 10.0; Win64; x64) AppleWebKit/537.36 (KHTML, like Gecko) Chrome/138.0.0.0 Safari/537.36","WebKit","Chrome","138.0.0.0","Windows","10.0","https://app.prolific.com/","pl-PL,pl;q=0.9","5c39ed7a688b59000102a145","6877631c9844ddd5501205fc","688a4308ddd6133e5b5a958f","3","1","5c39ed7a688b59000102a145","3","1","2025-07-30T16:20:46.974Z","","","","","","","","","","","MotivationQ","","50","","","","","","","","","","","","","","","","","","","","","","","","","","","","",""
"","","","","ctl-task-cpt","64","859467","0.0-5.0-0.11","294","1","2025-07-30 16:06:47","1f75c3e559b7213887762d5229550c2b","37.47.116.83","Mozilla/5.0 (Windows NT 10.0; Win64; x64) AppleWebKit/537.36 (KHTML, like Gecko) Chrome/138.0.0.0 Safari/537.36","WebKit","Chrome","138.0.0.0","Windows","10.0","https://app.prolific.com/","pl-PL,pl;q=0.9","5c39ed7a688b59000102a145","6877631c9844ddd5501205fc","688a4308ddd6133e5b5a958f","3","1","5c39ed7a688b59000102a145","3","1","2025-07-30T16:21:54.035Z","","","","","","","","","","","","","","win-only","2","g1:SE,g2:NW","0.6","12","0","794637.9","4132.3","9133.4","64045.6","1","4","8","6","2","-8","-11","0","0","0","1614.8","3000","-1835","[""left"",""up""]","{""num_key_presses"":16,""num_perfect"":8,""num_errors"":3,""num_randdir"":5,""num_randdir_good_moves"":1,""num_whilered"":0,""num_whileblue"":3,""num_blue"":5,""num_good_moves"":10}","[288.22232142857143,300.12857142857143,0.3,288.22232142857143,300.12857142857143,100.5,288.22232142857143,300.12857142857143,206.3,289.22232142857143,304.12857142857143,315.7,321.22232142857143,390.12857142857143,416.7,322.22232142857143,394.12857142857143,520.7,329.22232142857143,401.12857142857143,621.6,64.22232142857143,175.12857142857143,722.1,-66.77767857142857,-25.871428571428574,827.4,-75.77767857142857,-47.871428571428574,945.5,-61.777678571428574,-47.871428571428574,1048.6,4.222321428571426,-12.871428571428574,1150.8,36.222321428571426,18.128571428571426,1251.9,36.222321428571426,19.128571428571426,1357.7,31.222321428571426,24.128571428571426,1466.6,30.222321428571426,28.128571428571426,1570.6,30.222321428571426,28.128571428571426,1672.7,30.222321428571426,29.128571428571426,1786.8,30.222321428571426,29.128571428571426,1893.8,30.222321428571426,29.128571428571426,2000.4,30.222321428571426,29.128571428571426,2102.2,30.222321428571426,29.128571428571426,2205,30.222321428571426,29.128571428571426,2312.1,30.222321428571426,29.128571428571426,2415.4,30.222321428571426,29.128571428571426,2522,30.222321428571426,29.128571428571426,2630.8,30.222321428571426,29.128571428571426,2733.5,30.222321428571426,29.128571428571426,2836.4,30.222321428571426,29.128571428571426,2938.2,30.222321428571426,29.128571428571426,3048.2,30.222321428571426,29.128571428571426,3156.1,30.222321428571426,29.128571428571426,3261.7,30.222321428571426,29.128571428571426,3367.6,30.222321428571426,29.128571428571426,3477.2,30.222321428571426,29.128571428571426,3584.3,30.222321428571426,29.128571428571426,3685.6,30.222321428571426,29.128571428571426,3790.6,30.222321428571426,29.128571428571426,3890.8,30.222321428571426,29.128571428571426,3994,30.222321428571426,29.128571428571426,4099.9,30.222321428571426,29.128571428571426,4205.3,30.222321428571426,29.128571428571426,4308.2,30.222321428571426,29.128571428571426,4419,30.222321428571426,29.128571428571426,4525.8,30.222321428571426,29.128571428571426,4626.4,30.222321428571426,29.128571428571426,4733.7,30.222321428571426,29.128571428571426,4835.3,30.222321428571426,29.128571428571426,4950.3]","[1390.7,1390.7,1000,0,390.7,""smooth"",""left"",""left"",""good_move"",3918.8,2526.8,2167.7,1392,359.1,""smooth"",""left"",""left"",""good_move"",6543.4,2623.9,2277.8,3919.5,346.1,""while_blue"",""left"",""down"",""bad_move"",14466.5,7921.5,3296,10743.7,426.8,""smooth"",""up"",""up"",""good_move"",17761.6,3293.9,2931.6,14467.7,362.3,""oops"",""up"",""down"",""bad_move"",20541.2,2777.9,2393.8,17763.3,384.1,""smooth"",""up"",""up"",""good_move"",23433,2891.5,2552.6,20541.6,338.8,""oops"",""up"",""right"",""bad_move"",25976.1,2540.1,2138.2,23436.1,401.9,""oops"",""up"",""up"",""good_move"",28629.3,2651.7,2333.9,25977.6,317.8,""smooth"",""up"",""up"",""good_move"",31185.5,2553.7,2254.8,28631.9,298.8,""while_blue"",""up"",""down"",""bad_move"",37297.9,6111.7,2455.7,34520.8,321.5,""smooth"",""up"",""up"",""good_move"",40907.4,3607.7,3225.7,37299.8,381.9,""oops"",""left"",""right"",""bad_move"",43759.5,2850.5,2434.2,40909.1,416.3,""smooth"",""up"",""up"",""good_move"",47121.8,3361.9,3080.9,43759.9,281,""while_blue"",""left"",""left"",""good_move"",49429.2,2306,1930.5,47123.2,375.5,""smooth"",""left"",""left"",""good_move"",52507.3,3077.2,2790,49430.2,287.1,""oops"",""left"",""down"",""bad_move""]","",""
"2642","","<div style=""width:500px;"">
  <p>What determined the result of this run?</p>
  </div>","65","html-slider-response","65","862112","0.0-5.0-1.11","294","1","2025-07-30 16:06:47","1f75c3e559b7213887762d5229550c2b","37.47.116.83","Mozilla/5.0 (Windows NT 10.0; Win64; x64) AppleWebKit/537.36 (KHTML, like Gecko) Chrome/138.0.0.0 Safari/537.36","WebKit","Chrome","138.0.0.0","Windows","10.0","https://app.prolific.com/","pl-PL,pl;q=0.9","5c39ed7a688b59000102a145","6877631c9844ddd5501205fc","688a4308ddd6133e5b5a958f","3","1","5c39ed7a688b59000102a145","3","1","2025-07-30T16:21:56.680Z","","","","","","","","","","","AttribQ","","50","","","","","","","","","","","","","","","","","","","","","","","","","","","","",""
"3764","","<div style=""width:500px;"">
  <p>How much control did you have over the ball?</p>
  </div>","67","html-slider-response","66","865878","0.0-5.0-2.11","294","1","2025-07-30 16:06:47","1f75c3e559b7213887762d5229550c2b","37.47.116.83","Mozilla/5.0 (Windows NT 10.0; Win64; x64) AppleWebKit/537.36 (KHTML, like Gecko) Chrome/138.0.0.0 Safari/537.36","WebKit","Chrome","138.0.0.0","Windows","10.0","https://app.prolific.com/","pl-PL,pl;q=0.9","5c39ed7a688b59000102a145","6877631c9844ddd5501205fc","688a4308ddd6133e5b5a958f","3","1","5c39ed7a688b59000102a145","3","1","2025-07-30T16:22:00.447Z","","","","","","","","","","","ControlQ","","50","","","","","","","","","","","","","","","","","","","","","","","","","","","","",""
"3304","","<div style=""width:500px;"">
  <p>How would you describe your current emotional state?</p>
  </div>","99","html-slider-response","67","869187","0.0-5.0-3.11","294","1","2025-07-30 16:06:47","1f75c3e559b7213887762d5229550c2b","37.47.116.83","Mozilla/5.0 (Windows NT 10.0; Win64; x64) AppleWebKit/537.36 (KHTML, like Gecko) Chrome/138.0.0.0 Safari/537.36","WebKit","Chrome","138.0.0.0","Windows","10.0","https://app.prolific.com/","pl-PL,pl;q=0.9","5c39ed7a688b59000102a145","6877631c9844ddd5501205fc","688a4308ddd6133e5b5a958f","3","1","5c39ed7a688b59000102a145","3","1","2025-07-30T16:22:03.756Z","","","","","","","","","","","StressQ","","50","","","","","","","","","","","","","","","","","","","","","","","","","","","","",""
"2730","","<div style=""width:500px;"">
  <p>What best describes how you currently feel?</p>
  </div>","100","html-slider-response","68","871921","0.0-5.0-4.11","294","1","2025-07-30 16:06:47","1f75c3e559b7213887762d5229550c2b","37.47.116.83","Mozilla/5.0 (Windows NT 10.0; Win64; x64) AppleWebKit/537.36 (KHTML, like Gecko) Chrome/138.0.0.0 Safari/537.36","WebKit","Chrome","138.0.0.0","Windows","10.0","https://app.prolific.com/","pl-PL,pl;q=0.9","5c39ed7a688b59000102a145","6877631c9844ddd5501205fc","688a4308ddd6133e5b5a958f","3","1","5c39ed7a688b59000102a145","3","1","2025-07-30T16:22:06.489Z","","","","","","","","","","","MotivationQ","","50","","","","","","","","","","","","","","","","","","","","","","","","","","","","",""
"","","","","ctl-task-cpt","69","918330","0.0-5.0-0.12","294","1","2025-07-30 16:06:47","1f75c3e559b7213887762d5229550c2b","37.47.116.83","Mozilla/5.0 (Windows NT 10.0; Win64; x64) AppleWebKit/537.36 (KHTML, like Gecko) Chrome/138.0.0.0 Safari/537.36","WebKit","Chrome","138.0.0.0","Windows","10.0","https://app.prolific.com/","pl-PL,pl;q=0.9","5c39ed7a688b59000102a145","6877631c9844ddd5501205fc","688a4308ddd6133e5b5a958f","3","1","5c39ed7a688b59000102a145","3","1","2025-07-30T16:22:52.898Z","","","","","","","","","","","","","","win-only","0","g1:NW,g2:SE","0.7","13","0","874153.1","3369.1","8372.1","43353.7","1","4","4","6","2","4","4","4","0","0.030303030303030304","1388.5","3000","2370","[""down"",""right""]","{""num_key_presses"":8,""num_perfect"":6,""num_errors"":0,""num_randdir"":2,""num_randdir_good_moves"":1,""num_whilered"":0,""num_whileblue"":0,""num_blue"":2,""num_good_moves"":7}","[297.22232142857143,294.12857142857143,0.5,297.22232142857143,294.12857142857143,118.5,290.22232142857143,289.12857142857143,225.3,265.22232142857143,275.12857142857143,337.1,280.22232142857143,280.12857142857143,441.8,280.22232142857143,277.12857142857143,542.7,414.22232142857143,355.12857142857143,643.7,468.22232142857143,374.12857142857143,748.9,476.22232142857143,474.12857142857143,858.9,488.22232142857143,508.12857142857143,966.8,489.22232142857143,507.12857142857143,1068.3,503.22232142857143,513.1285714285714,1178.4,560.2223214285714,528.1285714285714,1286.2,560.2223214285714,528.1285714285714,1402.8,560.2223214285714,528.1285714285714,1508.7,560.2223214285714,528.1285714285714,1611.7,561.2223214285714,528.1285714285714,1719.3,561.2223214285714,528.1285714285714,1820.7,561.2223214285714,528.1285714285714,1924.7,561.2223214285714,528.1285714285714,2027.6,561.2223214285714,528.1285714285714,2138.9,561.2223214285714,528.1285714285714,2242,561.2223214285714,528.1285714285714,2345.9,561.2223214285714,528.1285714285714,2455,561.2223214285714,528.1285714285714,2565.5,561.2223214285714,528.1285714285714,2689.5,561.2223214285714,528.1285714285714,2797.8,561.2223214285714,528.1285714285714,2912.9,561.2223214285714,528.1285714285714,3025.1,561.2223214285714,528.1285714285714,3139.2,561.2223214285714,528.1285714285714,3253,561.2223214285714,528.1285714285714,3367,561.2223214285714,528.1285714285714,3478.6,561.2223214285714,528.1285714285714,3593,561.2223214285714,528.1285714285714,3700.5,561.2223214285714,528.1285714285714,3813.1,561.2223214285714,528.1285714285714,3928,561.2223214285714,528.1285714285714,4040.5,561.2223214285714,528.1285714285714,4141.1,561.2223214285714,528.1285714285714,4254.7,561.2223214285714,528.1285714285714,4368,561.2223214285714,528.1285714285714,4482.2,561.2223214285714,528.1285714285714,4598.9,561.2223214285714,528.1285714285714,4713.5,561.2223214285714,528.1285714285714,4832.7,561.2223214285714,528.1285714285714,4947]","[4283,4283,1818.8,2010,454.2,""smooth"",""down"",""down"",""good_move"",6977.2,2693.6,2227.1,4283.6,466.5,""smooth"",""down"",""down"",""good_move"",11108.3,4130.7,3691.5,6977.7,439.2,""oops"",""down"",""down"",""good_move"",14722.2,3612.3,3156.6,11109.9,455.7,""smooth"",""right"",""right"",""good_move"",21259.1,6536.3,2654.4,18082.6,522.1,""smooth"",""right"",""right"",""good_move"",24045.5,2786.1,2106.6,21259.4,679.5,""oops"",""right"",""left"",""bad_move"",30776.2,6729,3119.4,24047.2,3609.6,""smooth"",""right"",""right"",""good_move"",34152.9,3376.4,2800.6,30776.6,575.7,""smooth"",""right"",""right"",""good_move""]","",""
"5748","","<div style=""width:500px;"">
  <p>What determined the result of this run?</p>
  </div>","92","html-slider-response","70","924082","0.0-5.0-1.12","294","1","2025-07-30 16:06:47","1f75c3e559b7213887762d5229550c2b","37.47.116.83","Mozilla/5.0 (Windows NT 10.0; Win64; x64) AppleWebKit/537.36 (KHTML, like Gecko) Chrome/138.0.0.0 Safari/537.36","WebKit","Chrome","138.0.0.0","Windows","10.0","https://app.prolific.com/","pl-PL,pl;q=0.9","5c39ed7a688b59000102a145","6877631c9844ddd5501205fc","688a4308ddd6133e5b5a958f","3","1","5c39ed7a688b59000102a145","3","1","2025-07-30T16:22:58.650Z","","","","","","","","","","","AttribQ","","50","","","","","","","","","","","","","","","","","","","","","","","","","","","","",""
"3254","","<div style=""width:500px;"">
  <p>How much control did you have over the ball?</p>
  </div>","100","html-slider-response","71","927343","0.0-5.0-2.12","294","1","2025-07-30 16:06:47","1f75c3e559b7213887762d5229550c2b","37.47.116.83","Mozilla/5.0 (Windows NT 10.0; Win64; x64) AppleWebKit/537.36 (KHTML, like Gecko) Chrome/138.0.0.0 Safari/537.36","WebKit","Chrome","138.0.0.0","Windows","10.0","https://app.prolific.com/","pl-PL,pl;q=0.9","5c39ed7a688b59000102a145","6877631c9844ddd5501205fc","688a4308ddd6133e5b5a958f","3","1","5c39ed7a688b59000102a145","3","1","2025-07-30T16:23:01.911Z","","","","","","","","","","","ControlQ","","50","","","","","","","","","","","","","","","","","","","","","","","","","","","","",""
"3142","","<div style=""width:500px;"">
  <p>How would you describe your current emotional state?</p>
  </div>","100","html-slider-response","72","930489","0.0-5.0-3.12","294","1","2025-07-30 16:06:47","1f75c3e559b7213887762d5229550c2b","37.47.116.83","Mozilla/5.0 (Windows NT 10.0; Win64; x64) AppleWebKit/537.36 (KHTML, like Gecko) Chrome/138.0.0.0 Safari/537.36","WebKit","Chrome","138.0.0.0","Windows","10.0","https://app.prolific.com/","pl-PL,pl;q=0.9","5c39ed7a688b59000102a145","6877631c9844ddd5501205fc","688a4308ddd6133e5b5a958f","3","1","5c39ed7a688b59000102a145","3","1","2025-07-30T16:23:05.058Z","","","","","","","","","","","StressQ","","50","","","","","","","","","","","","","","","","","","","","","","","","","","","","",""
"5296","","<div style=""width:500px;"">
  <p>What best describes how you currently feel?</p>
  </div>","100","html-slider-response","73","935791","0.0-5.0-4.12","294","1","2025-07-30 16:06:47","1f75c3e559b7213887762d5229550c2b","37.47.116.83","Mozilla/5.0 (Windows NT 10.0; Win64; x64) AppleWebKit/537.36 (KHTML, like Gecko) Chrome/138.0.0.0 Safari/537.36","WebKit","Chrome","138.0.0.0","Windows","10.0","https://app.prolific.com/","pl-PL,pl;q=0.9","5c39ed7a688b59000102a145","6877631c9844ddd5501205fc","688a4308ddd6133e5b5a958f","3","1","5c39ed7a688b59000102a145","3","1","2025-07-30T16:23:10.359Z","","","","","","","","","","","MotivationQ","","50","","","","","","","","","","","","","","","","","","","","","","","","","","","","",""
"","","","","ctl-task-cpt","74","970782","0.0-5.0-0.13","294","1","2025-07-30 16:06:47","1f75c3e559b7213887762d5229550c2b","37.47.116.83","Mozilla/5.0 (Windows NT 10.0; Win64; x64) AppleWebKit/537.36 (KHTML, like Gecko) Chrome/138.0.0.0 Safari/537.36","WebKit","Chrome","138.0.0.0","Windows","10.0","https://app.prolific.com/","pl-PL,pl;q=0.9","5c39ed7a688b59000102a145","6877631c9844ddd5501205fc","688a4308ddd6133e5b5a958f","3","1","5c39ed7a688b59000102a145","3","1","2025-07-30T16:23:45.351Z","","","","","","","","","","","","","","win-only","1","g1:NE,g2:SW","0.8","14","0","938026.1","1635","6662","31960.9","1","4","8","6","2","8","8","12","4","0.09090909090909091","2438.5","3000","2365","[""down"",""left""]","{""num_key_presses"":6,""num_perfect"":6,""num_errors"":0,""num_randdir"":0,""num_randdir_good_moves"":0,""num_whilered"":0,""num_whileblue"":0,""num_blue"":0,""num_good_moves"":6}","[296.22232142857143,291.12857142857143,1.3,296.22232142857143,291.12857142857143,101,296.22232142857143,291.12857142857143,252.5,296.22232142857143,291.12857142857143,386.8,310.22232142857143,323.12857142857143,527.4,330.22232142857143,341.12857142857143,656.6,330.22232142857143,341.12857142857143,785.2,330.22232142857143,341.12857142857143,917.7,330.22232142857143,341.12857142857143,1043.2,330.22232142857143,341.12857142857143,1171.3,222.22232142857143,356.12857142857143,1302.3,167.22232142857143,425.12857142857143,1439.1,-65.77767857142857,530.1285714285714,1574.8,-108.77767857142857,543.1285714285714,1704.3,-98.77767857142857,546.1285714285714,1837.9,-46.777678571428574,547.1285714285714,1971.4,-29.777678571428574,544.1285714285714,2119.1,19.222321428571426,543.1285714285714,2253.8,25.222321428571426,540.1285714285714,2386.2,25.222321428571426,540.1285714285714,2494,25.222321428571426,540.1285714285714,2600,25.222321428571426,540.1285714285714,2744,25.222321428571426,540.1285714285714,2872.5,25.222321428571426,540.1285714285714,3003.4,25.222321428571426,540.1285714285714,3154.4,25.222321428571426,540.1285714285714,3283.2,25.222321428571426,540.1285714285714,3415.3,25.222321428571426,540.1285714285714,3544.3,25.222321428571426,540.1285714285714,3676.8,25.222321428571426,540.1285714285714,3808.4,25.222321428571426,540.1285714285714,3937.9,25.222321428571426,540.1285714285714,4072.9,25.222321428571426,540.1285714285714,4216.8,25.222321428571426,540.1285714285714,4367,25.222321428571426,540.1285714285714,4469.3,25.222321428571426,540.1285714285714,4854.2,25.222321428571426,540.1285714285714,4984.3]","[1528.1,1528.1,1000,0,528.1,""smooth"",""down"",""down"",""good_move"",5084.4,3556,2943.9,1528.5,612.1,""smooth"",""down"",""down"",""good_move"",8200.7,3115.9,2495.7,5084.8,620.2,""smooth"",""down"",""down"",""good_move"",11347.8,3146.6,2584.4,8201.2,562.2,""smooth"",""left"",""left"",""good_move"",22224.3,10876.1,2032.3,11348.2,8843.8,""smooth"",""left"",""left"",""good_move"",25058.5,2833.6,2445.9,22224.9,387.7,""smooth"",""left"",""left"",""good_move""]","",""
"2829","","<div style=""width:500px;"">
  <p>What determined the result of this run?</p>
