"rt","response_timestamp","stimulus","response","trial_type","trial_index","time_elapsed","internal_node_id","run_id","condition","recorded_at","source_code_version","ip","user_agent","device","browser","browser_version","platform","platform_version","referer","accept_language","PROLIFIC_PID","STUDY_ID","SESSION_ID","WEEK","BATCH","prolific_id","week","batch","realtime","success","responses","item_order","radio_event_ids","radio_event_times","key_event_times","mouse_event_times","straightlining","zigzagging","honeypot","eventType","view_history","slider_start","which_type","canvas_config","goals_layout","control_level","trial_number","tutorial_trial_number","trial_start_time","phase1_start_time","phase2_start_time","phase3_start_time","goal_1_value","goal_1_distance","goal_2_value","goal_2_distance","goal_selected","outcome","outcome_total","participant_final_score","participant_initial_score","participant_final_score_prop","goal_choice_rt","allocated_time","allocated_time_remaining","goal_direction","counts","mouse_movements","key_presses","question_order","question_id"
"11862","1753295504004","<p style='font-size:40px;line-height:1.25'><strong>Welcome to the experiment!</strong></p><p style='font-size:1.1em;line-height:1.25'>Thank you for participanting in our experiment again! You will be asked to play the Dysfunctional Ball Game again. We will briefly recap the rules before we start.</p><p style='font-size:1.1em;line-height:1.25'>Press <strong>Next</strong> to continue.</p>","0","custom-html-button-response","0","11869","0.0-0.0","230","1","2025-07-23 18:31:30","1f75c3e559b7213887762d5229550c2b","105.1.85.247","Mozilla/5.0 (Windows NT 10.0; Win64; x64) AppleWebKit/537.36 (KHTML, like Gecko) Chrome/138.0.0.0 Safari/537.36","WebKit","Chrome","138.0.0.0","Windows","10.0","https://app.prolific.com/","en-GB,en;q=0.9,en-US;q=0.8,zu;q=0.7,es;q=0.6","6129dca465e41b5ae1b262da","683dba2a8a9dda3513610c04","68812a653787c92c0fe1178f","3","0","6129dca465e41b5ae1b262da","3","0","2025-07-23T18:31:44.006Z","","","","","","","","","","","","","","","","","","","","","","","","","","","","","","","","","","","","","","","","","",""
"6320","","","","fullscreen","1","19203","0.0-1.0","230","1","2025-07-23 18:31:30","1f75c3e559b7213887762d5229550c2b","105.1.85.247","Mozilla/5.0 (Windows NT 10.0; Win64; x64) AppleWebKit/537.36 (KHTML, like Gecko) Chrome/138.0.0.0 Safari/537.36","WebKit","Chrome","138.0.0.0","Windows","10.0","https://app.prolific.com/","en-GB,en;q=0.9,en-US;q=0.8,zu;q=0.7,es;q=0.6","6129dca465e41b5ae1b262da","683dba2a8a9dda3513610c04","68812a653787c92c0fe1178f","3","0","6129dca465e41b5ae1b262da","3","0","","true","","","","","","","","","","","","","","","","","","","","","","","","","","","","","","","","","","","","","","","","",""
"3670","1753295515011","<p style='font-size:1.1em;line-height:1.25'>In the following, we will ask you a few questions relating to your feelings in the last 24 hours.<br></p><p style='font-size:1.1em;line-height:1.25'>Press the <strong>Next</strong> button to continue.</p>","0","custom-html-button-response","2","22875","0.0-2.0-0.0","230","1","2025-07-23 18:31:30","1f75c3e559b7213887762d5229550c2b","105.1.85.247","Mozilla/5.0 (Windows NT 10.0; Win64; x64) AppleWebKit/537.36 (KHTML, like Gecko) Chrome/138.0.0.0 Safari/537.36","WebKit","Chrome","138.0.0.0","Windows","10.0","https://app.prolific.com/","en-GB,en;q=0.9,en-US;q=0.8,zu;q=0.7,es;q=0.6","6129dca465e41b5ae1b262da","683dba2a8a9dda3513610c04","68812a653787c92c0fe1178f","3","0","6129dca465e41b5ae1b262da","3","0","2025-07-23T18:31:55.012Z","","","","","","","","","","","","","","","","","","","","","","","","","","","","","","","","","","","","","","","","","",""
"54659.29999999702","","","","survey-template","3","77545","0.0-2.0-1.0","230","1","2025-07-23 18:31:30","1f75c3e559b7213887762d5229550c2b","105.1.85.247","Mozilla/5.0 (Windows NT 10.0; Win64; x64) AppleWebKit/537.36 (KHTML, like Gecko) Chrome/138.0.0.0 Safari/537.36","WebKit","Chrome","138.0.0.0","Windows","10.0","https://app.prolific.com/","en-GB,en;q=0.9,en-US;q=0.8,zu;q=0.7,es;q=0.6","6129dca465e41b5ae1b262da","683dba2a8a9dda3513610c04","68812a653787c92c0fe1178f","3","0","6129dca465e41b5ae1b262da","3","0","2025-07-23T18:32:49.682Z","","{""Q01"":""0"",""Q02"":""0"",""Q03"":""0"",""Q04"":""0"",""Q05"":""1"",""Q06"":""1"",""Q07"":""0"",""Q08"":""0"",""Q09"":""0"",""Q10"":""0"",""Q11"":""1"",""Q12"":""0"",""Q13"":""5"",""Q14"":""2"",""Q15"":""0"",""Q16"":""0"",""Q17"":""0"",""Q18"":""0"",""Q19"":""0"",""Q20"":""0"",""Q21"":""0"",""Q22"":""0""}","[0,1,2,3,4,5,6,7,8,9,10,11,12,13,14,15,16,17,18,19,20,21]","[""Q01"",""Q02"",""Q03"",""Q04"",""Q05"",""Q06"",""Q07"",""Q08"",""Q09"",""Q10"",""Q11"",""Q12"",""Q13"",""Q14"",""Q15"",""Q16"",""Q17"",""Q18"",""Q19"",""Q20"",""Q21"",""Q22""]","[2660.4000000059605,4191.600000008941,5740.5,7424.4000000059605,9316.10000000894,11219.40000000596,12885.90000000596,14317.29999999702,20024.79999999702,21984.10000000894,23940.20000000298,25966.29999999702,28533.90000000596,30608.20000000298,37157.90000000596,38766.20000000298,40170,41549.29999999702,43498.10000000894,48973.29999999702,51070.20000000298,52574.10000000894]","[]","[2.2999999970197678,2660.4000000059605,4191.600000008941,5740.5,7424.4000000059605,9316.10000000894,11219.40000000596,12885.90000000596,14317.29999999702,20024.79999999702,21984.10000000894,23940.20000000298,25966.29999999702,28533.90000000596,30608.20000000298,37157.90000000596,38766.20000000298,40170,41549.29999999702,43498.10000000894,48973.29999999702,51070.20000000298,52574.10000000894,54652.70000000298]","0.7727272727272727","0.23809523809523808","0","drsp","","","","","","","","","","","","","","","","","","","","","","","","","","","","","","",""
"11497.79999999702","","","","survey-template","4","89048","0.0-2.0-2.0","230","1","2025-07-23 18:31:30","1f75c3e559b7213887762d5229550c2b","105.1.85.247","Mozilla/5.0 (Windows NT 10.0; Win64; x64) AppleWebKit/537.36 (KHTML, like Gecko) Chrome/138.0.0.0 Safari/537.36","WebKit","Chrome","138.0.0.0","Windows","10.0","https://app.prolific.com/","en-GB,en;q=0.9,en-US;q=0.8,zu;q=0.7,es;q=0.6","6129dca465e41b5ae1b262da","683dba2a8a9dda3513610c04","68812a653787c92c0fe1178f","3","0","6129dca465e41b5ae1b262da","3","0","2025-07-23T18:33:01.185Z","","{""Q01"":""0"",""Q02"":""0"",""Q03"":""0""}","[0,1,2]","[""Q01"",""Q02"",""Q03""]","[3379,5654.9000000059605,8055.29999999702]","[]","[3379,5654.9000000059605,8055.29999999702,9294.5,11496.5]","0.6666666666666666","1","0","stress","","","","","","","","","","","","","","","","","","","","","","","","","","","","","","",""
"16732","","","","instructions","5","105782","0.0-3.0-0.0","230","1","2025-07-23 18:31:30","1f75c3e559b7213887762d5229550c2b","105.1.85.247","Mozilla/5.0 (Windows NT 10.0; Win64; x64) AppleWebKit/537.36 (KHTML, like Gecko) Chrome/138.0.0.0 Safari/537.36","WebKit","Chrome","138.0.0.0","Windows","10.0","https://app.prolific.com/","en-GB,en;q=0.9,en-US;q=0.8,zu;q=0.7,es;q=0.6","6129dca465e41b5ae1b262da","683dba2a8a9dda3513610c04","68812a653787c92c0fe1178f","3","0","6129dca465e41b5ae1b262da","3","0","","","","","","","","","","","","","[{""page_index"":0,""viewing_time"":16731}]","","","","","","","","","","","","","","","","","","","","","","","","","","","","","",""
"4882","","<p>Before you start with this game please answer the following three questions yourself. </p>
  <p>Through this game, we measure several aspects of your cognitive performance, such as reaction times, multi-tasking capabilities </p>
  <p>and the ability to assess the situation you are in.</p>
  <p></p>
  <p><b>How good do you usually are in such tasks?</b></p>","100","html-slider-response","6","110669","0.0-4.0-0.0","230","1","2025-07-23 18:31:30","1f75c3e559b7213887762d5229550c2b","105.1.85.247","Mozilla/5.0 (Windows NT 10.0; Win64; x64) AppleWebKit/537.36 (KHTML, like Gecko) Chrome/138.0.0.0 Safari/537.36","WebKit","Chrome","138.0.0.0","Windows","10.0","https://app.prolific.com/","en-GB,en;q=0.9,en-US;q=0.8,zu;q=0.7,es;q=0.6","6129dca465e41b5ae1b262da","683dba2a8a9dda3513610c04","68812a653787c92c0fe1178f","3","0","6129dca465e41b5ae1b262da","3","0","2025-07-23T18:33:22.806Z","","","","","","","","","","","PreSkillQ","","50","","","","","","","","","","","","","","","","","","","","","","","","","","","","",""
"5087","","<div style=""width:500px;"">
  <p>How well do you think you will perform in this task compared to other participants?</p>
  </div>","100","html-slider-response","7","115758","0.0-4.0-1.0","230","1","2025-07-23 18:31:30","1f75c3e559b7213887762d5229550c2b","105.1.85.247","Mozilla/5.0 (Windows NT 10.0; Win64; x64) AppleWebKit/537.36 (KHTML, like Gecko) Chrome/138.0.0.0 Safari/537.36","WebKit","Chrome","138.0.0.0","Windows","10.0","https://app.prolific.com/","en-GB,en;q=0.9,en-US;q=0.8,zu;q=0.7,es;q=0.6","6129dca465e41b5ae1b262da","683dba2a8a9dda3513610c04","68812a653787c92c0fe1178f","3","0","6129dca465e41b5ae1b262da","3","0","2025-07-23T18:33:27.895Z","","","","","","","","","","","PrePerfQ","","50","","","","","","","","","","","","","","","","","","","","","","","","","","","","",""
"4582","","<div style=""width:500px;"">
  <p>What best describes how you currently feel?</p>
  </div>","100","html-slider-response","8","120342","0.0-4.0-2.0","230","1","2025-07-23 18:31:30","1f75c3e559b7213887762d5229550c2b","105.1.85.247","Mozilla/5.0 (Windows NT 10.0; Win64; x64) AppleWebKit/537.36 (KHTML, like Gecko) Chrome/138.0.0.0 Safari/537.36","WebKit","Chrome","138.0.0.0","Windows","10.0","https://app.prolific.com/","en-GB,en;q=0.9,en-US;q=0.8,zu;q=0.7,es;q=0.6","6129dca465e41b5ae1b262da","683dba2a8a9dda3513610c04","68812a653787c92c0fe1178f","3","0","6129dca465e41b5ae1b262da","3","0","2025-07-23T18:33:32.480Z","","","","","","","","","","","PreMotivationQ","","50","","","","","","","","","","","","","","","","","","","","","","","","","","","","",""
"","","","","ctl-task-cpt","9","152589","0.0-5.0-0.0","230","1","2025-07-23 18:31:30","1f75c3e559b7213887762d5229550c2b","105.1.85.247","Mozilla/5.0 (Windows NT 10.0; Win64; x64) AppleWebKit/537.36 (KHTML, like Gecko) Chrome/138.0.0.0 Safari/537.36","WebKit","Chrome","138.0.0.0","Windows","10.0","https://app.prolific.com/","en-GB,en;q=0.9,en-US;q=0.8,zu;q=0.7,es;q=0.6","6129dca465e41b5ae1b262da","683dba2a8a9dda3513610c04","68812a653787c92c0fe1178f","3","0","6129dca465e41b5ae1b262da","3","0","2025-07-23T18:34:04.726Z","","","","","","","","","","","","","","win-only","0","g1:NW,g2:SE","1","1","0","122752","2349.3","7352.3","29208.3","1","4","8","6","2","8","8","8","0","0.06060606060606061","1736.6","3000","1110","[""down"",""right""]","{""num_key_presses"":6,""num_perfect"":6,""num_errors"":0,""num_randdir"":0,""num_randdir_good_moves"":0,""num_whilered"":0,""num_whileblue"":0,""num_blue"":2,""num_good_moves"":6}","[296.22232142857143,299.12857142857143,1.3,296.22232142857143,299.12857142857143,101.4,296.22232142857143,299.12857142857143,208.3,296.22232142857143,299.12857142857143,311.1,296.22232142857143,299.12857142857143,413.2,296.22232142857143,299.12857142857143,515.9,296.22232142857143,299.12857142857143,625,296.22232142857143,299.12857142857143,729.7,296.22232142857143,299.12857142857143,831.6,328.22232142857143,326.12857142857143,935.6,450.22232142857143,428.12857142857143,1040,502.22232142857143,484.12857142857143,1141.8,518.2223214285714,507.12857142857143,1243.2,524.2223214285714,517.1285714285714,1349.7,536.2223214285714,538.1285714285714,1457.9,541.2223214285714,544.1285714285714,1562.7,541.2223214285714,544.1285714285714,1663.1,541.2223214285714,544.1285714285714,1771.1,541.2223214285714,544.1285714285714,1872.5,541.2223214285714,544.1285714285714,1978.6,541.2223214285714,544.1285714285714,2078.7,541.2223214285714,544.1285714285714,2182.2,541.2223214285714,544.1285714285714,2290,541.2223214285714,544.1285714285714,2391.3,541.2223214285714,544.1285714285714,2499,541.2223214285714,544.1285714285714,2601.7,541.2223214285714,544.1285714285714,2703.6,541.2223214285714,544.1285714285714,2805.3,541.2223214285714,544.1285714285714,2911.2,541.2223214285714,544.1285714285714,3014.8,541.2223214285714,544.1285714285714,3121.7,541.2223214285714,544.1285714285714,3227.2,541.2223214285714,544.1285714285714,3327.3,541.2223214285714,544.1285714285714,3433,541.2223214285714,544.1285714285714,3537.8,541.2223214285714,544.1285714285714,3641.5,541.2223214285714,544.1285714285714,3743.6,541.2223214285714,544.1285714285714,3845.4,541.2223214285714,544.1285714285714,3953.8,541.2223214285714,544.1285714285714,4055.6,541.2223214285714,544.1285714285714,4159.4,541.2223214285714,544.1285714285714,4259.4,541.2223214285714,544.1285714285714,4359.4,541.2223214285714,544.1285714285714,4463.8,541.2223214285714,544.1285714285714,4566.3,541.2223214285714,544.1285714285714,4671.8,541.2223214285714,544.1285714285714,4776.2,541.2223214285714,544.1285714285714,4876.4,541.2223214285714,544.1285714285714,4983.5]","[1465,1465,1000,0,465,""smooth"",""right"",""right"",""good_move"",7249.4,5746.8,2009.3,4835.5,404.6,""smooth"",""right"",""right"",""good_move"",10643,3392.9,2903.1,7250.1,489.8,""smooth"",""right"",""right"",""good_move"",13213.9,2567.7,2130.1,10646.2,437.6,""smooth"",""down"",""down"",""good_move"",15463.3,2248.2,1813.6,13215.1,434.6,""smooth"",""down"",""down"",""good_move"",21726.9,6262.7,2518.8,18692.5,515.7,""smooth"",""down"",""down"",""good_move""]","",""
"5931","","<div style=""width:500px;"">
  <p>What determined the result of this run?</p>
  </div>","100","html-slider-response","10","158522","0.0-5.0-1.0","230","1","2025-07-23 18:31:30","1f75c3e559b7213887762d5229550c2b","105.1.85.247","Mozilla/5.0 (Windows NT 10.0; Win64; x64) AppleWebKit/537.36 (KHTML, like Gecko) Chrome/138.0.0.0 Safari/537.36","WebKit","Chrome","138.0.0.0","Windows","10.0","https://app.prolific.com/","en-GB,en;q=0.9,en-US;q=0.8,zu;q=0.7,es;q=0.6","6129dca465e41b5ae1b262da","683dba2a8a9dda3513610c04","68812a653787c92c0fe1178f","3","0","6129dca465e41b5ae1b262da","3","0","2025-07-23T18:34:10.659Z","","","","","","","","","","","AttribQ","","50","","","","","","","","","","","","","","","","","","","","","","","","","","","","",""
"3944","","<div style=""width:500px;"">
  <p>How much control did you have over the ball?</p>
  </div>","100","html-slider-response","11","162467","0.0-5.0-2.0","230","1","2025-07-23 18:31:30","1f75c3e559b7213887762d5229550c2b","105.1.85.247","Mozilla/5.0 (Windows NT 10.0; Win64; x64) AppleWebKit/537.36 (KHTML, like Gecko) Chrome/138.0.0.0 Safari/537.36","WebKit","Chrome","138.0.0.0","Windows","10.0","https://app.prolific.com/","en-GB,en;q=0.9,en-US;q=0.8,zu;q=0.7,es;q=0.6","6129dca465e41b5ae1b262da","683dba2a8a9dda3513610c04","68812a653787c92c0fe1178f","3","0","6129dca465e41b5ae1b262da","3","0","2025-07-23T18:34:14.605Z","","","","","","","","","","","ControlQ","","50","","","","","","","","","","","","","","","","","","","","","","","","","","","","",""
"4169","","<div style=""width:500px;"">
  <p>How would you describe your current emotional state?</p>
  </div>","0","html-slider-response","12","166639","0.0-5.0-3.0","230","1","2025-07-23 18:31:30","1f75c3e559b7213887762d5229550c2b","105.1.85.247","Mozilla/5.0 (Windows NT 10.0; Win64; x64) AppleWebKit/537.36 (KHTML, like Gecko) Chrome/138.0.0.0 Safari/537.36","WebKit","Chrome","138.0.0.0","Windows","10.0","https://app.prolific.com/","en-GB,en;q=0.9,en-US;q=0.8,zu;q=0.7,es;q=0.6","6129dca465e41b5ae1b262da","683dba2a8a9dda3513610c04","68812a653787c92c0fe1178f","3","0","6129dca465e41b5ae1b262da","3","0","2025-07-23T18:34:18.776Z","","","","","","","","","","","StressQ","","50","","","","","","","","","","","","","","","","","","","","","","","","","","","","",""
"3638","","<div style=""width:500px;"">
  <p>What best describes how you currently feel?</p>
  </div>","100","html-slider-response","13","170278","0.0-5.0-4.0","230","1","2025-07-23 18:31:30","1f75c3e559b7213887762d5229550c2b","105.1.85.247","Mozilla/5.0 (Windows NT 10.0; Win64; x64) AppleWebKit/537.36 (KHTML, like Gecko) Chrome/138.0.0.0 Safari/537.36","WebKit","Chrome","138.0.0.0","Windows","10.0","https://app.prolific.com/","en-GB,en;q=0.9,en-US;q=0.8,zu;q=0.7,es;q=0.6","6129dca465e41b5ae1b262da","683dba2a8a9dda3513610c04","68812a653787c92c0fe1178f","3","0","6129dca465e41b5ae1b262da","3","0","2025-07-23T18:34:22.415Z","","","","","","","","","","","MotivationQ","","50","","","","","","","","","","","","","","","","","","","","","","","","","","","","",""
"","","","","ctl-task-cpt","14","205670","0.0-5.0-0.1","230","1","2025-07-23 18:31:30","1f75c3e559b7213887762d5229550c2b","105.1.85.247","Mozilla/5.0 (Windows NT 10.0; Win64; x64) AppleWebKit/537.36 (KHTML, like Gecko) Chrome/138.0.0.0 Safari/537.36","WebKit","Chrome","138.0.0.0","Windows","10.0","https://app.prolific.com/","en-GB,en;q=0.9,en-US;q=0.8,zu;q=0.7,es;q=0.6","6129dca465e41b5ae1b262da","683dba2a8a9dda3513610c04","68812a653787c92c0fe1178f","3","0","6129dca465e41b5ae1b262da","3","0","2025-07-23T18:34:57.807Z","","","","","","","","","","","","","","win-only","2","g1:SE,g2:NW","0.9","2","0","172664.1","2294.7","7304","32380.8","1","4","4","6","2","4","4","12","8","0.09090909090909091","1968.8","3000","595","[""left"",""up""]","{""num_key_presses"":8,""num_perfect"":7,""num_errors"":0,""num_randdir"":1,""num_randdir_good_moves"":0,""num_whilered"":0,""num_whileblue"":0,""num_blue"":1,""num_good_moves"":7}","[300.22232142857143,299.12857142857143,0.8,300.22232142857143,299.12857142857143,106.4,300.22232142857143,299.12857142857143,207,300.22232142857143,299.12857142857143,310.1,300.22232142857143,299.12857142857143,410.8,300.22232142857143,299.12857142857143,515.1,300.22232142857143,299.12857142857143,622.6,300.22232142857143,299.12857142857143,725.7,300.22232142857143,299.12857142857143,830.4,300.22232142857143,299.12857142857143,932.2,300.22232142857143,299.12857142857143,1056.4,260.22232142857143,274.12857142857143,1165.7,162.22232142857143,193.12857142857143,1268.9,97.22232142857143,98.12857142857143,1533.7,78.22232142857143,75.12857142857143,1638.9,70.22232142857143,70.12857142857143,1743.6,70.22232142857143,70.12857142857143,1844.8,70.22232142857143,70.12857142857143,1951.3,70.22232142857143,70.12857142857143,2053.3,70.22232142857143,70.12857142857143,2157,70.22232142857143,70.12857142857143,2259.2,70.22232142857143,70.12857142857143,2361.7,70.22232142857143,70.12857142857143,2462.9,70.22232142857143,70.12857142857143,2567,70.22232142857143,70.12857142857143,2670.2,70.22232142857143,70.12857142857143,2774.8,70.22232142857143,70.12857142857143,2878.7,70.22232142857143,70.12857142857143,2983.6,70.22232142857143,70.12857142857143,3087.4,70.22232142857143,70.12857142857143,3193.6,70.22232142857143,70.12857142857143,3296.8,70.22232142857143,70.12857142857143,3397.5,70.22232142857143,70.12857142857143,3508.2,70.22232142857143,70.12857142857143,3610.1,70.22232142857143,70.12857142857143,3711.1,70.22232142857143,70.12857142857143,3819.4,70.22232142857143,70.12857142857143,3924.6,70.22232142857143,70.12857142857143,4025.4,70.22232142857143,70.12857142857143,4126.7,70.22232142857143,70.12857142857143,4228,70.22232142857143,70.12857142857143,4333.2,70.22232142857143,70.12857142857143,4433.9,70.22232142857143,70.12857142857143,4537.5,70.22232142857143,70.12857142857143,4642.2,70.22232142857143,70.12857142857143,4743.6,70.22232142857143,70.12857142857143,4850.5,70.22232142857143,70.12857142857143,4951.9]","[1653.8,1653.8,1000,0,653.8,""smooth"",""left"",""left"",""good_move"",4098.4,2443.6,1927.5,1654.8,516.1,""smooth"",""left"",""left"",""good_move"",6198.5,2099.3,1682.8,4099.2,416.5,""oops"",""left"",""down"",""bad_move"",8723.7,2524.3,2139.3,6199.5,385,""smooth"",""left"",""left"",""good_move"",11221.1,2496.3,2099.3,8724.8,397,""smooth"",""up"",""up"",""good_move"",18439.3,7216.4,2236,15833,370.3,""smooth"",""up"",""up"",""good_move"",21386.4,2915.1,2490.3,18471.4,424.7,""smooth"",""up"",""up"",""good_move"",24963,3575,3164,21388,411,""smooth"",""up"",""up"",""good_move""]","",""
"3815","","<div style=""width:500px;"">
  <p>What determined the result of this run?</p>
  </div>","100","html-slider-response","15","209487","0.0-5.0-1.1","230","1","2025-07-23 18:31:30","1f75c3e559b7213887762d5229550c2b","105.1.85.247","Mozilla/5.0 (Windows NT 10.0; Win64; x64) AppleWebKit/537.36 (KHTML, like Gecko) Chrome/138.0.0.0 Safari/537.36","WebKit","Chrome","138.0.0.0","Windows","10.0","https://app.prolific.com/","en-GB,en;q=0.9,en-US;q=0.8,zu;q=0.7,es;q=0.6","6129dca465e41b5ae1b262da","683dba2a8a9dda3513610c04","68812a653787c92c0fe1178f","3","0","6129dca465e41b5ae1b262da","3","0","2025-07-23T18:35:01.624Z","","","","","","","","","","","AttribQ","","50","","","","","","","","","","","","","","","","","","","","","","","","","","","","",""
"4415","","<div style=""width:500px;"">
  <p>How much control did you have over the ball?</p>
  </div>","96","html-slider-response","16","213903","0.0-5.0-2.1","230","1","2025-07-23 18:31:30","1f75c3e559b7213887762d5229550c2b","105.1.85.247","Mozilla/5.0 (Windows NT 10.0; Win64; x64) AppleWebKit/537.36 (KHTML, like Gecko) Chrome/138.0.0.0 Safari/537.36","WebKit","Chrome","138.0.0.0","Windows","10.0","https://app.prolific.com/","en-GB,en;q=0.9,en-US;q=0.8,zu;q=0.7,es;q=0.6","6129dca465e41b5ae1b262da","683dba2a8a9dda3513610c04","68812a653787c92c0fe1178f","3","0","6129dca465e41b5ae1b262da","3","0","2025-07-23T18:35:06.041Z","","","","","","","","","","","ControlQ","","50","","","","","","","","","","","","","","","","","","","","","","","","","","","","",""
"3188","","<div style=""width:500px;"">
  <p>How would you describe your current emotional state?</p>
  </div>","0","html-slider-response","17","217094","0.0-5.0-3.1","230","1","2025-07-23 18:31:30","1f75c3e559b7213887762d5229550c2b","105.1.85.247","Mozilla/5.0 (Windows NT 10.0; Win64; x64) AppleWebKit/537.36 (KHTML, like Gecko) Chrome/138.0.0.0 Safari/537.36","WebKit","Chrome","138.0.0.0","Windows","10.0","https://app.prolific.com/","en-GB,en;q=0.9,en-US;q=0.8,zu;q=0.7,es;q=0.6","6129dca465e41b5ae1b262da","683dba2a8a9dda3513610c04","68812a653787c92c0fe1178f","3","0","6129dca465e41b5ae1b262da","3","0","2025-07-23T18:35:09.231Z","","","","","","","","","","","StressQ","","50","","","","","","","","","","","","","","","","","","","","","","","","","","","","",""
"3833","","<div style=""width:500px;"">
  <p>What best describes how you currently feel?</p>
  </div>","100","html-slider-response","18","220929","0.0-5.0-4.1","230","1","2025-07-23 18:31:30","1f75c3e559b7213887762d5229550c2b","105.1.85.247","Mozilla/5.0 (Windows NT 10.0; Win64; x64) AppleWebKit/537.36 (KHTML, like Gecko) Chrome/138.0.0.0 Safari/537.36","WebKit","Chrome","138.0.0.0","Windows","10.0","https://app.prolific.com/","en-GB,en;q=0.9,en-US;q=0.8,zu;q=0.7,es;q=0.6","6129dca465e41b5ae1b262da","683dba2a8a9dda3513610c04","68812a653787c92c0fe1178f","3","0","6129dca465e41b5ae1b262da","3","0","2025-07-23T18:35:13.066Z","","","","","","","","","","","MotivationQ","","50","","","","","","","","","","","","","","","","","","","","","","","","","","","","",""
"","","","","ctl-task-cpt","19","247453","0.0-5.0-0.2","230","1","2025-07-23 18:31:30","1f75c3e559b7213887762d5229550c2b","105.1.85.247","Mozilla/5.0 (Windows NT 10.0; Win64; x64) AppleWebKit/537.36 (KHTML, like Gecko) Chrome/138.0.0.0 Safari/537.36","WebKit","Chrome","138.0.0.0","Windows","10.0","https://app.prolific.com/","en-GB,en;q=0.9,en-US;q=0.8,zu;q=0.7,es;q=0.6","6129dca465e41b5ae1b262da","683dba2a8a9dda3513610c04","68812a653787c92c0fe1178f","3","0","6129dca465e41b5ae1b262da","3","0","2025-07-23T18:35:39.590Z","","","","","","","","","","","","","","win-only","2","g1:SE,g2:NW","0.8","3","0","223321.8","2835.9","7841.7","23511.7","1","4","4","6","2","4","4","16","12","0.12121212121212122","1617.2","3000","1255","[""left"",""up""]","{""num_key_presses"":6,""num_perfect"":5,""num_errors"":0,""num_randdir"":1,""num_randdir_good_moves"":1,""num_whilered"":0,""num_whileblue"":0,""num_blue"":0,""num_good_moves"":6}","[298.22232142857143,296.12857142857143,0.5,298.22232142857143,296.12857142857143,104.8,298.22232142857143,296.12857142857143,209.4,298.22232142857143,296.12857142857143,310.3,298.22232142857143,296.12857142857143,419.7,298.22232142857143,296.12857142857143,522.5,298.22232142857143,296.12857142857143,626.1,298.22232142857143,296.12857142857143,729.7,298.22232142857143,296.12857142857143,838.2,203.22232142857143,237.12857142857143,949,70.22232142857143,116.12857142857143,1049.5,47.222321428571426,96.12857142857143,1150.6,43.222321428571426,92.12857142857143,1254.5,42.222321428571426,91.12857142857143,1354.9,42.222321428571426,91.12857142857143,1457.5,42.222321428571426,91.12857142857143,1559.1,42.222321428571426,91.12857142857143,1662.6,42.222321428571426,91.12857142857143,1764.6,42.222321428571426,91.12857142857143,1870.6,42.222321428571426,91.12857142857143,1972.9,42.222321428571426,91.12857142857143,2077.3,42.222321428571426,91.12857142857143,2180.3,42.222321428571426,91.12857142857143,2280.7,42.222321428571426,91.12857142857143,2389.7,42.222321428571426,91.12857142857143,2492.4,42.222321428571426,91.12857142857143,2612.6,42.222321428571426,91.12857142857143,2717.3,42.222321428571426,91.12857142857143,2821.5,42.222321428571426,91.12857142857143,2921.9,42.222321428571426,91.12857142857143,3026.7,42.222321428571426,91.12857142857143,3129.6,42.222321428571426,91.12857142857143,3233.9,42.222321428571426,91.12857142857143,3337.1,42.222321428571426,91.12857142857143,3438,42.222321428571426,91.12857142857143,3538.8,42.222321428571426,91.12857142857143,3645.8,42.222321428571426,91.12857142857143,3747.2,42.222321428571426,91.12857142857143,3852.3,42.222321428571426,91.12857142857143,3959.5,42.222321428571426,91.12857142857143,4061.3,42.222321428571426,91.12857142857143,4166.2,42.222321428571426,91.12857142857143,4270.4,42.222321428571426,91.12857142857143,4375.8,42.222321428571426,91.12857142857143,4476.9,42.222321428571426,91.12857142857143,4581.3,42.222321428571426,91.12857142857143,4688.2,42.222321428571426,91.12857142857143,4789.5,42.222321428571426,91.12857142857143,4891.9,42.222321428571426,91.12857142857143,4995.3]","[1453.1,1453.1,1000,0,453.1,""smooth"",""up"",""up"",""good_move"",4837.8,3383.2,3019.9,1454.6,363.3,""oops"",""up"",""up"",""good_move"",7597.7,2755.3,2334.1,4842.4,421.2,""smooth"",""up"",""up"",""good_move"",10244.3,2644.7,2267.9,7599.6,376.8,""smooth"",""left"",""left"",""good_move"",12872.8,2627.2,2234.7,10245.6,392.6,""smooth"",""left"",""left"",""good_move"",15546.1,2670.5,2295.8,12875.6,374.7,""smooth"",""left"",""left"",""good_move""]","",""
"3901","","<div style=""width:500px;"">
  <p>What determined the result of this run?</p>
  </div>","100","html-slider-response","20","251360","0.0-5.0-1.2","230","1","2025-07-23 18:31:30","1f75c3e559b7213887762d5229550c2b","105.1.85.247","Mozilla/5.0 (Windows NT 10.0; Win64; x64) AppleWebKit/537.36 (KHTML, like Gecko) Chrome/138.0.0.0 Safari/537.36","WebKit","Chrome","138.0.0.0","Windows","10.0","https://app.prolific.com/","en-GB,en;q=0.9,en-US;q=0.8,zu;q=0.7,es;q=0.6","6129dca465e41b5ae1b262da","683dba2a8a9dda3513610c04","68812a653787c92c0fe1178f","3","0","6129dca465e41b5ae1b262da","3","0","2025-07-23T18:35:43.497Z","","","","","","","","","","","AttribQ","","50","","","","","","","","","","","","","","","","","","","","","","","","","","","","",""
"3363","","<div style=""width:500px;"">
  <p>How much control did you have over the ball?</p>
  </div>","100","html-slider-response","21","254725","0.0-5.0-2.2","230","1","2025-07-23 18:31:30","1f75c3e559b7213887762d5229550c2b","105.1.85.247","Mozilla/5.0 (Windows NT 10.0; Win64; x64) AppleWebKit/537.36 (KHTML, like Gecko) Chrome/138.0.0.0 Safari/537.36","WebKit","Chrome","138.0.0.0","Windows","10.0","https://app.prolific.com/","en-GB,en;q=0.9,en-US;q=0.8,zu;q=0.7,es;q=0.6","6129dca465e41b5ae1b262da","683dba2a8a9dda3513610c04","68812a653787c92c0fe1178f","3","0","6129dca465e41b5ae1b262da","3","0","2025-07-23T18:35:46.862Z","","","","","","","","","","","ControlQ","","50","","","","","","","","","","","","","","","","","","","","","","","","","","","","",""
"3558","","<div style=""width:500px;"">
  <p>How would you describe your current emotional state?</p>
  </div>","0","html-slider-response","22","258284","0.0-5.0-3.2","230","1","2025-07-23 18:31:30","1f75c3e559b7213887762d5229550c2b","105.1.85.247","Mozilla/5.0 (Windows NT 10.0; Win64; x64) AppleWebKit/537.36 (KHTML, like Gecko) Chrome/138.0.0.0 Safari/537.36","WebKit","Chrome","138.0.0.0","Windows","10.0","https://app.prolific.com/","en-GB,en;q=0.9,en-US;q=0.8,zu;q=0.7,es;q=0.6","6129dca465e41b5ae1b262da","683dba2a8a9dda3513610c04","68812a653787c92c0fe1178f","3","0","6129dca465e41b5ae1b262da","3","0","2025-07-23T18:35:50.421Z","","","","","","","","","","","StressQ","","50","","","","","","","","","","","","","","","","","","","","","","","","","","","","",""
"4309","","<div style=""width:500px;"">
  <p>What best describes how you currently feel?</p>
  </div>","100","html-slider-response","23","262595","0.0-5.0-4.2","230","1","2025-07-23 18:31:30","1f75c3e559b7213887762d5229550c2b","105.1.85.247","Mozilla/5.0 (Windows NT 10.0; Win64; x64) AppleWebKit/537.36 (KHTML, like Gecko) Chrome/138.0.0.0 Safari/537.36","WebKit","Chrome","138.0.0.0","Windows","10.0","https://app.prolific.com/","en-GB,en;q=0.9,en-US;q=0.8,zu;q=0.7,es;q=0.6","6129dca465e41b5ae1b262da","683dba2a8a9dda3513610c04","68812a653787c92c0fe1178f","3","0","6129dca465e41b5ae1b262da","3","0","2025-07-23T18:35:54.733Z","","","","","","","","","","","MotivationQ","","50","","","","","","","","","","","","","","","","","","","","","","","","","","","","",""
"","","","","ctl-task-cpt","24","296403","0.0-5.0-0.3","230","1","2025-07-23 18:31:30","1f75c3e559b7213887762d5229550c2b","105.1.85.247","Mozilla/5.0 (Windows NT 10.0; Win64; x64) AppleWebKit/537.36 (KHTML, like Gecko) Chrome/138.0.0.0 Safari/537.36","WebKit","Chrome","138.0.0.0","Windows","10.0","https://app.prolific.com/","en-GB,en;q=0.9,en-US;q=0.8,zu;q=0.7,es;q=0.6","6129dca465e41b5ae1b262da","683dba2a8a9dda3513610c04","68812a653787c92c0fe1178f","3","0","6129dca465e41b5ae1b262da","3","0","2025-07-23T18:36:28.540Z","","","","","","","","","","","","","","win-only","2","g1:SE,g2:NW","0.7","4","0","264982.6","1515.5","6518.8","30791.6","1","4","8","6","2","8","8","24","16","0.18181818181818182","1487.8","3000","1305","[""left"",""up""]","{""num_key_presses"":6,""num_perfect"":4,""num_errors"":0,""num_randdir"":2,""num_randdir_good_moves"":2,""num_whilered"":0,""num_whileblue"":0,""num_blue"":2,""num_good_moves"":6}","[296.22232142857143,302.12857142857143,1,296.22232142857143,302.12857142857143,104.1,296.22232142857143,302.12857142857143,209.6,296.22232142857143,302.12857142857143,313.8,296.22232142857143,302.12857142857143,417.7,296.22232142857143,302.12857142857143,518,296.22232142857143,302.12857142857143,623.2,296.22232142857143,302.12857142857143,736.6,280.22232142857143,291.12857142857143,849.9,115.22232142857143,119.12857142857143,951.6,66.22232142857143,65.12857142857143,1056,54.222321428571426,56.128571428571426,1164.2,54.222321428571426,56.128571428571426,1278.8,54.222321428571426,56.128571428571426,1389.3,54.222321428571426,56.128571428571426,1497.6,54.222321428571426,56.128571428571426,1598.3,54.222321428571426,56.128571428571426,1702.8,54.222321428571426,56.128571428571426,1804.3,54.222321428571426,56.128571428571426,1907.7,54.222321428571426,56.128571428571426,2021.8,54.222321428571426,56.128571428571426,2122.2,54.222321428571426,56.128571428571426,2223.7,54.222321428571426,56.128571428571426,2334.2,54.222321428571426,56.128571428571426,2436.5,54.222321428571426,56.128571428571426,2539,54.222321428571426,56.128571428571426,2640.3,54.222321428571426,56.128571428571426,2748.1,54.222321428571426,56.128571428571426,2851.3,54.222321428571426,56.128571428571426,2952.4,54.222321428571426,56.128571428571426,3055.2,54.222321428571426,56.128571428571426,3156.5,54.222321428571426,56.128571428571426,3256.5,54.222321428571426,56.128571428571426,3370,54.222321428571426,56.128571428571426,3472.3,54.222321428571426,56.128571428571426,3578,54.222321428571426,56.128571428571426,3683.2,54.222321428571426,56.128571428571426,3793.6,54.222321428571426,56.128571428571426,3899.9,54.222321428571426,56.128571428571426,4003.5,54.222321428571426,56.128571428571426,4110.1,54.222321428571426,56.128571428571426,4216.8,54.222321428571426,56.128571428571426,4324.3,54.222321428571426,56.128571428571426,4427,54.222321428571426,56.128571428571426,4532.5,54.222321428571426,56.128571428571426,4635.3,54.222321428571426,56.128571428571426,4742.4,54.222321428571426,56.128571428571426,4842.4,54.222321428571426,56.128571428571426,4949.3]","[1356.1,1356.1,1000,0,356.1,""oops"",""left"",""left"",""good_move"",4483.4,3124.3,2703,1359.1,421.3,""smooth"",""left"",""left"",""good_move"",10116.5,5631.6,2648.4,7071.7,396.4,""smooth"",""left"",""left"",""good_move"",13481.3,3364.2,2910.7,10117.1,453.5,""smooth"",""up"",""up"",""good_move"",16742.8,3259.9,2837,13483,422.9,""smooth"",""up"",""up"",""good_move"",24121.5,7377.7,2668.6,20968,484.9,""oops"",""up"",""up"",""good_move""]","",""
"4138","","<div style=""width:500px;"">
  <p>What determined the result of this run?</p>
  </div>","100","html-slider-response","25","300544","0.0-5.0-1.3","230","1","2025-07-23 18:31:30","1f75c3e559b7213887762d5229550c2b","105.1.85.247","Mozilla/5.0 (Windows NT 10.0; Win64; x64) AppleWebKit/537.36 (KHTML, like Gecko) Chrome/138.0.0.0 Safari/537.36","WebKit","Chrome","138.0.0.0","Windows","10.0","https://app.prolific.com/","en-GB,en;q=0.9,en-US;q=0.8,zu;q=0.7,es;q=0.6","6129dca465e41b5ae1b262da","683dba2a8a9dda3513610c04","68812a653787c92c0fe1178f","3","0","6129dca465e41b5ae1b262da","3","0","2025-07-23T18:36:32.681Z","","","","","","","","","","","AttribQ","","50","","","","","","","","","","","","","","","","","","","","","","","","","","","","",""
"5013","","<div style=""width:500px;"">
  <p>How much control did you have over the ball?</p>
  </div>","100","html-slider-response","26","305558","0.0-5.0-2.3","230","1","2025-07-23 18:31:30","1f75c3e559b7213887762d5229550c2b","105.1.85.247","Mozilla/5.0 (Windows NT 10.0; Win64; x64) AppleWebKit/537.36 (KHTML, like Gecko) Chrome/138.0.0.0 Safari/537.36","WebKit","Chrome","138.0.0.0","Windows","10.0","https://app.prolific.com/","en-GB,en;q=0.9,en-US;q=0.8,zu;q=0.7,es;q=0.6","6129dca465e41b5ae1b262da","683dba2a8a9dda3513610c04","68812a653787c92c0fe1178f","3","0","6129dca465e41b5ae1b262da","3","0","2025-07-23T18:36:37.695Z","","","","","","","","","","","ControlQ","","50","","","","","","","","","","","","","","","","","","","","","","","","","","","","",""
"3376","","<div style=""width:500px;"">
  <p>How would you describe your current emotional state?</p>
  </div>","0","html-slider-response","27","308936","0.0-5.0-3.3","230","1","2025-07-23 18:31:30","1f75c3e559b7213887762d5229550c2b","105.1.85.247","Mozilla/5.0 (Windows NT 10.0; Win64; x64) AppleWebKit/537.36 (KHTML, like Gecko) Chrome/138.0.0.0 Safari/537.36","WebKit","Chrome","138.0.0.0","Windows","10.0","https://app.prolific.com/","en-GB,en;q=0.9,en-US;q=0.8,zu;q=0.7,es;q=0.6","6129dca465e41b5ae1b262da","683dba2a8a9dda3513610c04","68812a653787c92c0fe1178f","3","0","6129dca465e41b5ae1b262da","3","0","2025-07-23T18:36:41.074Z","","","","","","","","","","","StressQ","","50","","","","","","","","","","","","","","","","","","","","","","","","","","","","",""
"2793","","<div style=""width:500px;"">
  <p>What best describes how you currently feel?</p>
  </div>","100","html-slider-response","28","311731","0.0-5.0-4.3","230","1","2025-07-23 18:31:30","1f75c3e559b7213887762d5229550c2b","105.1.85.247","Mozilla/5.0 (Windows NT 10.0; Win64; x64) AppleWebKit/537.36 (KHTML, like Gecko) Chrome/138.0.0.0 Safari/537.36","WebKit","Chrome","138.0.0.0","Windows","10.0","https://app.prolific.com/","en-GB,en;q=0.9,en-US;q=0.8,zu;q=0.7,es;q=0.6","6129dca465e41b5ae1b262da","683dba2a8a9dda3513610c04","68812a653787c92c0fe1178f","3","0","6129dca465e41b5ae1b262da","3","0","2025-07-23T18:36:43.868Z","","","","","","","","","","","MotivationQ","","50","","","","","","","","","","","","","","","","","","","","","","","","","","","","",""
"","","","","ctl-task-cpt","29","359496","0.0-5.0-0.4","230","1","2025-07-23 18:31:30","1f75c3e559b7213887762d5229550c2b","105.1.85.247","Mozilla/5.0 (Windows NT 10.0; Win64; x64) AppleWebKit/537.36 (KHTML, like Gecko) Chrome/138.0.0.0 Safari/537.36","WebKit","Chrome","138.0.0.0","Windows","10.0","https://app.prolific.com/","en-GB,en;q=0.9,en-US;q=0.8,zu;q=0.7,es;q=0.6","6129dca465e41b5ae1b262da","683dba2a8a9dda3513610c04","68812a653787c92c0fe1178f","3","0","6129dca465e41b5ae1b262da","3","0","2025-07-23T18:37:31.633Z","","","","","","","","","","","","","","win-only","0","g1:NW,g2:SE","0.6","5","0","314118.2","1790.7","6804.3","44748.1","1","4","4","6","2","-4","-4","20","24","0.15151515151515152","1746.6","3000","-2065","[""down"",""right""]","{""num_key_presses"":10,""num_perfect"":6,""num_errors"":0,""num_randdir"":4,""num_randdir_good_moves"":1,""num_whilered"":0,""num_whileblue"":0,""num_blue"":2,""num_good_moves"":7}","[294.22232142857143,299.12857142857143,0.5,294.22232142857143,299.12857142857143,108.5,294.22232142857143,299.12857142857143,222.2,294.22232142857143,299.12857142857143,323.3,294.22232142857143,299.12857142857143,424.2,294.22232142857143,299.12857142857143,524.1,294.22232142857143,299.12857142857143,625.9,294.22232142857143,299.12857142857143,727,294.22232142857143,299.12857142857143,847,334.22232142857143,319.12857142857143,947.8,463.22232142857143,398.12857142857143,1050.5,534.2223214285714,466.12857142857143,1157.9,555.2223214285714,497.12857142857143,1259.8,559.2223214285714,511.12857142857143,1361.2,560.2223214285714,520.1285714285714,1461.7,560.2223214285714,524.1285714285714,1562.4,560.2223214285714,524.1285714285714,1663.8,560.2223214285714,524.1285714285714,1763.9,560.2223214285714,524.1285714285714,1873.3,560.2223214285714,524.1285714285714,1974.9,560.2223214285714,524.1285714285714,2077,560.2223214285714,524.1285714285714,2179.2,560.2223214285714,524.1285714285714,2280.3,560.2223214285714,524.1285714285714,2385,560.2223214285714,524.1285714285714,2496.7,560.2223214285714,524.1285714285714,2609.3,560.2223214285714,524.1285714285714,2710,560.2223214285714,524.1285714285714,2811,560.2223214285714,524.1285714285714,2918.4,560.2223214285714,524.1285714285714,3019.1,560.2223214285714,524.1285714285714,3121,560.2223214285714,524.1285714285714,3225.1,560.2223214285714,524.1285714285714,3336.8,560.2223214285714,524.1285714285714,3441.4,560.2223214285714,524.1285714285714,3544.9,560.2223214285714,524.1285714285714,3650.4,560.2223214285714,524.1285714285714,3758.2,560.2223214285714,524.1285714285714,3858.2,560.2223214285714,524.1285714285714,3959.1,560.2223214285714,524.1285714285714,4059.1,560.2223214285714,524.1285714285714,4160.8,560.2223214285714,524.1285714285714,4267,560.2223214285714,524.1285714285714,4368.2,560.2223214285714,524.1285714285714,4470.4,560.2223214285714,524.1285714285714,4577.2,560.2223214285714,524.1285714285714,4687.9,560.2223214285714,524.1285714285714,4796.1,560.2223214285714,524.1285714285714,4896.9]","[1493.9,1494,1000,0,494,""oops"",""down"",""left"",""bad_move"",4648.3,3152.9,2741.7,1495.4,411.2,""oops"",""down"",""up"",""bad_move"",7821.7,3169.8,2809.5,4651.9,360.3,""smooth"",""down"",""down"",""good_move"",11236.1,3413.3,3008.4,7822.9,404.9,""smooth"",""down"",""down"",""good_move"",14097.2,2859.8,2386,11237.4,473.8,""smooth"",""down"",""down"",""good_move"",16623.6,2525.4,2118.7,14098.2,406.7,""smooth"",""down"",""down"",""good_move"",19611,2986.5,2576.3,16624.5,410.2,""smooth"",""right"",""right"",""good_move"",28449.1,8837,1491.9,26512.6,444.7,""smooth"",""right"",""right"",""good_move"",31561.1,3111.3,2658.2,28449.8,453.1,""oops"",""right"",""up"",""bad_move"",35124.4,3562.2,3140.7,31562.2,421.5,""oops"",""right"",""down"",""good_move""]","",""
"4385","","<div style=""width:500px;"">
  <p>What determined the result of this run?</p>
  </div>","0","html-slider-response","30","363883","0.0-5.0-1.4","230","1","2025-07-23 18:31:30","1f75c3e559b7213887762d5229550c2b","105.1.85.247","Mozilla/5.0 (Windows NT 10.0; Win64; x64) AppleWebKit/537.36 (KHTML, like Gecko) Chrome/138.0.0.0 Safari/537.36","WebKit","Chrome","138.0.0.0","Windows","10.0","https://app.prolific.com/","en-GB,en;q=0.9,en-US;q=0.8,zu;q=0.7,es;q=0.6","6129dca465e41b5ae1b262da","683dba2a8a9dda3513610c04","68812a653787c92c0fe1178f","3","0","6129dca465e41b5ae1b262da","3","0","2025-07-23T18:37:36.020Z","","","","","","","","","","","AttribQ","","50","","","","","","","","","","","","","","","","","","","","","","","","","","","","",""
"5769","","<div style=""width:500px;"">
  <p>How much control did you have over the ball?</p>
  </div>","45","html-slider-response","31","369654","0.0-5.0-2.4","230","1","2025-07-23 18:31:30","1f75c3e559b7213887762d5229550c2b","105.1.85.247","Mozilla/5.0 (Windows NT 10.0; Win64; x64) AppleWebKit/537.36 (KHTML, like Gecko) Chrome/138.0.0.0 Safari/537.36","WebKit","Chrome","138.0.0.0","Windows","10.0","https://app.prolific.com/","en-GB,en;q=0.9,en-US;q=0.8,zu;q=0.7,es;q=0.6","6129dca465e41b5ae1b262da","683dba2a8a9dda3513610c04","68812a653787c92c0fe1178f","3","0","6129dca465e41b5ae1b262da","3","0","2025-07-23T18:37:41.791Z","","","","","","","","","","","ControlQ","","50","","","","","","","","","","","","","","","","","","","","","","","","","","","","",""
"3201","","<div style=""width:500px;"">
  <p>How would you describe your current emotional state?</p>
  </div>","0","html-slider-response","32","372859","0.0-5.0-3.4","230","1","2025-07-23 18:31:30","1f75c3e559b7213887762d5229550c2b","105.1.85.247","Mozilla/5.0 (Windows NT 10.0; Win64; x64) AppleWebKit/537.36 (KHTML, like Gecko) Chrome/138.0.0.0 Safari/537.36","WebKit","Chrome","138.0.0.0","Windows","10.0","https://app.prolific.com/","en-GB,en;q=0.9,en-US;q=0.8,zu;q=0.7,es;q=0.6","6129dca465e41b5ae1b262da","683dba2a8a9dda3513610c04","68812a653787c92c0fe1178f","3","0","6129dca465e41b5ae1b262da","3","0","2025-07-23T18:37:44.996Z","","","","","","","","","","","StressQ","","50","","","","","","","","","","","","","","","","","","","","","","","","","","","","",""
"2926","","<div style=""width:500px;"">
  <p>What best describes how you currently feel?</p>
  </div>","100","html-slider-response","33","375787","0.0-5.0-4.4","230","1","2025-07-23 18:31:30","1f75c3e559b7213887762d5229550c2b","105.1.85.247","Mozilla/5.0 (Windows NT 10.0; Win64; x64) AppleWebKit/537.36 (KHTML, like Gecko) Chrome/138.0.0.0 Safari/537.36","WebKit","Chrome","138.0.0.0","Windows","10.0","https://app.prolific.com/","en-GB,en;q=0.9,en-US;q=0.8,zu;q=0.7,es;q=0.6","6129dca465e41b5ae1b262da","683dba2a8a9dda3513610c04","68812a653787c92c0fe1178f","3","0","6129dca465e41b5ae1b262da","3","0","2025-07-23T18:37:47.924Z","","","","","","","","","","","MotivationQ","","50","","","","","","","","","","","","","","","","","","","","","","","","","","","","",""
"","","","","ctl-task-cpt","34","428392","0.0-5.0-0.5","230","1","2025-07-23 18:31:30","1f75c3e559b7213887762d5229550c2b","105.1.85.247","Mozilla/5.0 (Windows NT 10.0; Win64; x64) AppleWebKit/537.36 (KHTML, like Gecko) Chrome/138.0.0.0 Safari/537.36","WebKit","Chrome","138.0.0.0","Windows","10.0","https://app.prolific.com/","en-GB,en;q=0.9,en-US;q=0.8,zu;q=0.7,es;q=0.6","6129dca465e41b5ae1b262da","683dba2a8a9dda3513610c04","68812a653787c92c0fe1178f","3","0","6129dca465e41b5ae1b262da","3","0","2025-07-23T18:38:40.529Z","","","","","","","","","","","","","","win-only","0","g1:NW,g2:SE","0.5","6","0","378174","1484.4","6494.6","49582","1","4","8","6","2","-8","-9","11","20","0.08333333333333333","1584.7","3000","-2005","[""down"",""right""]","{""num_key_presses"":12,""num_perfect"":5,""num_errors"":1,""num_randdir"":6,""num_randdir_good_moves"":2,""num_whilered"":0,""num_whileblue"":1,""num_blue"":3,""num_good_moves"":7}","[296.22232142857143,293.12857142857143,0.1,296.22232142857143,293.12857142857143,101.5,296.22232142857143,293.12857142857143,206.3,296.22232142857143,293.12857142857143,316.4,296.22232142857143,293.12857142857143,418.9,296.22232142857143,293.12857142857143,534,296.22232142857143,293.12857142857143,650.8,296.22232142857143,293.12857142857143,754.4,430.22232142857143,393.12857142857143,858.5,518.2223214285714,492.12857142857143,964.5,523.2223214285714,499.12857142857143,1065.1,520.2223214285714,506.12857142857143,1169.9,521.2223214285714,526.1285714285714,1276.4,528.2223214285714,532.1285714285714,1383.3,528.2223214285714,532.1285714285714,1484.2,528.2223214285714,532.1285714285714,1603.5,528.2223214285714,532.1285714285714,1709.2,528.2223214285714,532.1285714285714,1811.3,528.2223214285714,532.1285714285714,1913.3,528.2223214285714,532.1285714285714,2026.2,528.2223214285714,532.1285714285714,2131.5,528.2223214285714,532.1285714285714,2234.3,528.2223214285714,532.1285714285714,2337.4,528.2223214285714,532.1285714285714,2452.7,528.2223214285714,532.1285714285714,2557.4,528.2223214285714,532.1285714285714,2662.4,528.2223214285714,532.1285714285714,2765.1,528.2223214285714,532.1285714285714,2875.4,528.2223214285714,532.1285714285714,2983.9,528.2223214285714,532.1285714285714,3089.8,528.2223214285714,532.1285714285714,3206.1,528.2223214285714,532.1285714285714,3306.7,528.2223214285714,532.1285714285714,3409.8,528.2223214285714,532.1285714285714,3514.5,528.2223214285714,532.1285714285714,3617.1,528.2223214285714,532.1285714285714,3723.1,528.2223214285714,532.1285714285714,3825.7,528.2223214285714,532.1285714285714,3927.5,528.2223214285714,532.1285714285714,4038.7,528.2223214285714,532.1285714285714,4139.2,528.2223214285714,532.1285714285714,4243.2,528.2223214285714,532.1285714285714,4346.5,528.2223214285714,532.1285714285714,4446.7,528.2223214285714,532.1285714285714,4558.9,528.2223214285714,532.1285714285714,4663.7,528.2223214285714,532.1285714285714,4769.8,528.2223214285714,532.1285714285714,4879.9,528.2223214285714,532.1285714285714,4990.7]","[1376.7,1376.8,1000,0,376.8,""smooth"",""right"",""right"",""good_move"",4216.7,2838.8,2425.8,1378,413,""smooth"",""right"",""right"",""good_move"",6828.7,2610.5,2184.2,4218.2,426.3,""oops"",""right"",""up"",""bad_move"",9892.8,3062.6,2629,6830.2,433.6,""oops"",""right"",""up"",""bad_move"",12963.8,3069.9,2654.2,9893.9,415.7,""smooth"",""right"",""right"",""good_move"",16089.7,3124.1,2768.9,12965.6,355.2,""while_blue"",""down"",""left"",""bad_move"",18583.9,2490.9,2111.6,16093,379.3,""smooth"",""down"",""down"",""good_move"",24342.1,5757.1,2192,21671.1,479.1,""smooth"",""down"",""down"",""good_move"",29957.8,5614.4,1488.2,28036.6,433,""oops"",""down"",""up"",""bad_move"",34078.8,4120.3,3669.6,29958.6,450.7,""oops"",""down"",""right"",""good_move"",37025.2,2942.6,2507.7,34082.6,434.9,""oops"",""down"",""down"",""good_move"",40325.2,3297.7,2989.6,37027.5,308.1,""oops"",""down"",""left"",""bad_move""]","",""
"3250","","<div style=""width:500px;"">
  <p>What determined the result of this run?</p>
  </div>","0","html-slider-response","35","431644","0.0-5.0-1.5","230","1","2025-07-23 18:31:30","1f75c3e559b7213887762d5229550c2b","105.1.85.247","Mozilla/5.0 (Windows NT 10.0; Win64; x64) AppleWebKit/537.36 (KHTML, like Gecko) Chrome/138.0.0.0 Safari/537.36","WebKit","Chrome","138.0.0.0","Windows","10.0","https://app.prolific.com/","en-GB,en;q=0.9,en-US;q=0.8,zu;q=0.7,es;q=0.6","6129dca465e41b5ae1b262da","683dba2a8a9dda3513610c04","68812a653787c92c0fe1178f","3","0","6129dca465e41b5ae1b262da","3","0","2025-07-23T18:38:43.781Z","","","","","","","","","","","AttribQ","","50","","","","","","","","","","","","","","","","","","","","","","","","","","","","",""
"2676","","<div style=""width:500px;"">
  <p>How much control did you have over the ball?</p>
  </div>","21","html-slider-response","36","434323","0.0-5.0-2.5","230","1","2025-07-23 18:31:30","1f75c3e559b7213887762d5229550c2b","105.1.85.247","Mozilla/5.0 (Windows NT 10.0; Win64; x64) AppleWebKit/537.36 (KHTML, like Gecko) Chrome/138.0.0.0 Safari/537.36","WebKit","Chrome","138.0.0.0","Windows","10.0","https://app.prolific.com/","en-GB,en;q=0.9,en-US;q=0.8,zu;q=0.7,es;q=0.6","6129dca465e41b5ae1b262da","683dba2a8a9dda3513610c04","68812a653787c92c0fe1178f","3","0","6129dca465e41b5ae1b262da","3","0","2025-07-23T18:38:46.460Z","","","","","","","","","","","ControlQ","","50","","","","","","","","","","","","","","","","","","","","","","","","","","","","",""
"3372","","<div style=""width:500px;"">
  <p>How would you describe your current emotional state?</p>
  </div>","16","html-slider-response","37","437698","0.0-5.0-3.5","230","1","2025-07-23 18:31:30","1f75c3e559b7213887762d5229550c2b","105.1.85.247","Mozilla/5.0 (Windows NT 10.0; Win64; x64) AppleWebKit/537.36 (KHTML, like Gecko) Chrome/138.0.0.0 Safari/537.36","WebKit","Chrome","138.0.0.0","Windows","10.0","https://app.prolific.com/","en-GB,en;q=0.9,en-US;q=0.8,zu;q=0.7,es;q=0.6","6129dca465e41b5ae1b262da","683dba2a8a9dda3513610c04","68812a653787c92c0fe1178f","3","0","6129dca465e41b5ae1b262da","3","0","2025-07-23T18:38:49.835Z","","","","","","","","","","","StressQ","","50","","","","","","","","","","","","","","","","","","","","","","","","","","","","",""
"2745","","<div style=""width:500px;"">
  <p>What best describes how you currently feel?</p>
  </div>","63","html-slider-response","38","440445","0.0-5.0-4.5","230","1","2025-07-23 18:31:30","1f75c3e559b7213887762d5229550c2b","105.1.85.247","Mozilla/5.0 (Windows NT 10.0; Win64; x64) AppleWebKit/537.36 (KHTML, like Gecko) Chrome/138.0.0.0 Safari/537.36","WebKit","Chrome","138.0.0.0","Windows","10.0","https://app.prolific.com/","en-GB,en;q=0.9,en-US;q=0.8,zu;q=0.7,es;q=0.6","6129dca465e41b5ae1b262da","683dba2a8a9dda3513610c04","68812a653787c92c0fe1178f","3","0","6129dca465e41b5ae1b262da","3","0","2025-07-23T18:38:52.583Z","","","","","","","","","","","MotivationQ","","50","","","","","","","","","","","","","","","","","","","","","","","","","","","","",""
"","","","","ctl-task-cpt","39","490415","0.0-5.0-0.6","230","1","2025-07-23 18:31:30","1f75c3e559b7213887762d5229550c2b","105.1.85.247","Mozilla/5.0 (Windows NT 10.0; Win64; x64) AppleWebKit/537.36 (KHTML, like Gecko) Chrome/138.0.0.0 Safari/537.36","WebKit","Chrome","138.0.0.0","Windows","10.0","https://app.prolific.com/","en-GB,en;q=0.9,en-US;q=0.8,zu;q=0.7,es;q=0.6","6129dca465e41b5ae1b262da","683dba2a8a9dda3513610c04","68812a653787c92c0fe1178f","3","0","6129dca465e41b5ae1b262da","3","0","2025-07-23T18:39:42.552Z","","","","","","","","","","","","","","win-only","1","g1:NE,g2:SW","0.4","7","0","442832","1245.6","6255.7","46957","1","4","8","6","2","-8","-9","2","11","0.015151515151515152","1534.8","3000","-2050","[""down"",""left""]","{""num_key_presses"":12,""num_perfect"":4,""num_errors"":1,""num_randdir"":7,""num_randdir_good_moves"":2,""num_whilered"":0,""num_whileblue"":1,""num_blue"":2,""num_good_moves"":6}","[294.22232142857143,298.12857142857143,0.8,294.22232142857143,298.12857142857143,100.6,294.22232142857143,298.12857142857143,209.1,294.22232142857143,298.12857142857143,310.9,294.22232142857143,298.12857142857143,411.1,294.22232142857143,298.12857142857143,516.3,294.22232142857143,298.12857142857143,617.7,294.22232142857143,298.12857142857143,732.7,237.22232142857143,363.12857142857143,843,162.22232142857143,452.12857142857143,946.7,141.22232142857143,486.12857142857143,1047.4,110.22232142857143,512.1285714285714,1147.6,55.222321428571426,523.1285714285714,1252.7,48.222321428571426,523.1285714285714,1362.6,48.222321428571426,523.1285714285714,1468.4,48.222321428571426,523.1285714285714,1573.8,48.222321428571426,523.1285714285714,1717.3,48.222321428571426,523.1285714285714,1817.5,48.222321428571426,523.1285714285714,1924.7,48.222321428571426,523.1285714285714,2027,48.222321428571426,523.1285714285714,2128.7,48.222321428571426,523.1285714285714,2231,48.222321428571426,523.1285714285714,2333,48.222321428571426,523.1285714285714,2437.2,48.222321428571426,523.1285714285714,2546.4,48.222321428571426,523.1285714285714,2697.6,48.222321428571426,523.1285714285714,2807.7,48.222321428571426,523.1285714285714,2909.8,48.222321428571426,523.1285714285714,3027.5,48.222321428571426,523.1285714285714,3128.1,48.222321428571426,523.1285714285714,3240.5,48.222321428571426,523.1285714285714,3346.1,48.222321428571426,523.1285714285714,3448,48.222321428571426,523.1285714285714,3554.1,48.222321428571426,523.1285714285714,3657.1,48.222321428571426,523.1285714285714,3763,48.222321428571426,523.1285714285714,3864.3,48.222321428571426,523.1285714285714,3966,48.222321428571426,523.1285714285714,4080.1,48.222321428571426,523.1285714285714,4180.2,48.222321428571426,523.1285714285714,4280.3,48.222321428571426,523.1285714285714,4381.3,48.222321428571426,523.1285714285714,4484.5,48.222321428571426,523.1285714285714,4588.5,48.222321428571426,523.1285714285714,4697.9,48.222321428571426,523.1285714285714,4797.9,48.222321428571426,523.1285714285714,4901.5]","[1479,1479,1000,0,479,""smooth"",""down"",""down"",""good_move"",4581.8,3096.1,2642.6,1485.7,453.5,""oops"",""down"",""up"",""bad_move"",7650.1,3067,2657.4,4583.1,409.6,""smooth"",""down"",""down"",""good_move"",10430.3,2776.9,2379.9,7653.4,397,""oops"",""down"",""right"",""bad_move"",13038.3,2603.9,2211.2,10434.4,392.7,""oops"",""down"",""up"",""bad_move"",16514.2,3473.6,3115.1,13040.6,358.5,""while_blue"",""down"",""up"",""bad_move"",19616.1,3100.9,2713.1,16515.2,387.8,""smooth"",""down"",""down"",""good_move"",22711.3,3094,2683.3,19617.3,410.7,""oops"",""down"",""right"",""bad_move"",25162.7,2449.4,2057.9,22713.3,391.5,""smooth"",""down"",""down"",""good_move"",27926.3,2762.3,2395.9,25164,366.4,""oops"",""down"",""down"",""good_move"",30968.4,3041,2692.6,27927.4,348.4,""oops"",""down"",""left"",""good_move"",33886.3,2916.7,2514.2,30969.7,402.4,""oops"",""left"",""right"",""bad_move""]","",""
"3040","","<div style=""width:500px;"">
  <p>What determined the result of this run?</p>
  </div>","0","html-slider-response","40","493460","0.0-5.0-1.6","230","1","2025-07-23 18:31:30","1f75c3e559b7213887762d5229550c2b","105.1.85.247","Mozilla/5.0 (Windows NT 10.0; Win64; x64) AppleWebKit/537.36 (KHTML, like Gecko) Chrome/138.0.0.0 Safari/537.36","WebKit","Chrome","138.0.0.0","Windows","10.0","https://app.prolific.com/","en-GB,en;q=0.9,en-US;q=0.8,zu;q=0.7,es;q=0.6","6129dca465e41b5ae1b262da","683dba2a8a9dda3513610c04","68812a653787c92c0fe1178f","3","0","6129dca465e41b5ae1b262da","3","0","2025-07-23T18:39:45.597Z","","","","","","","","","","","AttribQ","","50","","","","","","","","","","","","","","","","","","","","","","","","","","","","",""
"3328","","<div style=""width:500px;"">
  <p>How much control did you have over the ball?</p>
  </div>","8","html-slider-response","41","496792","0.0-5.0-2.6","230","1","2025-07-23 18:31:30","1f75c3e559b7213887762d5229550c2b","105.1.85.247","Mozilla/5.0 (Windows NT 10.0; Win64; x64) AppleWebKit/537.36 (KHTML, like Gecko) Chrome/138.0.0.0 Safari/537.36","WebKit","Chrome","138.0.0.0","Windows","10.0","https://app.prolific.com/","en-GB,en;q=0.9,en-US;q=0.8,zu;q=0.7,es;q=0.6","6129dca465e41b5ae1b262da","683dba2a8a9dda3513610c04","68812a653787c92c0fe1178f","3","0","6129dca465e41b5ae1b262da","3","0","2025-07-23T18:39:48.929Z","","","","","","","","","","","ControlQ","","50","","","","","","","","","","","","","","","","","","","","","","","","","","","","",""
"3104","","<div style=""width:500px;"">
  <p>How would you describe your current emotional state?</p>
  </div>","31","html-slider-response","42","499898","0.0-5.0-3.6","230","1","2025-07-23 18:31:30","1f75c3e559b7213887762d5229550c2b","105.1.85.247","Mozilla/5.0 (Windows NT 10.0; Win64; x64) AppleWebKit/537.36 (KHTML, like Gecko) Chrome/138.0.0.0 Safari/537.36","WebKit","Chrome","138.0.0.0","Windows","10.0","https://app.prolific.com/","en-GB,en;q=0.9,en-US;q=0.8,zu;q=0.7,es;q=0.6","6129dca465e41b5ae1b262da","683dba2a8a9dda3513610c04","68812a653787c92c0fe1178f","3","0","6129dca465e41b5ae1b262da","3","0","2025-07-23T18:39:52.035Z","","","","","","","","","","","StressQ","","50","","","","","","","","","","","","","","","","","","","","","","","","","","","","",""
"2780","","<div style=""width:500px;"">
  <p>What best describes how you currently feel?</p>
  </div>","66","html-slider-response","43","502680","0.0-5.0-4.6","230","1","2025-07-23 18:31:30","1f75c3e559b7213887762d5229550c2b","105.1.85.247","Mozilla/5.0 (Windows NT 10.0; Win64; x64) AppleWebKit/537.36 (KHTML, like Gecko) Chrome/138.0.0.0 Safari/537.36","WebKit","Chrome","138.0.0.0","Windows","10.0","https://app.prolific.com/","en-GB,en;q=0.9,en-US;q=0.8,zu;q=0.7,es;q=0.6","6129dca465e41b5ae1b262da","683dba2a8a9dda3513610c04","68812a653787c92c0fe1178f","3","0","6129dca465e41b5ae1b262da","3","0","2025-07-23T18:39:54.817Z","","","","","","","","","","","MotivationQ","","50","","","","","","","","","","","","","","","","","","","","","","","","","","","","",""
"","","","","ctl-task-cpt","44","554228","0.0-5.0-0.7","230","1","2025-07-23 18:31:30","1f75c3e559b7213887762d5229550c2b","105.1.85.247","Mozilla/5.0 (Windows NT 10.0; Win64; x64) AppleWebKit/537.36 (KHTML, like Gecko) Chrome/138.0.0.0 Safari/537.36","WebKit","Chrome","138.0.0.0","Windows","10.0","https://app.prolific.com/","en-GB,en;q=0.9,en-US;q=0.8,zu;q=0.7,es;q=0.6","6129dca465e41b5ae1b262da","683dba2a8a9dda3513610c04","68812a653787c92c0fe1178f","3","0","6129dca465e41b5ae1b262da","3","0","2025-07-23T18:40:46.366Z","","","","","","","","","","","","","","win-only","0","g1:NW,g2:SE","0.3","8","0","505069.7","1484.2","6491.6","48528.4","1","4","4","6","2","-4","-4","0","2","0","1593","3000","-1740","[""down"",""right""]","{""num_key_presses"":13,""num_perfect"":4,""num_errors"":0,""num_randdir"":9,""num_randdir_good_moves"":4,""num_whilered"":0,""num_whileblue"":0,""num_blue"":1,""num_good_moves"":8}","[299.22232142857143,298.12857142857143,0.4,299.22232142857143,298.12857142857143,104.6,299.22232142857143,298.12857142857143,205.7,299.22232142857143,298.12857142857143,321.4,299.22232142857143,298.12857142857143,422.1,299.22232142857143,298.12857142857143,531.8,299.22232142857143,298.12857142857143,633.5,299.22232142857143,298.12857142857143,744.8,299.22232142857143,298.12857142857143,850.7,440.22232142857143,404.12857142857143,956.6,521.2223214285714,480.12857142857143,1060.4,549.2223214285714,513.1285714285714,1163.9,554.2223214285714,524.1285714285714,1270.1,554.2223214285714,530.1285714285714,1375.3,554.2223214285714,530.1285714285714,1487.6,554.2223214285714,530.1285714285714,1598.7,554.2223214285714,530.1285714285714,1700.2,554.2223214285714,530.1285714285714,1807.1,554.2223214285714,530.1285714285714,1912,554.2223214285714,530.1285714285714,2015.9,554.2223214285714,530.1285714285714,2121.9,554.2223214285714,530.1285714285714,2224.5,554.2223214285714,530.1285714285714,2329,554.2223214285714,530.1285714285714,2429.8,554.2223214285714,530.1285714285714,2532.5,554.2223214285714,530.1285714285714,2641.8,554.2223214285714,530.1285714285714,2753.4,554.2223214285714,530.1285714285714,2860.9,554.2223214285714,530.1285714285714,2969.5,554.2223214285714,530.1285714285714,3070.2,554.2223214285714,530.1285714285714,3174.1,554.2223214285714,530.1285714285714,3278.1,554.2223214285714,530.1285714285714,3379.5,554.2223214285714,530.1285714285714,3488.2,554.2223214285714,530.1285714285714,3592.1,554.2223214285714,530.1285714285714,3696.2,554.2223214285714,530.1285714285714,3804,554.2223214285714,530.1285714285714,3912.9,554.2223214285714,530.1285714285714,4021.1,554.2223214285714,530.1285714285714,4127.5,554.2223214285714,530.1285714285714,4258.8,554.2223214285714,530.1285714285714,4363.6,554.2223214285714,530.1285714285714,4474.1,554.2223214285714,530.1285714285714,4577.3,554.2223214285714,530.1285714285714,4681,554.2223214285714,530.1285714285714,4792.7,554.2223214285714,530.1285714285714,4904]","[1450.9,1450.9,1000,0,450.9,""oops"",""down"",""down"",""good_move"",4317.9,2865.2,2475.5,1452.7,389.7,""smooth"",""down"",""down"",""good_move"",7763.1,3442.2,3086.6,4321,355.5,""oops"",""down"",""right"",""good_move"",10354.6,2590,2215.4,7764.6,374.6,""oops"",""down"",""left"",""bad_move"",16625.7,6269.8,2590.5,13611.4,423.8,""smooth"",""down"",""down"",""good_move"",19386.9,2756.5,2363,16630.4,393.5,""oops"",""right"",""up"",""bad_move"",22283.5,2892.8,2494.6,19390.7,398.2,""smooth"",""right"",""right"",""good_move"",25204.4,2918.7,2493.2,22285.7,425.5,""oops"",""right"",""up"",""bad_move"",28350.2,3144.5,2591.4,25205.8,553.1,""oops"",""right"",""right"",""good_move"",30602.5,2251.1,1848.1,28351.4,403,""oops"",""right"",""left"",""bad_move"",33525.4,2920.3,2545.6,30605.1,374.7,""smooth"",""right"",""right"",""good_move"",36792.2,3264.6,2872.6,33527.6,392.1,""oops"",""right"",""left"",""bad_move"",40074.9,3280.7,2832.6,36794.2,448.1,""oops"",""right"",""down"",""good_move""]","",""
"4032","","<div style=""width:500px;"">
  <p>What determined the result of this run?</p>
  </div>","0","html-slider-response","45","558273","0.0-5.0-1.7","230","1","2025-07-23 18:31:30","1f75c3e559b7213887762d5229550c2b","105.1.85.247","Mozilla/5.0 (Windows NT 10.0; Win64; x64) AppleWebKit/537.36 (KHTML, like Gecko) Chrome/138.0.0.0 Safari/537.36","WebKit","Chrome","138.0.0.0","Windows","10.0","https://app.prolific.com/","en-GB,en;q=0.9,en-US;q=0.8,zu;q=0.7,es;q=0.6","6129dca465e41b5ae1b262da","683dba2a8a9dda3513610c04","68812a653787c92c0fe1178f","3","0","6129dca465e41b5ae1b262da","3","0","2025-07-23T18:40:50.410Z","","","","","","","","","","","AttribQ","","50","","","","","","","","","","","","","","","","","","","","","","","","","","","","",""
"3503","","<div style=""width:500px;"">
  <p>How much control did you have over the ball?</p>
  </div>","0","html-slider-response","46","561779","0.0-5.0-2.7","230","1","2025-07-23 18:31:30","1f75c3e559b7213887762d5229550c2b","105.1.85.247","Mozilla/5.0 (Windows NT 10.0; Win64; x64) AppleWebKit/537.36 (KHTML, like Gecko) Chrome/138.0.0.0 Safari/537.36","WebKit","Chrome","138.0.0.0","Windows","10.0","https://app.prolific.com/","en-GB,en;q=0.9,en-US;q=0.8,zu;q=0.7,es;q=0.6","6129dca465e41b5ae1b262da","683dba2a8a9dda3513610c04","68812a653787c92c0fe1178f","3","0","6129dca465e41b5ae1b262da","3","0","2025-07-23T18:40:53.916Z","","","","","","","","","","","ControlQ","","50","","","","","","","","","","","","","","","","","","","","","","","","","","","","",""
"4661","","<div style=""width:500px;"">
  <p>How would you describe your current emotional state?</p>
  </div>","48","html-slider-response","47","566442","0.0-5.0-3.7","230","1","2025-07-23 18:31:30","1f75c3e559b7213887762d5229550c2b","105.1.85.247","Mozilla/5.0 (Windows NT 10.0; Win64; x64) AppleWebKit/537.36 (KHTML, like Gecko) Chrome/138.0.0.0 Safari/537.36","WebKit","Chrome","138.0.0.0","Windows","10.0","https://app.prolific.com/","en-GB,en;q=0.9,en-US;q=0.8,zu;q=0.7,es;q=0.6","6129dca465e41b5ae1b262da","683dba2a8a9dda3513610c04","68812a653787c92c0fe1178f","3","0","6129dca465e41b5ae1b262da","3","0","2025-07-23T18:40:58.579Z","","","","","","","","","","","StressQ","","50","","","","","","","","","","","","","","","","","","","","","","","","","","","","",""
"2819","","<div style=""width:500px;"">
  <p>What best describes how you currently feel?</p>
  </div>","54","html-slider-response","48","569262","0.0-5.0-4.7","230","1","2025-07-23 18:31:30","1f75c3e559b7213887762d5229550c2b","105.1.85.247","Mozilla/5.0 (Windows NT 10.0; Win64; x64) AppleWebKit/537.36 (KHTML, like Gecko) Chrome/138.0.0.0 Safari/537.36","WebKit","Chrome","138.0.0.0","Windows","10.0","https://app.prolific.com/","en-GB,en;q=0.9,en-US;q=0.8,zu;q=0.7,es;q=0.6","6129dca465e41b5ae1b262da","683dba2a8a9dda3513610c04","68812a653787c92c0fe1178f","3","0","6129dca465e41b5ae1b262da","3","0","2025-07-23T18:41:01.400Z","","","","","","","","","","","MotivationQ","","50","","","","","","","","","","","","","","","","","","","","","","","","","","","","",""
"","","","","ctl-task-cpt","49","675834","0.0-5.0-0.8","230","1","2025-07-23 18:31:30","1f75c3e559b7213887762d5229550c2b","105.1.85.247","Mozilla/5.0 (Windows NT 10.0; Win64; x64) AppleWebKit/537.36 (KHTML, like Gecko) Chrome/138.0.0.0 Safari/537.36","WebKit","Chrome","138.0.0.0","Windows","10.0","https://app.prolific.com/","en-GB,en;q=0.9,en-US;q=0.8,zu;q=0.7,es;q=0.6","6129dca465e41b5ae1b262da","683dba2a8a9dda3513610c04","68812a653787c92c0fe1178f","3","0","6129dca465e41b5ae1b262da","3","0","2025-07-23T18:42:47.972Z","","","","","","","","","","","","","","win-only","2","g1:SE,g2:NW","0.2","9","0","571649.1","1639.8","6649.4","103527.9","1","4","4","6","2","-4","-4","0","0","0","1680","3000","-485","[""left"",""up""]","{""num_key_presses"":21,""num_perfect"":4,""num_errors"":0,""num_randdir"":17,""num_randdir_good_moves"":6,""num_whilered"":0,""num_whileblue"":0,""num_blue"":6,""num_good_moves"":10}","[295.22232142857143,292.12857142857143,0.8,295.22232142857143,292.12857142857143,106,295.22232142857143,292.12857142857143,214.2,295.22232142857143,292.12857142857143,317.5,295.22232142857143,292.12857142857143,431.8,295.22232142857143,292.12857142857143,532.6,295.22232142857143,292.12857142857143,638.4,295.22232142857143,292.12857142857143,749.2,295.22232142857143,292.12857142857143,856.3,197.22232142857143,175.12857142857143,964.1,89.22232142857143,12.128571428571426,1072.3,75.22232142857143,-2.8714285714285737,1172.3,68.22232142857143,9.128571428571426,1280.1,53.222321428571426,40.128571428571426,1389.1,51.222321428571426,51.128571428571426,1497.8,51.222321428571426,51.128571428571426,1610.6,51.222321428571426,51.128571428571426,1712.7,51.222321428571426,51.128571428571426,1815.6,51.222321428571426,51.128571428571426,1917.3,51.222321428571426,51.128571428571426,2020.6,51.222321428571426,51.128571428571426,2130.3,51.222321428571426,51.128571428571426,2236.1,51.222321428571426,51.128571428571426,2338.1,51.222321428571426,51.128571428571426,2454.3,51.222321428571426,51.128571428571426,2559.9,51.222321428571426,51.128571428571426,2664.2,51.222321428571426,51.128571428571426,2772.2,51.222321428571426,51.128571428571426,2873.6,51.222321428571426,51.128571428571426,2978,51.222321428571426,51.128571428571426,3088.5,51.222321428571426,51.128571428571426,3196.3,51.222321428571426,51.128571428571426,3302.9,51.222321428571426,51.128571428571426,3404,51.222321428571426,51.128571428571426,3509.3,51.222321428571426,51.128571428571426,3611.4,51.222321428571426,51.128571428571426,3721.8,51.222321428571426,51.128571428571426,3836,51.222321428571426,51.128571428571426,3942.7,51.222321428571426,51.128571428571426,4053.2,51.222321428571426,51.128571428571426,4161.2,51.222321428571426,51.128571428571426,4266.9,51.222321428571426,51.128571428571426,4372.4,51.222321428571426,51.128571428571426,4475.8,51.222321428571426,51.128571428571426,4583.1,51.222321428571426,51.128571428571426,4688.5,51.222321428571426,51.128571428571426,4789.7,51.222321428571426,51.128571428571426,4892.7,51.222321428571426,51.128571428571426,4998.2]","[1447.6,1447.6,1000,0,447.6,""oops"",""up"",""left"",""good_move"",8164.9,6716.4,2591.9,5179.2,393.8,""oops"",""up"",""down"",""bad_move"",11336.7,3170.1,2647.2,8166.6,522.9,""oops"",""up"",""left"",""good_move"",14519.4,3179.1,2764.9,11340.3,414.2,""oops"",""up"",""up"",""good_move"",20169.5,5648.8,2329,17313.7,526.9,""oops"",""up"",""left"",""good_move"",30264.2,10092.7,1956.3,27868,440,""oops"",""up"",""down"",""bad_move"",32836.5,2570.3,2018.1,30266.2,552.2,""smooth"",""up"",""up"",""good_move"",35875.2,3037.3,2473.4,32838,563.9,""smooth"",""up"",""up"",""good_move"",39777.3,3900.9,2654.4,35876.5,1246.4,""oops"",""up"",""down"",""bad_move"",43123.5,3344.9,2945.1,39778.6,399.8,""oops"",""up"",""down"",""bad_move"",45989.7,2863.7,2423.4,43126,440.3,""smooth"",""up"",""up"",""good_move"",49890.6,3899.6,1711.7,45991.1,2187.9,""oops"",""up"",""down"",""bad_move"",56900.8,7008.9,2872.6,53580.4,447.8,""oops"",""up"",""right"",""bad_move"",60103.1,3195.7,2766.4,56907.4,429.3,""oops"",""up"",""down"",""bad_move"",63398.9,3293.5,2872.6,60105.4,420.9,""smooth"",""up"",""up"",""good_move"",68772.2,5361.3,3364.6,63410.9,1996.7,""oops"",""up"",""right"",""bad_move"",72024.4,3251.4,2827.2,68773,424.2,""oops"",""up"",""right"",""bad_move"",75145.9,3120,2600.5,72025.9,519.5,""oops"",""up"",""right"",""bad_move"",78168.9,3020.3,2590.9,75148.6,429.4,""oops"",""up"",""up"",""good_move"",87243.9,9073.2,2254.9,84371.3,617.7,""oops"",""up"",""up"",""good_move"",92985.4,5740.2,1817.5,87245.3,3922.7,""oops"",""up"",""right"",""bad_move""]","",""
"3862","","<div style=""width:500px;"">
  <p>What determined the result of this run?</p>
  </div>","0","html-slider-response","50","679701","0.0-5.0-1.8","230","1","2025-07-23 18:31:30","1f75c3e559b7213887762d5229550c2b","105.1.85.247","Mozilla/5.0 (Windows NT 10.0; Win64; x64) AppleWebKit/537.36 (KHTML, like Gecko) Chrome/138.0.0.0 Safari/537.36","WebKit","Chrome","138.0.0.0","Windows","10.0","https://app.prolific.com/","en-GB,en;q=0.9,en-US;q=0.8,zu;q=0.7,es;q=0.6","6129dca465e41b5ae1b262da","683dba2a8a9dda3513610c04","68812a653787c92c0fe1178f","3","0","6129dca465e41b5ae1b262da","3","0","2025-07-23T18:42:51.838Z","","","","","","","","","","","AttribQ","","50","","","","","","","","","","","","","","","","","","","","","","","","","","","","",""
"2922","","<div style=""width:500px;"">
  <p>How much control did you have over the ball?</p>
  </div>","0","html-slider-response","51","682628","0.0-5.0-2.8","230","1","2025-07-23 18:31:30","1f75c3e559b7213887762d5229550c2b","105.1.85.247","Mozilla/5.0 (Windows NT 10.0; Win64; x64) AppleWebKit/537.36 (KHTML, like Gecko) Chrome/138.0.0.0 Safari/537.36","WebKit","Chrome","138.0.0.0","Windows","10.0","https://app.prolific.com/","en-GB,en;q=0.9,en-US;q=0.8,zu;q=0.7,es;q=0.6","6129dca465e41b5ae1b262da","683dba2a8a9dda3513610c04","68812a653787c92c0fe1178f","3","0","6129dca465e41b5ae1b262da","3","0","2025-07-23T18:42:54.765Z","","","","","","","","","","","ControlQ","","50","","","","","","","","","","","","","","","","","","","","","","","","","","","","",""
"4928","","<div style=""width:500px;"">
  <p>How would you describe your current emotional state?</p>
  </div>","100","html-slider-response","52","687562","0.0-5.0-3.8","230","1","2025-07-23 18:31:30","1f75c3e559b7213887762d5229550c2b","105.1.85.247","Mozilla/5.0 (Windows NT 10.0; Win64; x64) AppleWebKit/537.36 (KHTML, like Gecko) Chrome/138.0.0.0 Safari/537.36","WebKit","Chrome","138.0.0.0","Windows","10.0","https://app.prolific.com/","en-GB,en;q=0.9,en-US;q=0.8,zu;q=0.7,es;q=0.6","6129dca465e41b5ae1b262da","683dba2a8a9dda3513610c04","68812a653787c92c0fe1178f","3","0","6129dca465e41b5ae1b262da","3","0","2025-07-23T18:42:59.699Z","","","","","","","","","","","StressQ","","50","","","","","","","","","","","","","","","","","","","","","","","","","","","","",""
"3644","","<div style=""width:500px;"">
  <p>What best describes how you currently feel?</p>
  </div>","0","html-slider-response","53","691212","0.0-5.0-4.8","230","1","2025-07-23 18:31:30","1f75c3e559b7213887762d5229550c2b","105.1.85.247","Mozilla/5.0 (Windows NT 10.0; Win64; x64) AppleWebKit/537.36 (KHTML, like Gecko) Chrome/138.0.0.0 Safari/537.36","WebKit","Chrome","138.0.0.0","Windows","10.0","https://app.prolific.com/","en-GB,en;q=0.9,en-US;q=0.8,zu;q=0.7,es;q=0.6","6129dca465e41b5ae1b262da","683dba2a8a9dda3513610c04","68812a653787c92c0fe1178f","3","0","6129dca465e41b5ae1b262da","3","0","2025-07-23T18:43:03.350Z","","","","","","","","","","","MotivationQ","","50","","","","","","","","","","","","","","","","","","","","","","","","","","","","",""
"","","","","ctl-task-cpt","54","740984","0.0-5.0-0.9","230","1","2025-07-23 18:31:30","1f75c3e559b7213887762d5229550c2b","105.1.85.247","Mozilla/5.0 (Windows NT 10.0; Win64; x64) AppleWebKit/537.36 (KHTML, like Gecko) Chrome/138.0.0.0 Safari/537.36","WebKit","Chrome","138.0.0.0","Windows","10.0","https://app.prolific.com/","en-GB,en;q=0.9,en-US;q=0.8,zu;q=0.7,es;q=0.6","6129dca465e41b5ae1b262da","683dba2a8a9dda3513610c04","68812a653787c92c0fe1178f","3","0","6129dca465e41b5ae1b262da","3","0","2025-07-23T18:43:53.121Z","","","","","","","","","","","","","","win-only","1","g1:NE,g2:SW","0.4","10","0","693601.1","1341.7","6346","46738.8","1","4","8","6","2","8","8","8","0","0.06060606060606061","1688.1","3000","2165","[""down"",""left""]","{""num_key_presses"":8,""num_perfect"":4,""num_errors"":0,""num_randdir"":4,""num_randdir_good_moves"":3,""num_whilered"":0,""num_whileblue"":0,""num_blue"":4,""num_good_moves"":7}","[298.22232142857143,296.12857142857143,1.5,298.22232142857143,296.12857142857143,106.7,298.22232142857143,296.12857142857143,209.9,298.22232142857143,296.12857142857143,310.9,298.22232142857143,296.12857142857143,427.4,298.22232142857143,296.12857142857143,532.5,298.22232142857143,296.12857142857143,643.5,191.22232142857143,368.12857142857143,778.8,0.22232142857142634,536.1285714285714,896.1,-60.777678571428574,604.1285714285714,1000.6,-63.777678571428574,605.1285714285714,1103.7,-24.777678571428574,578.1285714285714,1223.2,40.222321428571426,567.1285714285714,1328.7,47.222321428571426,565.1285714285714,1437.2,47.222321428571426,565.1285714285714,1541.8,47.222321428571426,565.1285714285714,1646.2,47.222321428571426,565.1285714285714,1746.8,47.222321428571426,565.1285714285714,1850.6,47.222321428571426,565.1285714285714,1951.1,47.222321428571426,565.1285714285714,2053.6,47.222321428571426,565.1285714285714,2154.5,47.222321428571426,565.1285714285714,2261.1,47.222321428571426,565.1285714285714,2366.8,47.222321428571426,565.1285714285714,2472.3,47.222321428571426,565.1285714285714,2581.5,47.222321428571426,565.1285714285714,2686.6,47.222321428571426,565.1285714285714,2794.6,47.222321428571426,565.1285714285714,2896,47.222321428571426,565.1285714285714,3005.6,47.222321428571426,565.1285714285714,3106.5,47.222321428571426,565.1285714285714,3211.9,47.222321428571426,565.1285714285714,3315.2,47.222321428571426,565.1285714285714,3423.6,47.222321428571426,565.1285714285714,3524.5,47.222321428571426,565.1285714285714,3637.5,47.222321428571426,565.1285714285714,3738.4,47.222321428571426,565.1285714285714,3840.8,47.222321428571426,565.1285714285714,3941,47.222321428571426,565.1285714285714,4046.9,47.222321428571426,565.1285714285714,4156.2,47.222321428571426,565.1285714285714,4261.5,47.222321428571426,565.1285714285714,4362.4,47.222321428571426,565.1285714285714,4466.9,47.222321428571426,565.1285714285714,4568.2,47.222321428571426,565.1285714285714,4675.4,47.222321428571426,565.1285714285714,4775.7,47.222321428571426,565.1285714285714,4880.6,47.222321428571426,565.1285714285714,4987.2]","[4489.8,4489.8,2056.8,2013.1,419.9,""smooth"",""down"",""down"",""good_move"",7270.7,2779.7,2369.4,4491,410.3,""oops"",""down"",""up"",""bad_move"",10535.9,3263.5,2867,7272.5,396.5,""smooth"",""down"",""down"",""good_move"",13980.4,3443.6,3048.7,10536.8,394.9,""oops"",""down"",""down"",""good_move"",22786.2,8804,2302,20082.5,401.7,""oops"",""down"",""down"",""good_move"",26006,3219.2,2744.2,22786.8,475,""oops"",""left"",""left"",""good_move"",34299.4,8292.1,2927.6,30904,467.8,""smooth"",""left"",""left"",""good_move"",39838.7,5536.6,2876.7,34302.1,2659.9,""smooth"",""left"",""left"",""good_move""]","",""
"4305","","<div style=""width:500px;"">
  <p>What determined the result of this run?</p>
  </div>","53","html-slider-response","55","745292","0.0-5.0-1.9","230","1","2025-07-23 18:31:30","1f75c3e559b7213887762d5229550c2b","105.1.85.247","Mozilla/5.0 (Windows NT 10.0; Win64; x64) AppleWebKit/537.36 (KHTML, like Gecko) Chrome/138.0.0.0 Safari/537.36","WebKit","Chrome","138.0.0.0","Windows","10.0","https://app.prolific.com/","en-GB,en;q=0.9,en-US;q=0.8,zu;q=0.7,es;q=0.6","6129dca465e41b5ae1b262da","683dba2a8a9dda3513610c04","68812a653787c92c0fe1178f","3","0","6129dca465e41b5ae1b262da","3","0","2025-07-23T18:43:57.429Z","","","","","","","","","","","AttribQ","","50","","","","","","","","","","","","","","","","","","","","","","","","","","","","",""
"4555","","<div style=""width:500px;"">
  <p>How much control did you have over the ball?</p>
  </div>","58","html-slider-response","56","749849","0.0-5.0-2.9","230","1","2025-07-23 18:31:30","1f75c3e559b7213887762d5229550c2b","105.1.85.247","Mozilla/5.0 (Windows NT 10.0; Win64; x64) AppleWebKit/537.36 (KHTML, like Gecko) Chrome/138.0.0.0 Safari/537.36","WebKit","Chrome","138.0.0.0","Windows","10.0","https://app.prolific.com/","en-GB,en;q=0.9,en-US;q=0.8,zu;q=0.7,es;q=0.6","6129dca465e41b5ae1b262da","683dba2a8a9dda3513610c04","68812a653787c92c0fe1178f","3","0","6129dca465e41b5ae1b262da","3","0","2025-07-23T18:44:01.986Z","","","","","","","","","","","ControlQ","","50","","","","","","","","","","","","","","","","","","","","","","","","","","","","",""
"5156","","<div style=""width:500px;"">
  <p>How would you describe your current emotional state?</p>
  </div>","59","html-slider-response","57","755012","0.0-5.0-3.9","230","1","2025-07-23 18:31:30","1f75c3e559b7213887762d5229550c2b","105.1.85.247","Mozilla/5.0 (Windows NT 10.0; Win64; x64) AppleWebKit/537.36 (KHTML, like Gecko) Chrome/138.0.0.0 Safari/537.36","WebKit","Chrome","138.0.0.0","Windows","10.0","https://app.prolific.com/","en-GB,en;q=0.9,en-US;q=0.8,zu;q=0.7,es;q=0.6","6129dca465e41b5ae1b262da","683dba2a8a9dda3513610c04","68812a653787c92c0fe1178f","3","0","6129dca465e41b5ae1b262da","3","0","2025-07-23T18:44:07.149Z","","","","","","","","","","","StressQ","","50","","","","","","","","","","","","","","","","","","","","","","","","","","","","",""
"3420","","<div style=""width:500px;"">
  <p>What best describes how you currently feel?</p>
  </div>","42","html-slider-response","58","758435","0.0-5.0-4.9","230","1","2025-07-23 18:31:30","1f75c3e559b7213887762d5229550c2b","105.1.85.247","Mozilla/5.0 (Windows NT 10.0; Win64; x64) AppleWebKit/537.36 (KHTML, like Gecko) Chrome/138.0.0.0 Safari/537.36","WebKit","Chrome","138.0.0.0","Windows","10.0","https://app.prolific.com/","en-GB,en;q=0.9,en-US;q=0.8,zu;q=0.7,es;q=0.6","6129dca465e41b5ae1b262da","683dba2a8a9dda3513610c04","68812a653787c92c0fe1178f","3","0","6129dca465e41b5ae1b262da","3","0","2025-07-23T18:44:10.572Z","","","","","","","","","","","MotivationQ","","50","","","","","","","","","","","","","","","","","","","","","","","","","","","","",""
"","","","","ctl-task-cpt","59","801267","0.0-5.0-0.10","230","1","2025-07-23 18:31:30","1f75c3e559b7213887762d5229550c2b","105.1.85.247","Mozilla/5.0 (Windows NT 10.0; Win64; x64) AppleWebKit/537.36 (KHTML, like Gecko) Chrome/138.0.0.0 Safari/537.36","WebKit","Chrome","138.0.0.0","Windows","10.0","https://app.prolific.com/","en-GB,en;q=0.9,en-US;q=0.8,zu;q=0.7,es;q=0.6","6129dca465e41b5ae1b262da","683dba2a8a9dda3513610c04","68812a653787c92c0fe1178f","3","0","6129dca465e41b5ae1b262da","3","0","2025-07-23T18:44:53.405Z","","","","","","","","","","","","","","win-only","2","g1:SE,g2:NW","0.5","11","0","760822.8","1836.6","6846.4","39814.7","1","4","8","6","2","8","8","16","8","0.12121212121212122","1651.9","3000","2035","[""left"",""up""]","{""num_key_presses"":8,""num_perfect"":4,""num_errors"":0,""num_randdir"":4,""num_randdir_good_moves"":3,""num_whilered"":0,""num_whileblue"":0,""num_blue"":1,""num_good_moves"":7}","[296.22232142857143,299.12857142857143,0.6,296.22232142857143,299.12857142857143,116.9,296.22232142857143,299.12857142857143,227.4,296.22232142857143,299.12857142857143,336.9,296.22232142857143,299.12857142857143,450.1,296.22232142857143,299.12857142857143,560.1,296.22232142857143,299.12857142857143,672.5,296.22232142857143,299.12857142857143,782.2,236.22232142857143,245.12857142857143,902.8,150.22232142857143,133.12857142857143,1009.2,122.22232142857143,104.12857142857143,1119.5,108.22232142857143,93.12857142857143,1221.5,84.22232142857143,80.12857142857143,1332.7,67.22232142857143,69.12857142857143,1446.6,67.22232142857143,69.12857142857143,1557.6,67.22232142857143,69.12857142857143,1683.7,67.22232142857143,69.12857142857143,1799.3,67.22232142857143,69.12857142857143,1945.2,67.22232142857143,69.12857142857143,2062.8,67.22232142857143,69.12857142857143,2186.1,67.22232142857143,69.12857142857143,2304.9,67.22232142857143,69.12857142857143,2420.2,67.22232142857143,69.12857142857143,2520.7,67.22232142857143,69.12857142857143,2635.7,67.22232142857143,69.12857142857143,2750.6,67.22232142857143,69.12857142857143,2871.2,67.22232142857143,69.12857142857143,2991.2,67.22232142857143,69.12857142857143,3116.6,67.22232142857143,69.12857142857143,3232.5,67.22232142857143,69.12857142857143,3345.1,67.22232142857143,69.12857142857143,3457.3,67.22232142857143,69.12857142857143,3574.4,67.22232142857143,69.12857142857143,3686.1,67.22232142857143,69.12857142857143,3808.5,67.22232142857143,69.12857142857143,3928.1,67.22232142857143,69.12857142857143,4041.8,67.22232142857143,69.12857142857143,4159.8,67.22232142857143,69.12857142857143,4277.5,67.22232142857143,69.12857142857143,4393,67.22232142857143,69.12857142857143,4507.5,67.22232142857143,69.12857142857143,4625.5,67.22232142857143,69.12857142857143,4740.2,67.22232142857143,69.12857142857143,4861.9,67.22232142857143,69.12857142857143,4981.8]","[1456.2,1456.2,1000,0,456.2,""oops"",""left"",""up"",""good_move"",8853.3,7396.2,2053.2,6363.3,436.8,""smooth"",""left"",""left"",""good_move"",14730.4,5875.5,2015.5,8854.9,3860,""smooth"",""left"",""left"",""good_move"",20781,6049.7,2337,14731.3,3712.7,""oops"",""left"",""right"",""bad_move"",23723.6,2941.7,2468.7,20781.9,473,""oops"",""left"",""up"",""good_move"",26475.4,2748.2,2351.7,23727.3,396.4,""smooth"",""left"",""left"",""good_move"",29666.2,3188.4,2776.6,26477.9,411.8,""smooth"",""left"",""left"",""good_move"",32755.2,3082.9,2449,29672.3,633.9,""oops"",""up"",""up"",""good_move""]","",""
"3181","","<div style=""width:500px;"">
  <p>What determined the result of this run?</p>
  </div>","58","html-slider-response","60","804451","0.0-5.0-1.10","230","1","2025-07-23 18:31:30","1f75c3e559b7213887762d5229550c2b","105.1.85.247","Mozilla/5.0 (Windows NT 10.0; Win64; x64) AppleWebKit/537.36 (KHTML, like Gecko) Chrome/138.0.0.0 Safari/537.36","WebKit","Chrome","138.0.0.0","Windows","10.0","https://app.prolific.com/","en-GB,en;q=0.9,en-US;q=0.8,zu;q=0.7,es;q=0.6","6129dca465e41b5ae1b262da","683dba2a8a9dda3513610c04","68812a653787c92c0fe1178f","3","0","6129dca465e41b5ae1b262da","3","0","2025-07-23T18:44:56.589Z","","","","","","","","","","","AttribQ","","50","","","","","","","","","","","","","","","","","","","","","","","","","","","","",""
"3095","","<div style=""width:500px;"">
  <p>How much control did you have over the ball?</p>
  </div>","67","html-slider-response","61","807548","0.0-5.0-2.10","230","1","2025-07-23 18:31:30","1f75c3e559b7213887762d5229550c2b","105.1.85.247","Mozilla/5.0 (Windows NT 10.0; Win64; x64) AppleWebKit/537.36 (KHTML, like Gecko) Chrome/138.0.0.0 Safari/537.36","WebKit","Chrome","138.0.0.0","Windows","10.0","https://app.prolific.com/","en-GB,en;q=0.9,en-US;q=0.8,zu;q=0.7,es;q=0.6","6129dca465e41b5ae1b262da","683dba2a8a9dda3513610c04","68812a653787c92c0fe1178f","3","0","6129dca465e41b5ae1b262da","3","0","2025-07-23T18:44:59.686Z","","","","","","","","","","","ControlQ","","50","","","","","","","","","","","","","","","","","","","","","","","","","","","","",""
"3734","","<div style=""width:500px;"">
  <p>How would you describe your current emotional state?</p>
  </div>","56","html-slider-response","62","811286","0.0-5.0-3.10","230","1","2025-07-23 18:31:30","1f75c3e559b7213887762d5229550c2b","105.1.85.247","Mozilla/5.0 (Windows NT 10.0; Win64; x64) AppleWebKit/537.36 (KHTML, like Gecko) Chrome/138.0.0.0 Safari/537.36","WebKit","Chrome","138.0.0.0","Windows","10.0","https://app.prolific.com/","en-GB,en;q=0.9,en-US;q=0.8,zu;q=0.7,es;q=0.6","6129dca465e41b5ae1b262da","683dba2a8a9dda3513610c04","68812a653787c92c0fe1178f","3","0","6129dca465e41b5ae1b262da","3","0","2025-07-23T18:45:03.423Z","","","","","","","","","","","StressQ","","50","","","","","","","","","","","","","","","","","","","","","","","","","","","","",""
"2663","","<div style=""width:500px;"">
  <p>What best describes how you currently feel?</p>
  </div>","46","html-slider-response","63","813956","0.0-5.0-4.10","230","1","2025-07-23 18:31:30","1f75c3e559b7213887762d5229550c2b","105.1.85.247","Mozilla/5.0 (Windows NT 10.0; Win64; x64) AppleWebKit/537.36 (KHTML, like Gecko) Chrome/138.0.0.0 Safari/537.36","WebKit","Chrome","138.0.0.0","Windows","10.0","https://app.prolific.com/","en-GB,en;q=0.9,en-US;q=0.8,zu;q=0.7,es;q=0.6","6129dca465e41b5ae1b262da","683dba2a8a9dda3513610c04","68812a653787c92c0fe1178f","3","0","6129dca465e41b5ae1b262da","3","0","2025-07-23T18:45:06.093Z","","","","","","","","","","","MotivationQ","","50","","","","","","","","","","","","","","","","","","","","","","","","","","","","",""
"","","","","ctl-task-cpt","64","874604","0.0-5.0-0.11","230","1","2025-07-23 18:31:30","1f75c3e559b7213887762d5229550c2b","105.1.85.247","Mozilla/5.0 (Windows NT 10.0; Win64; x64) AppleWebKit/537.36 (KHTML, like Gecko) Chrome/138.0.0.0 Safari/537.36","WebKit","Chrome","138.0.0.0","Windows","10.0","https://app.prolific.com/","en-GB,en;q=0.9,en-US;q=0.8,zu;q=0.7,es;q=0.6","6129dca465e41b5ae1b262da","683dba2a8a9dda3513610c04","68812a653787c92c0fe1178f","3","0","6129dca465e41b5ae1b262da","3","0","2025-07-23T18:46:06.741Z","","","","","","","","","","","","","","win-only","1","g1:NE,g2:SW","0.6","12","0","816343.9","2088.4","7099.8","57616.8","1","4","4","6","2","4","3","19","16","0.14393939393939395","1494.4","3000","1770","[""down"",""left""]","{""num_key_presses"":12,""num_perfect"":7,""num_errors"":1,""num_randdir"":4,""num_randdir_good_moves"":1,""num_whilered"":0,""num_whileblue"":1,""num_blue"":4,""num_good_moves"":9}","[296.22232142857143,303.12857142857143,2.8,296.22232142857143,303.12857142857143,103.6,296.22232142857143,303.12857142857143,227,296.22232142857143,303.12857142857143,330.2,296.22232142857143,303.12857142857143,450.8,296.22232142857143,303.12857142857143,574.3,296.22232142857143,303.12857142857143,695.1,214.22232142857143,374.12857142857143,808.7,112.22232142857143,467.12857142857143,916.5,76.22232142857143,490.12857142857143,1029.1,66.22232142857143,503.12857142857143,1142.2,57.222321428571426,518.1285714285714,1243.7,56.222321428571426,520.1285714285714,1360.3,56.222321428571426,520.1285714285714,1483.3,56.222321428571426,520.1285714285714,1589.8,56.222321428571426,520.1285714285714,1719.1,56.222321428571426,520.1285714285714,1838.2,56.222321428571426,520.1285714285714,1956.1,56.222321428571426,520.1285714285714,2081.4,56.222321428571426,520.1285714285714,2202,56.222321428571426,520.1285714285714,2319.7,56.222321428571426,520.1285714285714,2436.8,56.222321428571426,520.1285714285714,2537.3,56.222321428571426,520.1285714285714,2660.7,56.222321428571426,520.1285714285714,2767.6,56.222321428571426,520.1285714285714,2876.3,56.222321428571426,520.1285714285714,2996.8,56.222321428571426,520.1285714285714,3118.5,56.222321428571426,520.1285714285714,3246,56.222321428571426,520.1285714285714,3354.8,56.222321428571426,520.1285714285714,3472.2,56.222321428571426,520.1285714285714,3591.6,56.222321428571426,520.1285714285714,3719.6,56.222321428571426,520.1285714285714,3839.8,56.222321428571426,520.1285714285714,3965.7,56.222321428571426,520.1285714285714,4073.3,56.222321428571426,520.1285714285714,4175.3,56.222321428571426,520.1285714285714,4295,56.222321428571426,520.1285714285714,4400.4,56.222321428571426,520.1285714285714,4520.1,56.222321428571426,520.1285714285714,4645.2,56.222321428571426,520.1285714285714,4770.4,56.222321428571426,520.1285714285714,4886.3]","[1508.2,1508.2,1000,0,508.3,""smooth"",""down"",""down"",""good_move"",4057.1,2545.7,2056.9,1511.4,488.8,""smooth"",""down"",""down"",""good_move"",7536.1,3477.5,2972.8,4058.6,504.7,""smooth"",""down"",""down"",""good_move"",9961.9,2421.4,2014.6,7540.5,406.8,""oops"",""left"",""right"",""bad_move"",12279.3,2315.7,1671,9963.6,644.7,""smooth"",""left"",""left"",""good_move"",15866,3584.9,2886.4,12281.1,698.5,""smooth"",""left"",""left"",""good_move"",20291,4423.6,4000.4,15867.4,423.2,""while_blue"",""left"",""left"",""good_move"",24998.5,4706.1,1133.2,20292.5,3572.8,""oops"",""left"",""right"",""bad_move"",30495.9,5496.6,2030.7,28001.6,463.6,""oops"",""left"",""left"",""good_move"",38129.6,7632.5,1585,36040.9,503.8,""oops"",""left"",""right"",""bad_move"",40216.1,2085.3,1491.1,38130.8,594.2,""smooth"",""left"",""left"",""good_move"",50310.6,10093,2544.6,47298.1,467.9,""smooth"",""left"",""left"",""good_move""]","",""
"3254","","<div style=""width:500px;"">
  <p>What determined the result of this run?</p>
  </div>","44","html-slider-response","65","877861","0.0-5.0-1.11","230","1","2025-07-23 18:31:30","1f75c3e559b7213887762d5229550c2b","105.1.85.247","Mozilla/5.0 (Windows NT 10.0; Win64; x64) AppleWebKit/537.36 (KHTML, like Gecko) Chrome/138.0.0.0 Safari/537.36","WebKit","Chrome","138.0.0.0","Windows","10.0","https://app.prolific.com/","en-GB,en;q=0.9,en-US;q=0.8,zu;q=0.7,es;q=0.6","6129dca465e41b5ae1b262da","683dba2a8a9dda3513610c04","68812a653787c92c0fe1178f","3","0","6129dca465e41b5ae1b262da","3","0","2025-07-23T18:46:09.998Z","","","","","","","","","","","AttribQ","","50","","","","","","","","","","","","","","","","","","","","","","","","","","","","",""
"3134","","<div style=""width:500px;"">
  <p>How much control did you have over the ball?</p>
  </div>","56","html-slider-response","66","880997","0.0-5.0-2.11","230","1","2025-07-23 18:31:30","1f75c3e559b7213887762d5229550c2b","105.1.85.247","Mozilla/5.0 (Windows NT 10.0; Win64; x64) AppleWebKit/537.36 (KHTML, like Gecko) Chrome/138.0.0.0 Safari/537.36","WebKit","Chrome","138.0.0.0","Windows","10.0","https://app.prolific.com/","en-GB,en;q=0.9,en-US;q=0.8,zu;q=0.7,es;q=0.6","6129dca465e41b5ae1b262da","683dba2a8a9dda3513610c04","68812a653787c92c0fe1178f","3","0","6129dca465e41b5ae1b262da","3","0","2025-07-23T18:46:13.134Z","","","","","","","","","","","ControlQ","","50","","","","","","","","","","","","","","","","","","","","","","","","","","","","",""
"2646","","<div style=""width:500px;"">
  <p>How would you describe your current emotional state?</p>
  </div>","56","html-slider-response","67","883645","0.0-5.0-3.11","230","1","2025-07-23 18:31:30","1f75c3e559b7213887762d5229550c2b","105.1.85.247","Mozilla/5.0 (Windows NT 10.0; Win64; x64) AppleWebKit/537.36 (KHTML, like Gecko) Chrome/138.0.0.0 Safari/537.36","WebKit","Chrome","138.0.0.0","Windows","10.0","https://app.prolific.com/","en-GB,en;q=0.9,en-US;q=0.8,zu;q=0.7,es;q=0.6","6129dca465e41b5ae1b262da","683dba2a8a9dda3513610c04","68812a653787c92c0fe1178f","3","0","6129dca465e41b5ae1b262da","3","0","2025-07-23T18:46:15.782Z","","","","","","","","","","","StressQ","","50","","","","","","","","","","","","","","","","","","","","","","","","","","","","",""
"3746","","<div style=""width:500px;"">
  <p>What best describes how you currently feel?</p>
  </div>","45","html-slider-response","68","887394","0.0-5.0-4.11","230","1","2025-07-23 18:31:30","1f75c3e559b7213887762d5229550c2b","105.1.85.247","Mozilla/5.0 (Windows NT 10.0; Win64; x64) AppleWebKit/537.36 (KHTML, like Gecko) Chrome/138.0.0.0 Safari/537.36","WebKit","Chrome","138.0.0.0","Windows","10.0","https://app.prolific.com/","en-GB,en;q=0.9,en-US;q=0.8,zu;q=0.7,es;q=0.6","6129dca465e41b5ae1b262da","683dba2a8a9dda3513610c04","68812a653787c92c0fe1178f","3","0","6129dca465e41b5ae1b262da","3","0","2025-07-23T18:46:19.531Z","","","","","","","","","","","MotivationQ","","50","","","","","","","","","","","","","","","","","","","","","","","","","","","","",""
"","","","","ctl-task-cpt","69","917706","0.0-5.0-0.12","230","1","2025-07-23 18:31:30","1f75c3e559b7213887762d5229550c2b","105.1.85.247","Mozilla/5.0 (Windows NT 10.0; Win64; x64) AppleWebKit/537.36 (KHTML, like Gecko) Chrome/138.0.0.0 Safari/537.36","WebKit","Chrome","138.0.0.0","Windows","10.0","https://app.prolific.com/","en-GB,en;q=0.9,en-US;q=0.8,zu;q=0.7,es;q=0.6","6129dca465e41b5ae1b262da","683dba2a8a9dda3513610c04","68812a653787c92c0fe1178f","3","0","6129dca465e41b5ae1b262da","3","0","2025-07-23T18:46:49.843Z","","","","","","","","","","","","","","win-only","0","g1:NW,g2:SE","0.7","13","0","889781.6","2447.9","7455.3","27267.4","1","4","4","6","2","4","4","23","19","0.17424242424242425","1605.6","3000","2330","[""down"",""right""]","{""num_key_presses"":6,""num_perfect"":5,""num_errors"":0,""num_randdir"":1,""num_randdir_good_moves"":1,""num_whilered"":0,""num_whileblue"":0,""num_blue"":1,""num_good_moves"":6}","[296.22232142857143,296.12857142857143,0.9,296.22232142857143,296.12857142857143,105,296.22232142857143,296.12857142857143,209.5,296.22232142857143,296.12857142857143,312,296.22232142857143,296.12857142857143,418.8,296.22232142857143,296.12857142857143,528,296.22232142857143,296.12857142857143,637.5,296.22232142857143,296.12857142857143,745.7,350.22232142857143,343.12857142857143,855.4,464.22232142857143,450.12857142857143,970.2,504.22232142857143,497.12857142857143,1083,520.2223214285714,527.1285714285714,1196.4,532.2223214285714,540.1285714285714,1313.8,534.2223214285714,541.1285714285714,1417.1,534.2223214285714,541.1285714285714,1518.8,534.2223214285714,541.1285714285714,1624.5,534.2223214285714,541.1285714285714,1726.2,534.2223214285714,541.1285714285714,1835.7,534.2223214285714,541.1285714285714,1935.8,534.2223214285714,541.1285714285714,2038.9,534.2223214285714,541.1285714285714,2148.6,534.2223214285714,541.1285714285714,2255.6,534.2223214285714,541.1285714285714,2369.5,534.2223214285714,541.1285714285714,2475.6,534.2223214285714,541.1285714285714,2576.7,534.2223214285714,541.1285714285714,2690.3,534.2223214285714,541.1285714285714,2797.9,534.2223214285714,541.1285714285714,2904.8,534.2223214285714,541.1285714285714,3009.4,534.2223214285714,541.1285714285714,3118.8,534.2223214285714,541.1285714285714,3221.8,534.2223214285714,541.1285714285714,3324.2,534.2223214285714,541.1285714285714,3431.8,534.2223214285714,541.1285714285714,3539.6,534.2223214285714,541.1285714285714,3644.7,534.2223214285714,541.1285714285714,3747.9,534.2223214285714,541.1285714285714,3858.5,534.2223214285714,541.1285714285714,3958.5,534.2223214285714,541.1285714285714,4069.3,534.2223214285714,541.1285714285714,4181.3,534.2223214285714,541.1285714285714,4286.4,534.2223214285714,541.1285714285714,4389.2,534.2223214285714,541.1285714285714,4489.2,534.2223214285714,541.1285714285714,4604.8,534.2223214285714,541.1285714285714,4716.4,534.2223214285714,541.1285714285714,4824.7,534.2223214285714,541.1285714285714,4929.2]","[1409.7,1409.7,1000,0,409.7,""smooth"",""right"",""right"",""good_move"",4391.6,2978.6,2509.7,1413.1,468.8,""smooth"",""right"",""right"",""good_move"",7688.7,3295.8,2734.5,4392.9,561.3,""smooth"",""right"",""right"",""good_move"",10949.3,3259.5,2877.2,7689.8,382.3,""oops"",""down"",""down"",""good_move"",16540.1,5588.7,1202.5,14664.6,673,""smooth"",""down"",""down"",""good_move"",19262.1,2721.2,2286.2,16540.9,435,""smooth"",""down"",""down"",""good_move""]","",""
"5567","","<div style=""width:500px;"">
  <p>What determined the result of this run?</p>
  </div>","100","html-slider-response","70","923275","0.0-5.0-1.12","230","1","2025-07-23 18:31:30","1f75c3e559b7213887762d5229550c2b","105.1.85.247","Mozilla/5.0 (Windows NT 10.0; Win64; x64) AppleWebKit/537.36 (KHTML, like Gecko) Chrome/138.0.0.0 Safari/537.36","WebKit","Chrome","138.0.0.0","Windows","10.0","https://app.prolific.com/","en-GB,en;q=0.9,en-US;q=0.8,zu;q=0.7,es;q=0.6","6129dca465e41b5ae1b262da","683dba2a8a9dda3513610c04","68812a653787c92c0fe1178f","3","0","6129dca465e41b5ae1b262da","3","0","2025-07-23T18:46:55.413Z","","","","","","","","","","","AttribQ","","50","","","","","","","","","","","","","","","","","","","","","","","","","","","","",""
"4685","","<div style=""width:500px;"">
  <p>How much control did you have over the ball?</p>
  </div>","100","html-slider-response","71","927964","0.0-5.0-2.12","230","1","2025-07-23 18:31:30","1f75c3e559b7213887762d5229550c2b","105.1.85.247","Mozilla/5.0 (Windows NT 10.0; Win64; x64) AppleWebKit/537.36 (KHTML, like Gecko) Chrome/138.0.0.0 Safari/537.36","WebKit","Chrome","138.0.0.0","Windows","10.0","https://app.prolific.com/","en-GB,en;q=0.9,en-US;q=0.8,zu;q=0.7,es;q=0.6","6129dca465e41b5ae1b262da","683dba2a8a9dda3513610c04","68812a653787c92c0fe1178f","3","0","6129dca465e41b5ae1b262da","3","0","2025-07-23T18:47:00.101Z","","","","","","","","","","","ControlQ","","50","","","","","","","","","","","","","","","","","","","","","","","","","","","","",""
"4109","","<div style=""width:500px;"">
  <p>How would you describe your current emotional state?</p>
  </div>","46","html-slider-response","72","932077","0.0-5.0-3.12","230","1","2025-07-23 18:31:30","1f75c3e559b7213887762d5229550c2b","105.1.85.247","Mozilla/5.0 (Windows NT 10.0; Win64; x64) AppleWebKit/537.36 (KHTML, like Gecko) Chrome/138.0.0.0 Safari/537.36","WebKit","Chrome","138.0.0.0","Windows","10.0","https://app.prolific.com/","en-GB,en;q=0.9,en-US;q=0.8,zu;q=0.7,es;q=0.6","6129dca465e41b5ae1b262da","683dba2a8a9dda3513610c04","68812a653787c92c0fe1178f","3","0","6129dca465e41b5ae1b262da","3","0","2025-07-23T18:47:04.214Z","","","","","","","","","","","StressQ","","50","","","","","","","","","","","","","","","","","","","","","","","","","","","","",""
"3380","","<div style=""width:500px;"">
  <p>What best describes how you currently feel?</p>
  </div>","54","html-slider-response","73","935465","0.0-5.0-4.12","230","1","2025-07-23 18:31:30","1f75c3e559b7213887762d5229550c2b","105.1.85.247","Mozilla/5.0 (Windows NT 10.0; Win64; x64) AppleWebKit/537.36 (KHTML, like Gecko) Chrome/138.0.0.0 Safari/537.36","WebKit","Chrome","138.0.0.0","Windows","10.0","https://app.prolific.com/","en-GB,en;q=0.9,en-US;q=0.8,zu;q=0.7,es;q=0.6","6129dca465e41b5ae1b262da","683dba2a8a9dda3513610c04","68812a653787c92c0fe1178f","3","0","6129dca465e41b5ae1b262da","3","0","2025-07-23T18:47:07.602Z","","","","","","","","","","","MotivationQ","","50","","","","","","","","","","","","","","","","","","","","","","","","","","","","",""
