"rt","response_timestamp","stimulus","response","trial_type","trial_index","time_elapsed","internal_node_id","run_id","condition","recorded_at","source_code_version","ip","user_agent","device","browser","browser_version","platform","platform_version","referer","accept_language","PROLIFIC_PID","STUDY_ID","SESSION_ID","WEEK","prolific_id","week","realtime","success","responses","item_order","radio_event_ids","radio_event_times","key_event_times","mouse_event_times","straightlining","zigzagging","honeypot","eventType","view_history","slider_start","which_type","canvas_config","goals_layout","control_level","trial_number","tutorial_trial_number","trial_start_time","phase1_start_time","phase2_start_time","phase3_start_time","goal_1_value","goal_1_distance","goal_2_value","goal_2_distance","goal_selected","outcome","outcome_total","participant_final_score","participant_initial_score","participant_final_score_prop","goal_choice_rt","allocated_time","allocated_time_remaining","goal_direction","counts","mouse_movements","key_presses","question_order","question_id"
"2403","1752050323738","<p style='font-size:40px;line-height:1.25'><strong>Welcome to the experiment!</strong></p><p style='font-size:1.1em;line-height:1.25'>Thank you for participanting in our experiment again! You will be asked to play the Dysfunctional Ball Game again. We will briefly recap the rules before we start.</p><p style='font-size:1.1em;line-height:1.25'>Press <strong>Next</strong> to continue.</p>","0","custom-html-button-response","0","2411","0.0-0.0","3","1","2025-07-09 08:38:39","01610cd0009c79a99da7d0a3353eb402","105.216.70.10","Mozilla/5.0 (Windows NT 10.0; Win64; x64) AppleWebKit/537.36 (KHTML, like Gecko) Chrome/138.0.0.0 Safari/537.36","WebKit","Chrome","138.0.0.0","Windows","10.0","https://app.prolific.com/","en-ZA,en-GB;q=0.9,en-US;q=0.8,en;q=0.7","653a6a7224e6c0bfb644ff9b","683db7602f5db6a34d12d064","686e2a6a39f0de6b1cae885e","1","653a6a7224e6c0bfb644ff9b","1","2025-07-09T08:38:43.742Z","","","","","","","","","","","","","","","","","","","","","","","","","","","","","","","","","","","","","","","","","",""
"11091","","","","fullscreen","1","14534","0.0-1.0","3","1","2025-07-09 08:38:39","01610cd0009c79a99da7d0a3353eb402","105.216.70.10","Mozilla/5.0 (Windows NT 10.0; Win64; x64) AppleWebKit/537.36 (KHTML, like Gecko) Chrome/138.0.0.0 Safari/537.36","WebKit","Chrome","138.0.0.0","Windows","10.0","https://app.prolific.com/","en-ZA,en-GB;q=0.9,en-US;q=0.8,en;q=0.7","653a6a7224e6c0bfb644ff9b","683db7602f5db6a34d12d064","686e2a6a39f0de6b1cae885e","1","653a6a7224e6c0bfb644ff9b","1","","true","","","","","","","","","","","","","","","","","","","","","","","","","","","","","","","","","","","","","","","","",""
"4392","1752050340259","<p style='font-size:1.1em;line-height:1.25'>In the following, we will ask you a few questions relating to your feelings in the last 24 hours.<br></p><p style='font-size:1.1em;line-height:1.25'>Press the <strong>Next</strong> button to continue.</p>","0","custom-html-button-response","2","18930","0.0-2.0-0.0","3","1","2025-07-09 08:38:39","01610cd0009c79a99da7d0a3353eb402","105.216.70.10","Mozilla/5.0 (Windows NT 10.0; Win64; x64) AppleWebKit/537.36 (KHTML, like Gecko) Chrome/138.0.0.0 Safari/537.36","WebKit","Chrome","138.0.0.0","Windows","10.0","https://app.prolific.com/","en-ZA,en-GB;q=0.9,en-US;q=0.8,en;q=0.7","653a6a7224e6c0bfb644ff9b","683db7602f5db6a34d12d064","686e2a6a39f0de6b1cae885e","1","653a6a7224e6c0bfb644ff9b","1","2025-07-09T08:39:00.260Z","","","","","","","","","","","","","","","","","","","","","","","","","","","","","","","","","","","","","","","","","",""
"96543.10000002384","","","","survey-template","3","115486","0.0-2.0-1.0","3","1","2025-07-09 08:38:39","01610cd0009c79a99da7d0a3353eb402","105.216.70.10","Mozilla/5.0 (Windows NT 10.0; Win64; x64) AppleWebKit/537.36 (KHTML, like Gecko) Chrome/138.0.0.0 Safari/537.36","WebKit","Chrome","138.0.0.0","Windows","10.0","https://app.prolific.com/","en-ZA,en-GB;q=0.9,en-US;q=0.8,en;q=0.7","653a6a7224e6c0bfb644ff9b","683db7602f5db6a34d12d064","686e2a6a39f0de6b1cae885e","1","653a6a7224e6c0bfb644ff9b","1","2025-07-09T08:40:36.816Z","","{""Q01"":""3"",""Q02"":""4"",""Q03"":""4"",""Q04"":""5"",""Q05"":""4"",""Q06"":""4"",""Q07"":""4"",""Q08"":""2"",""Q09"":""2"",""Q10"":""3"",""Q11"":""4"",""Q12"":""3"",""Q13"":""5"",""Q14"":""3"",""Q15"":""1"",""Q16"":""1"",""Q17"":""5"",""Q18"":""0"",""Q19"":""3"",""Q20"":""4"",""Q21"":""4"",""Q22"":""3""}","[0,1,2,3,4,5,6,7,8,9,10,11,12,13,14,15,16,17,18,19,20,21]","[""Q01"",""Q02"",""Q03"",""Q04"",""Q05"",""Q06"",""Q07"",""Q08"",""Q09"",""Q10"",""Q11"",""Q12"",""Q13"",""Q14"",""Q15"",""Q16"",""Q17"",""Q18"",""Q19"",""Q20"",""Q21"",""Q22""]","[3675.100000023842,5548.200000047684,10820.5,12133.399999976158,13971.399999976158,19798.399999976158,21995.899999976158,26151,31062.800000071526,34325.5,35878.200000047684,38030.800000071526,41856,44173.5,50144.300000071526,58521.5,60447.89999997616,65383.10000002384,74601.30000007153,83510.39999997616,88018.39999997616,91130.39999997616]","[]","[0.10000002384185791,3675.100000023842,5548.200000047684,9216.399999976158,10820.5,12133.399999976158,13971.399999976158,19798.399999976158,21995.899999976158,24952.100000023842,26151,31062.800000071526,33538.800000071526,34325.5,35878.200000047684,38030.800000071526,41856,44173.5,49394.10000002384,50144.300000071526,56353.39999997616,56915.700000047684,57680.5,58521.5,60447.89999997616,64005.200000047684,65383.10000002384,74055,74601.30000007153,83510.39999997616,88018.39999997616,89976,91130.39999997616,96536.5]","0.36363636363636365","0.42857142857142855","0","drsp","","","","","","","","","","","","","","","","","","","","","","","","","","","","","","",""
"18993.399999976158","","","","survey-template","4","134484","0.0-2.0-2.0","3","1","2025-07-09 08:38:39","01610cd0009c79a99da7d0a3353eb402","105.216.70.10","Mozilla/5.0 (Windows NT 10.0; Win64; x64) AppleWebKit/537.36 (KHTML, like Gecko) Chrome/138.0.0.0 Safari/537.36","WebKit","Chrome","138.0.0.0","Windows","10.0","https://app.prolific.com/","en-ZA,en-GB;q=0.9,en-US;q=0.8,en;q=0.7","653a6a7224e6c0bfb644ff9b","683db7602f5db6a34d12d064","686e2a6a39f0de6b1cae885e","1","653a6a7224e6c0bfb644ff9b","1","2025-07-09T08:40:55.814Z","","{""Q01"":""4"",""Q02"":""4"",""Q03"":""4""}","[0,1,2]","[""Q01"",""Q02"",""Q03""]","[7802,8874.199999928474,16509.399999976158]","[]","[3667.5,7802,8874.199999928474,15571.299999952316,16509.399999976158,18991.299999952316]","0.6666666666666666","0","0","stress","","","","","","","","","","","","","","","","","","","","","","","","","","","","","","",""
"23205","","","","instructions","5","157694","0.0-3.0-0.0","3","1","2025-07-09 08:38:39","01610cd0009c79a99da7d0a3353eb402","105.216.70.10","Mozilla/5.0 (Windows NT 10.0; Win64; x64) AppleWebKit/537.36 (KHTML, like Gecko) Chrome/138.0.0.0 Safari/537.36","WebKit","Chrome","138.0.0.0","Windows","10.0","https://app.prolific.com/","en-ZA,en-GB;q=0.9,en-US;q=0.8,en;q=0.7","653a6a7224e6c0bfb644ff9b","683db7602f5db6a34d12d064","686e2a6a39f0de6b1cae885e","1","653a6a7224e6c0bfb644ff9b","1","","","","","","","","","","","","","[{""page_index"":0,""viewing_time"":23204}]","","","","","","","","","","","","","","","","","","","","","","","","","","","","","",""
"4538","","<p>Before you start with this game please answer the following three questions yourself. </p>
  <p>Through this game, we measure several aspects of your cognitive performance, such as reaction times, multi-tasking capabilities </p>
  <p>and the ability to assess the situation you are in.</p>
  <p></p>
  <p><b>How good do you usually are in such tasks?</b></p>","61","html-slider-response","6","162241","0.0-4.0-0.0","3","1","2025-07-09 08:38:39","01610cd0009c79a99da7d0a3353eb402","105.216.70.10","Mozilla/5.0 (Windows NT 10.0; Win64; x64) AppleWebKit/537.36 (KHTML, like Gecko) Chrome/138.0.0.0 Safari/537.36","WebKit","Chrome","138.0.0.0","Windows","10.0","https://app.prolific.com/","en-ZA,en-GB;q=0.9,en-US;q=0.8,en;q=0.7","653a6a7224e6c0bfb644ff9b","683db7602f5db6a34d12d064","686e2a6a39f0de6b1cae885e","1","653a6a7224e6c0bfb644ff9b","1","2025-07-09T08:41:23.571Z","","","","","","","","","","","PreSkillQ","","50","","","","","","","","","","","","","","","","","","","","","","","","","","","","",""
"4946","","<div style=""width:500px;"">
  <p>How well do you think you will perform in this task compared to other participants?</p>
  </div>","60","html-slider-response","7","167189","0.0-4.0-1.0","3","1","2025-07-09 08:38:39","01610cd0009c79a99da7d0a3353eb402","105.216.70.10","Mozilla/5.0 (Windows NT 10.0; Win64; x64) AppleWebKit/537.36 (KHTML, like Gecko) Chrome/138.0.0.0 Safari/537.36","WebKit","Chrome","138.0.0.0","Windows","10.0","https://app.prolific.com/","en-ZA,en-GB;q=0.9,en-US;q=0.8,en;q=0.7","653a6a7224e6c0bfb644ff9b","683db7602f5db6a34d12d064","686e2a6a39f0de6b1cae885e","1","653a6a7224e6c0bfb644ff9b","1","2025-07-09T08:41:28.520Z","","","","","","","","","","","PrePerfQ","","50","","","","","","","","","","","","","","","","","","","","","","","","","","","","",""
"7678","","<div style=""width:500px;"">
  <p>What best describes how you currently feel?</p>
  </div>","77","html-slider-response","8","174871","0.0-4.0-2.0","3","1","2025-07-09 08:38:39","01610cd0009c79a99da7d0a3353eb402","105.216.70.10","Mozilla/5.0 (Windows NT 10.0; Win64; x64) AppleWebKit/537.36 (KHTML, like Gecko) Chrome/138.0.0.0 Safari/537.36","WebKit","Chrome","138.0.0.0","Windows","10.0","https://app.prolific.com/","en-ZA,en-GB;q=0.9,en-US;q=0.8,en;q=0.7","653a6a7224e6c0bfb644ff9b","683db7602f5db6a34d12d064","686e2a6a39f0de6b1cae885e","1","653a6a7224e6c0bfb644ff9b","1","2025-07-09T08:41:36.201Z","","","","","","","","","","","PreMotivationQ","","50","","","","","","","","","","","","","","","","","","","","","","","","","","","","",""
"","","","","ctl-task-cpt","9","202262","0.0-5.0-0.0","3","1","2025-07-09 08:38:39","01610cd0009c79a99da7d0a3353eb402","105.216.70.10","Mozilla/5.0 (Windows NT 10.0; Win64; x64) AppleWebKit/537.36 (KHTML, like Gecko) Chrome/138.0.0.0 Safari/537.36","WebKit","Chrome","138.0.0.0","Windows","10.0","https://app.prolific.com/","en-ZA,en-GB;q=0.9,en-US;q=0.8,en;q=0.7","653a6a7224e6c0bfb644ff9b","683db7602f5db6a34d12d064","686e2a6a39f0de6b1cae885e","1","653a6a7224e6c0bfb644ff9b","1","2025-07-09T08:42:03.592Z","","","","","","","","","","","","","","win-only","2","g1:SE,g2:NW","1","1","0","177843.9","4130.4","9153.3","24363.5","1","4","8","6","1","1","1","1","0","0.007575757575757576","5022.8","3000","1150","[""down"",""right""]","{""num_key_presses"":6,""num_perfect"":6,""num_errors"":0,""num_randdir"":0,""num_randdir_good_moves"":0,""num_whilered"":0,""num_whileblue"":0,""num_blue"":0,""num_good_moves"":5}","[298.22232142857143,297.12857142857143,15.4,298.22232142857143,297.12857142857143,101.5,298.22232142857143,297.12857142857143,202.3,298.22232142857143,297.12857142857143,305.2,298.22232142857143,297.12857142857143,414.7,298.22232142857143,297.12857142857143,515.4,298.22232142857143,297.12857142857143,619.6,298.22232142857143,297.12857142857143,719.8,298.22232142857143,297.12857142857143,824.4,298.22232142857143,297.12857142857143,928.1,298.22232142857143,297.12857142857143,1029.8,298.22232142857143,297.12857142857143,1129.8,298.22232142857143,297.12857142857143,1237.1,298.22232142857143,297.12857142857143,1339,298.22232142857143,297.12857142857143,1446.1,298.22232142857143,297.12857142857143,1546.1,298.22232142857143,297.12857142857143,1652.2,298.22232142857143,297.12857142857143,1757.8,298.22232142857143,297.12857142857143,1863.8,298.22232142857143,297.12857142857143,1973.7,298.22232142857143,297.12857142857143,2079.5,298.22232142857143,297.12857142857143,2188,298.22232142857143,297.12857142857143,2289.5,298.22232142857143,297.12857142857143,2394.8,298.22232142857143,297.12857142857143,2496.4,298.22232142857143,297.12857142857143,2611.9,298.22232142857143,297.12857142857143,2715.6,298.22232142857143,297.12857142857143,2819.8,298.22232142857143,297.12857142857143,2928.7,298.22232142857143,297.12857142857143,3030.7,298.22232142857143,297.12857142857143,3132.3,298.22232142857143,297.12857142857143,3237.8,298.22232142857143,297.12857142857143,3345.4,298.22232142857143,297.12857142857143,3449.5,298.22232142857143,297.12857142857143,3550,298.22232142857143,297.12857142857143,3652.2,298.22232142857143,297.12857142857143,3755.2,298.22232142857143,297.12857142857143,3855.4,298.22232142857143,297.12857142857143,3956.1,298.22232142857143,297.12857142857143,4062.3,298.22232142857143,297.12857142857143,4169.1,298.22232142857143,297.12857142857143,4273.1,298.22232142857143,297.12857142857143,4377,298.22232142857143,297.12857142857143,4479,298.22232142857143,297.12857142857143,4581.3,298.22232142857143,297.12857142857143,4682.4,298.22232142857143,297.12857142857143,4786.4,298.22232142857143,297.12857142857143,4894.6,298.22232142857143,297.12857142857143,4995.9]","[1528.5,1528.4,1000,0.1,528.4,""smooth"",""up"",""up"",""bad_move"",4198.5,2669.1,2202.7,1529.6,466.2,""smooth"",""down"",""down"",""good_move"",7323.9,3124.6,2594.7,4199.3,529.9,""smooth"",""down"",""down"",""good_move"",9641.7,2316.5,1733.8,7325.3,582.6,""smooth"",""right"",""right"",""good_move"",12362.5,2719.4,2340.3,9643.2,379.1,""smooth"",""down"",""down"",""good_move"",15092.9,2729.7,2343.8,12363.2,385.9,""smooth"",""right"",""right"",""good_move""]","",""
"4421","","<div style=""width:500px;"">
  <p>What determined the result of this run?</p>
  </div>","100","html-slider-response","10","206689","0.0-5.0-1.0","3","1","2025-07-09 08:38:39","01610cd0009c79a99da7d0a3353eb402","105.216.70.10","Mozilla/5.0 (Windows NT 10.0; Win64; x64) AppleWebKit/537.36 (KHTML, like Gecko) Chrome/138.0.0.0 Safari/537.36","WebKit","Chrome","138.0.0.0","Windows","10.0","https://app.prolific.com/","en-ZA,en-GB;q=0.9,en-US;q=0.8,en;q=0.7","653a6a7224e6c0bfb644ff9b","683db7602f5db6a34d12d064","686e2a6a39f0de6b1cae885e","1","653a6a7224e6c0bfb644ff9b","1","2025-07-09T08:42:08.019Z","","","","","","","","","","","AttribQ","","50","","","","","","","","","","","","","","","","","","","","","","","","","","","","",""
"3682","","<div style=""width:500px;"">
  <p>How much control did you have over the ball?</p>
  </div>","87","html-slider-response","11","210374","0.0-5.0-2.0","3","1","2025-07-09 08:38:39","01610cd0009c79a99da7d0a3353eb402","105.216.70.10","Mozilla/5.0 (Windows NT 10.0; Win64; x64) AppleWebKit/537.36 (KHTML, like Gecko) Chrome/138.0.0.0 Safari/537.36","WebKit","Chrome","138.0.0.0","Windows","10.0","https://app.prolific.com/","en-ZA,en-GB;q=0.9,en-US;q=0.8,en;q=0.7","653a6a7224e6c0bfb644ff9b","683db7602f5db6a34d12d064","686e2a6a39f0de6b1cae885e","1","653a6a7224e6c0bfb644ff9b","1","2025-07-09T08:42:11.704Z","","","","","","","","","","","ControlQ","","50","","","","","","","","","","","","","","","","","","","","","","","","","","","","",""
"4035","","<div style=""width:500px;"">
  <p>How would you describe your current emotional state?</p>
  </div>","81","html-slider-response","12","214412","0.0-5.0-3.0","3","1","2025-07-09 08:38:39","01610cd0009c79a99da7d0a3353eb402","105.216.70.10","Mozilla/5.0 (Windows NT 10.0; Win64; x64) AppleWebKit/537.36 (KHTML, like Gecko) Chrome/138.0.0.0 Safari/537.36","WebKit","Chrome","138.0.0.0","Windows","10.0","https://app.prolific.com/","en-ZA,en-GB;q=0.9,en-US;q=0.8,en;q=0.7","653a6a7224e6c0bfb644ff9b","683db7602f5db6a34d12d064","686e2a6a39f0de6b1cae885e","1","653a6a7224e6c0bfb644ff9b","1","2025-07-09T08:42:15.742Z","","","","","","","","","","","StressQ","","50","","","","","","","","","","","","","","","","","","","","","","","","","","","","",""
"5102","","<div style=""width:500px;"">
  <p>What best describes how you currently feel?</p>
  </div>","69","html-slider-response","13","219518","0.0-5.0-4.0","3","1","2025-07-09 08:38:39","01610cd0009c79a99da7d0a3353eb402","105.216.70.10","Mozilla/5.0 (Windows NT 10.0; Win64; x64) AppleWebKit/537.36 (KHTML, like Gecko) Chrome/138.0.0.0 Safari/537.36","WebKit","Chrome","138.0.0.0","Windows","10.0","https://app.prolific.com/","en-ZA,en-GB;q=0.9,en-US;q=0.8,en;q=0.7","653a6a7224e6c0bfb644ff9b","683db7602f5db6a34d12d064","686e2a6a39f0de6b1cae885e","1","653a6a7224e6c0bfb644ff9b","1","2025-07-09T08:42:20.849Z","","","","","","","","","","","MotivationQ","","50","","","","","","","","","","","","","","","","","","","","","","","","","","","","",""
"","","","","ctl-task-cpt","14","253555","0.0-5.0-0.1","3","1","2025-07-09 08:38:39","01610cd0009c79a99da7d0a3353eb402","105.216.70.10","Mozilla/5.0 (Windows NT 10.0; Win64; x64) AppleWebKit/537.36 (KHTML, like Gecko) Chrome/138.0.0.0 Safari/537.36","WebKit","Chrome","138.0.0.0","Windows","10.0","https://app.prolific.com/","en-ZA,en-GB;q=0.9,en-US;q=0.8,en;q=0.7","653a6a7224e6c0bfb644ff9b","683db7602f5db6a34d12d064","686e2a6a39f0de6b1cae885e","1","653a6a7224e6c0bfb644ff9b","1","2025-07-09T08:42:54.885Z","","","","","","","","","","","","","","win-only","3","g1:SW,g2:NE","0.9","2","0","222469.9","2467.2","7474.9","31024.5","1","4","4","6","2","4","4","5","1","0.03787878787878788","5007.7","3000","540","[""up"",""right""]","{""num_key_presses"":6,""num_perfect"":6,""num_errors"":0,""num_randdir"":0,""num_randdir_good_moves"":0,""num_whilered"":0,""num_whileblue"":0,""num_blue"":2,""num_good_moves"":6}","[295.22232142857143,300.12857142857143,1.4,295.22232142857143,300.12857142857143,101.6,295.22232142857143,300.12857142857143,211.8,295.22232142857143,300.12857142857143,314.2,295.22232142857143,300.12857142857143,415.2,295.22232142857143,300.12857142857143,526.5,295.22232142857143,300.12857142857143,628.5,295.22232142857143,300.12857142857143,730.8,295.22232142857143,300.12857142857143,831.7,295.22232142857143,300.12857142857143,932.2,295.22232142857143,300.12857142857143,1032.3,295.22232142857143,300.12857142857143,1139.3,295.22232142857143,300.12857142857143,1247.4,295.22232142857143,300.12857142857143,1354.7,295.22232142857143,300.12857142857143,1465.3,295.22232142857143,300.12857142857143,1566.4,295.22232142857143,300.12857142857143,1673.4,295.22232142857143,300.12857142857143,1774.9,295.22232142857143,300.12857142857143,1881.5,295.22232142857143,300.12857142857143,1989.4,295.22232142857143,300.12857142857143,2091.3,295.22232142857143,300.12857142857143,2196,295.22232142857143,300.12857142857143,2305.7,295.22232142857143,300.12857142857143,2407.8,295.22232142857143,300.12857142857143,2511.8,295.22232142857143,300.12857142857143,2615.3,295.22232142857143,300.12857142857143,2716.1,295.22232142857143,300.12857142857143,2822.1,295.22232142857143,300.12857142857143,2930.7,295.22232142857143,300.12857142857143,3038.9,295.22232142857143,300.12857142857143,3140.4,295.22232142857143,300.12857142857143,3242,295.22232142857143,300.12857142857143,3353.3,295.22232142857143,300.12857142857143,3455.1,295.22232142857143,300.12857142857143,3567,295.22232142857143,300.12857142857143,3670.3,295.22232142857143,300.12857142857143,3773.4,295.22232142857143,300.12857142857143,3874,295.22232142857143,300.12857142857143,3976.6,295.22232142857143,300.12857142857143,4081.2,295.22232142857143,300.12857142857143,4190.7,295.22232142857143,300.12857142857143,4295.7,295.22232142857143,300.12857142857143,4397.3,295.22232142857143,300.12857142857143,4499.6,295.22232142857143,300.12857142857143,4600.3,295.22232142857143,300.12857142857143,4703,295.22232142857143,300.12857142857143,4812.5,295.22232142857143,300.12857142857143,4915.2]","[5048,5048,2554.1,2007.5,486.4,""smooth"",""up"",""up"",""good_move"",7536.4,2487.8,1897.3,5048.6,590.5,""smooth"",""up"",""up"",""good_move"",10773.6,3236.6,2686,7537,550.6,""smooth"",""right"",""right"",""good_move"",13724.7,2949.4,2106.2,10775.3,843.2,""smooth"",""up"",""up"",""good_move"",16889.2,3162.4,2555.6,13726.8,606.8,""smooth"",""right"",""right"",""good_move"",23410.1,6520,2717.1,20172.9,520.1,""smooth"",""right"",""right"",""good_move""]","",""
"2836","","<div style=""width:500px;"">
  <p>What determined the result of this run?</p>
  </div>","90","html-slider-response","15","256394","0.0-5.0-1.1","3","1","2025-07-09 08:38:39","01610cd0009c79a99da7d0a3353eb402","105.216.70.10","Mozilla/5.0 (Windows NT 10.0; Win64; x64) AppleWebKit/537.36 (KHTML, like Gecko) Chrome/138.0.0.0 Safari/537.36","WebKit","Chrome","138.0.0.0","Windows","10.0","https://app.prolific.com/","en-ZA,en-GB;q=0.9,en-US;q=0.8,en;q=0.7","653a6a7224e6c0bfb644ff9b","683db7602f5db6a34d12d064","686e2a6a39f0de6b1cae885e","1","653a6a7224e6c0bfb644ff9b","1","2025-07-09T08:42:57.724Z","","","","","","","","","","","AttribQ","","50","","","","","","","","","","","","","","","","","","","","","","","","","","","","",""
"2434","","<div style=""width:500px;"">
  <p>How much control did you have over the ball?</p>
  </div>","77","html-slider-response","16","258830","0.0-5.0-2.1","3","1","2025-07-09 08:38:39","01610cd0009c79a99da7d0a3353eb402","105.216.70.10","Mozilla/5.0 (Windows NT 10.0; Win64; x64) AppleWebKit/537.36 (KHTML, like Gecko) Chrome/138.0.0.0 Safari/537.36","WebKit","Chrome","138.0.0.0","Windows","10.0","https://app.prolific.com/","en-ZA,en-GB;q=0.9,en-US;q=0.8,en;q=0.7","653a6a7224e6c0bfb644ff9b","683db7602f5db6a34d12d064","686e2a6a39f0de6b1cae885e","1","653a6a7224e6c0bfb644ff9b","1","2025-07-09T08:43:00.160Z","","","","","","","","","","","ControlQ","","50","","","","","","","","","","","","","","","","","","","","","","","","","","","","",""
"3343","","<div style=""width:500px;"">
  <p>How would you describe your current emotional state?</p>
  </div>","79","html-slider-response","17","262178","0.0-5.0-3.1","3","1","2025-07-09 08:38:39","01610cd0009c79a99da7d0a3353eb402","105.216.70.10","Mozilla/5.0 (Windows NT 10.0; Win64; x64) AppleWebKit/537.36 (KHTML, like Gecko) Chrome/138.0.0.0 Safari/537.36","WebKit","Chrome","138.0.0.0","Windows","10.0","https://app.prolific.com/","en-ZA,en-GB;q=0.9,en-US;q=0.8,en;q=0.7","653a6a7224e6c0bfb644ff9b","683db7602f5db6a34d12d064","686e2a6a39f0de6b1cae885e","1","653a6a7224e6c0bfb644ff9b","1","2025-07-09T08:43:03.508Z","","","","","","","","","","","StressQ","","50","","","","","","","","","","","","","","","","","","","","","","","","","","","","",""
"2861","","<div style=""width:500px;"">
  <p>What best describes how you currently feel?</p>
  </div>","71","html-slider-response","18","265042","0.0-5.0-4.1","3","1","2025-07-09 08:38:39","01610cd0009c79a99da7d0a3353eb402","105.216.70.10","Mozilla/5.0 (Windows NT 10.0; Win64; x64) AppleWebKit/537.36 (KHTML, like Gecko) Chrome/138.0.0.0 Safari/537.36","WebKit","Chrome","138.0.0.0","Windows","10.0","https://app.prolific.com/","en-ZA,en-GB;q=0.9,en-US;q=0.8,en;q=0.7","653a6a7224e6c0bfb644ff9b","683db7602f5db6a34d12d064","686e2a6a39f0de6b1cae885e","1","653a6a7224e6c0bfb644ff9b","1","2025-07-09T08:43:06.372Z","","","","","","","","","","","MotivationQ","","50","","","","","","","","","","","","","","","","","","","","","","","","","","","","",""
"","","","","ctl-task-cpt","19","299894","0.0-5.0-0.2","3","1","2025-07-09 08:38:39","01610cd0009c79a99da7d0a3353eb402","105.216.70.10","Mozilla/5.0 (Windows NT 10.0; Win64; x64) AppleWebKit/537.36 (KHTML, like Gecko) Chrome/138.0.0.0 Safari/537.36","WebKit","Chrome","138.0.0.0","Windows","10.0","https://app.prolific.com/","en-ZA,en-GB;q=0.9,en-US;q=0.8,en;q=0.7","653a6a7224e6c0bfb644ff9b","683db7602f5db6a34d12d064","686e2a6a39f0de6b1cae885e","1","653a6a7224e6c0bfb644ff9b","1","2025-07-09T08:43:41.225Z","","","","","","","","","","","","","","win-only","3","g1:SW,g2:NE","0.8","3","0","267997.9","1770.9","6781.7","31836.4","1","4","4","6","1","1","1","6","5","0.045454545454545456","5010.8","3000","575","[""down"",""left""]","{""num_key_presses"":6,""num_perfect"":5,""num_errors"":0,""num_randdir"":1,""num_randdir_good_moves"":0,""num_whilered"":0,""num_whileblue"":0,""num_blue"":2,""num_good_moves"":5}","[300.22232142857143,294.12857142857143,14.3,300.22232142857143,294.12857142857143,101.8,300.22232142857143,294.12857142857143,201.9,300.22232142857143,294.12857142857143,311,300.22232142857143,294.12857142857143,413.3,300.22232142857143,294.12857142857143,517.9,300.22232142857143,294.12857142857143,621.6,300.22232142857143,294.12857142857143,723.1,300.22232142857143,294.12857142857143,835.8,300.22232142857143,294.12857142857143,936.4,300.22232142857143,294.12857142857143,1040.4,300.22232142857143,294.12857142857143,1141.5,300.22232142857143,294.12857142857143,1242.3,300.22232142857143,294.12857142857143,1353.8,300.22232142857143,294.12857142857143,1456.8,300.22232142857143,294.12857142857143,1562.9,300.22232142857143,294.12857142857143,1663.1,300.22232142857143,294.12857142857143,1763.5,300.22232142857143,294.12857142857143,1869.9,300.22232142857143,294.12857142857143,1977.9,300.22232142857143,294.12857142857143,2085.8,300.22232142857143,294.12857142857143,2193.8,300.22232142857143,294.12857142857143,2294.7,300.22232142857143,294.12857142857143,2399.1,300.22232142857143,294.12857142857143,2502,300.22232142857143,294.12857142857143,2611.5,300.22232142857143,294.12857142857143,2717.6,300.22232142857143,294.12857142857143,2819.3,300.22232142857143,294.12857142857143,2920.8,300.22232142857143,294.12857142857143,3027.4,300.22232142857143,294.12857142857143,3128.2,300.22232142857143,294.12857142857143,3233,300.22232142857143,294.12857142857143,3342.6,300.22232142857143,294.12857142857143,3443,300.22232142857143,294.12857142857143,3545.5,300.22232142857143,294.12857142857143,3649.7,300.22232142857143,294.12857142857143,3752.8,300.22232142857143,294.12857142857143,3861.6,300.22232142857143,294.12857142857143,3965,300.22232142857143,294.12857142857143,4072.5,300.22232142857143,294.12857142857143,4176.7,300.22232142857143,294.12857142857143,4280.3,300.22232142857143,294.12857142857143,4383.4,300.22232142857143,294.12857142857143,4485.4,300.22232142857143,294.12857142857143,4594.2,300.22232142857143,294.12857142857143,4694.6,300.22232142857143,294.12857142857143,4794.8,300.22232142857143,294.12857142857143,4895.4,300.22232142857143,294.12857142857143,4996]","[8812.4,8812.4,2306.4,6044.1,461.9,""smooth"",""down"",""down"",""good_move"",12041.9,3227.9,2644.5,8814,583.4,""oops"",""left"",""right"",""bad_move"",15140.8,3098.1,2411.7,12042.7,686.4,""smooth"",""left"",""left"",""good_move"",18860.5,3719.3,3167.5,15141.2,551.8,""smooth"",""left"",""left"",""good_move"",22378.6,3518,2927.9,18860.7,590.1,""smooth"",""left"",""left"",""good_move"",24926.4,2547.1,1908,22379.3,639.1,""smooth"",""down"",""down"",""good_move""]","",""
"2507","","<div style=""width:500px;"">
  <p>What determined the result of this run?</p>
  </div>","89","html-slider-response","20","302408","0.0-5.0-1.2","3","1","2025-07-09 08:38:39","01610cd0009c79a99da7d0a3353eb402","105.216.70.10","Mozilla/5.0 (Windows NT 10.0; Win64; x64) AppleWebKit/537.36 (KHTML, like Gecko) Chrome/138.0.0.0 Safari/537.36","WebKit","Chrome","138.0.0.0","Windows","10.0","https://app.prolific.com/","en-ZA,en-GB;q=0.9,en-US;q=0.8,en;q=0.7","653a6a7224e6c0bfb644ff9b","683db7602f5db6a34d12d064","686e2a6a39f0de6b1cae885e","1","653a6a7224e6c0bfb644ff9b","1","2025-07-09T08:43:43.738Z","","","","","","","","","","","AttribQ","","50","","","","","","","","","","","","","","","","","","","","","","","","","","","","",""
"1976","","<div style=""width:500px;"">
  <p>How much control did you have over the ball?</p>
  </div>","59","html-slider-response","21","304386","0.0-5.0-2.2","3","1","2025-07-09 08:38:39","01610cd0009c79a99da7d0a3353eb402","105.216.70.10","Mozilla/5.0 (Windows NT 10.0; Win64; x64) AppleWebKit/537.36 (KHTML, like Gecko) Chrome/138.0.0.0 Safari/537.36","WebKit","Chrome","138.0.0.0","Windows","10.0","https://app.prolific.com/","en-ZA,en-GB;q=0.9,en-US;q=0.8,en;q=0.7","653a6a7224e6c0bfb644ff9b","683db7602f5db6a34d12d064","686e2a6a39f0de6b1cae885e","1","653a6a7224e6c0bfb644ff9b","1","2025-07-09T08:43:45.717Z","","","","","","","","","","","ControlQ","","50","","","","","","","","","","","","","","","","","","","","","","","","","","","","",""
"1996","","<div style=""width:500px;"">
  <p>How would you describe your current emotional state?</p>
  </div>","89","html-slider-response","22","306385","0.0-5.0-3.2","3","1","2025-07-09 08:38:39","01610cd0009c79a99da7d0a3353eb402","105.216.70.10","Mozilla/5.0 (Windows NT 10.0; Win64; x64) AppleWebKit/537.36 (KHTML, like Gecko) Chrome/138.0.0.0 Safari/537.36","WebKit","Chrome","138.0.0.0","Windows","10.0","https://app.prolific.com/","en-ZA,en-GB;q=0.9,en-US;q=0.8,en;q=0.7","653a6a7224e6c0bfb644ff9b","683db7602f5db6a34d12d064","686e2a6a39f0de6b1cae885e","1","653a6a7224e6c0bfb644ff9b","1","2025-07-09T08:43:47.715Z","","","","","","","","","","","StressQ","","50","","","","","","","","","","","","","","","","","","","","","","","","","","","","",""
"2537","","<div style=""width:500px;"">
  <p>What best describes how you currently feel?</p>
  </div>","71","html-slider-response","23","308926","0.0-5.0-4.2","3","1","2025-07-09 08:38:39","01610cd0009c79a99da7d0a3353eb402","105.216.70.10","Mozilla/5.0 (Windows NT 10.0; Win64; x64) AppleWebKit/537.36 (KHTML, like Gecko) Chrome/138.0.0.0 Safari/537.36","WebKit","Chrome","138.0.0.0","Windows","10.0","https://app.prolific.com/","en-ZA,en-GB;q=0.9,en-US;q=0.8,en;q=0.7","653a6a7224e6c0bfb644ff9b","683db7602f5db6a34d12d064","686e2a6a39f0de6b1cae885e","1","653a6a7224e6c0bfb644ff9b","1","2025-07-09T08:43:50.256Z","","","","","","","","","","","MotivationQ","","50","","","","","","","","","","","","","","","","","","","","","","","","","","","","",""
"","","","","ctl-task-cpt","24","336655","0.0-5.0-0.3","3","1","2025-07-09 08:38:39","01610cd0009c79a99da7d0a3353eb402","105.216.70.10","Mozilla/5.0 (Windows NT 10.0; Win64; x64) AppleWebKit/537.36 (KHTML, like Gecko) Chrome/138.0.0.0 Safari/537.36","WebKit","Chrome","138.0.0.0","Windows","10.0","https://app.prolific.com/","en-ZA,en-GB;q=0.9,en-US;q=0.8,en;q=0.7","653a6a7224e6c0bfb644ff9b","683db7602f5db6a34d12d064","686e2a6a39f0de6b1cae885e","1","653a6a7224e6c0bfb644ff9b","1","2025-07-09T08:44:17.985Z","","","","","","","","","","","","","","win-only","1","g1:NE,g2:SW","0.7","4","0","311884.2","2154.2","7164.4","24716.1","1","4","8","6","1","1","1","7","6","0.05303030303030303","5010.2","3000","1560","[""up"",""right""]","{""num_key_presses"":4,""num_perfect"":3,""num_errors"":0,""num_randdir"":1,""num_randdir_good_moves"":1,""num_whilered"":0,""num_whileblue"":0,""num_blue"":2,""num_good_moves"":4}","[299.22232142857143,299.12857142857143,0.4,299.22232142857143,299.12857142857143,103.6,299.22232142857143,299.12857142857143,207.4,299.22232142857143,299.12857142857143,308.8,299.22232142857143,299.12857142857143,412.5,299.22232142857143,299.12857142857143,517.4,299.22232142857143,299.12857142857143,625.1,299.22232142857143,299.12857142857143,725.3,299.22232142857143,299.12857142857143,834,299.22232142857143,299.12857142857143,935.9,299.22232142857143,299.12857142857143,1041.7,299.22232142857143,299.12857142857143,1150,299.22232142857143,299.12857142857143,1250.1,299.22232142857143,299.12857142857143,1358.6,299.22232142857143,299.12857142857143,1466.5,299.22232142857143,299.12857142857143,1566.6,299.22232142857143,299.12857142857143,1675.6,299.22232142857143,299.12857142857143,1776.7,299.22232142857143,299.12857142857143,1883.8,299.22232142857143,299.12857142857143,1989.7,299.22232142857143,299.12857142857143,2091.8,299.22232142857143,299.12857142857143,2192.6,299.22232142857143,299.12857142857143,2299.9,299.22232142857143,299.12857142857143,2409.7,299.22232142857143,299.12857142857143,2517.4,299.22232142857143,299.12857142857143,2625.9,299.22232142857143,299.12857142857143,2727.2,299.22232142857143,299.12857142857143,2840,299.22232142857143,299.12857142857143,2940.4,299.22232142857143,299.12857142857143,3041.7,299.22232142857143,299.12857142857143,3147,299.22232142857143,299.12857142857143,3248,299.22232142857143,299.12857142857143,3358.6,301.22232142857143,299.12857142857143,3459.8,302.22232142857143,299.12857142857143,3564.1,302.22232142857143,299.12857142857143,3668.7,302.22232142857143,299.12857142857143,3776.3,302.22232142857143,299.12857142857143,3877.3,302.22232142857143,299.12857142857143,3983.2,302.22232142857143,299.12857142857143,4084.5,302.22232142857143,299.12857142857143,4187.1,302.22232142857143,299.12857142857143,4299.7,302.22232142857143,299.12857142857143,4400.5,302.22232142857143,299.12857142857143,4501.7,302.22232142857143,299.12857142857143,4608.4,302.22232142857143,299.12857142857143,4714.5,302.22232142857143,299.12857142857143,4825.9,302.22232142857143,299.12857142857143,4933.2]","[1588.5,1588.5,1000,0,588.5,""smooth"",""up"",""up"",""good_move"",4488.7,2899.7,2405.5,1589,494.2,""smooth"",""up"",""up"",""good_move"",11638.1,7148.8,2432.7,8781.5,423.9,""smooth"",""right"",""right"",""good_move"",17432.6,5794,2270.7,14516.9,645,""oops"",""right"",""right"",""good_move""]","",""
"2851","","<div style=""width:500px;"">
  <p>What determined the result of this run?</p>
  </div>","80","html-slider-response","25","339507","0.0-5.0-1.3","3","1","2025-07-09 08:38:39","01610cd0009c79a99da7d0a3353eb402","105.216.70.10","Mozilla/5.0 (Windows NT 10.0; Win64; x64) AppleWebKit/537.36 (KHTML, like Gecko) Chrome/138.0.0.0 Safari/537.36","WebKit","Chrome","138.0.0.0","Windows","10.0","https://app.prolific.com/","en-ZA,en-GB;q=0.9,en-US;q=0.8,en;q=0.7","653a6a7224e6c0bfb644ff9b","683db7602f5db6a34d12d064","686e2a6a39f0de6b1cae885e","1","653a6a7224e6c0bfb644ff9b","1","2025-07-09T08:44:20.837Z","","","","","","","","","","","AttribQ","","50","","","","","","","","","","","","","","","","","","","","","","","","","","","","",""
"3571","","<div style=""width:500px;"">
  <p>How much control did you have over the ball?</p>
  </div>","83","html-slider-response","26","343080","0.0-5.0-2.3","3","1","2025-07-09 08:38:39","01610cd0009c79a99da7d0a3353eb402","105.216.70.10","Mozilla/5.0 (Windows NT 10.0; Win64; x64) AppleWebKit/537.36 (KHTML, like Gecko) Chrome/138.0.0.0 Safari/537.36","WebKit","Chrome","138.0.0.0","Windows","10.0","https://app.prolific.com/","en-ZA,en-GB;q=0.9,en-US;q=0.8,en;q=0.7","653a6a7224e6c0bfb644ff9b","683db7602f5db6a34d12d064","686e2a6a39f0de6b1cae885e","1","653a6a7224e6c0bfb644ff9b","1","2025-07-09T08:44:24.411Z","","","","","","","","","","","ControlQ","","50","","","","","","","","","","","","","","","","","","","","","","","","","","","","",""
"2298","","<div style=""width:500px;"">
  <p>How would you describe your current emotional state?</p>
  </div>","75","html-slider-response","27","345381","0.0-5.0-3.3","3","1","2025-07-09 08:38:39","01610cd0009c79a99da7d0a3353eb402","105.216.70.10","Mozilla/5.0 (Windows NT 10.0; Win64; x64) AppleWebKit/537.36 (KHTML, like Gecko) Chrome/138.0.0.0 Safari/537.36","WebKit","Chrome","138.0.0.0","Windows","10.0","https://app.prolific.com/","en-ZA,en-GB;q=0.9,en-US;q=0.8,en;q=0.7","653a6a7224e6c0bfb644ff9b","683db7602f5db6a34d12d064","686e2a6a39f0de6b1cae885e","1","653a6a7224e6c0bfb644ff9b","1","2025-07-09T08:44:26.712Z","","","","","","","","","","","StressQ","","50","","","","","","","","","","","","","","","","","","","","","","","","","","","","",""
"6193","","<div style=""width:500px;"">
  <p>What best describes how you currently feel?</p>
  </div>","81","html-slider-response","28","351576","0.0-5.0-4.3","3","1","2025-07-09 08:38:39","01610cd0009c79a99da7d0a3353eb402","105.216.70.10","Mozilla/5.0 (Windows NT 10.0; Win64; x64) AppleWebKit/537.36 (KHTML, like Gecko) Chrome/138.0.0.0 Safari/537.36","WebKit","Chrome","138.0.0.0","Windows","10.0","https://app.prolific.com/","en-ZA,en-GB;q=0.9,en-US;q=0.8,en;q=0.7","653a6a7224e6c0bfb644ff9b","683db7602f5db6a34d12d064","686e2a6a39f0de6b1cae885e","1","653a6a7224e6c0bfb644ff9b","1","2025-07-09T08:44:32.907Z","","","","","","","","","","","MotivationQ","","50","","","","","","","","","","","","","","","","","","","","","","","","","","","","",""
"","","","","ctl-task-cpt","29","382365","0.0-5.0-0.4","3","1","2025-07-09 08:38:39","01610cd0009c79a99da7d0a3353eb402","105.216.70.10","Mozilla/5.0 (Windows NT 10.0; Win64; x64) AppleWebKit/537.36 (KHTML, like Gecko) Chrome/138.0.0.0 Safari/537.36","WebKit","Chrome","138.0.0.0","Windows","10.0","https://app.prolific.com/","en-ZA,en-GB;q=0.9,en-US;q=0.8,en;q=0.7","653a6a7224e6c0bfb644ff9b","683db7602f5db6a34d12d064","686e2a6a39f0de6b1cae885e","1","653a6a7224e6c0bfb644ff9b","1","2025-07-09T08:45:03.695Z","","","","","","","","","","","","","","win-only","2","g1:SE,g2:NW","0.6","5","0","354529","1136.2","6139.5","27773.3","1","4","4","6","2","-4","-4","3","7","0.022727272727272728","5003.3","3000","-1815","[""left"",""up""]","{""num_key_presses"":7,""num_perfect"":6,""num_errors"":0,""num_randdir"":1,""num_randdir_good_moves"":0,""num_whilered"":0,""num_whileblue"":0,""num_blue"":0,""num_good_moves"":6}","[301.22232142857143,296.12857142857143,0.3,301.22232142857143,296.12857142857143,107.3,301.22232142857143,296.12857142857143,215.6,301.22232142857143,296.12857142857143,326.8,301.22232142857143,296.12857142857143,428,301.22232142857143,296.12857142857143,528.3,301.22232142857143,296.12857142857143,630.6,301.22232142857143,296.12857142857143,737,301.22232142857143,296.12857142857143,840.5,301.22232142857143,296.12857142857143,940.9,301.22232142857143,296.12857142857143,1048.4,301.22232142857143,296.12857142857143,1148.4,301.22232142857143,296.12857142857143,1250.3,301.22232142857143,296.12857142857143,1356.5,301.22232142857143,296.12857142857143,1472.6,301.22232142857143,296.12857142857143,1577,301.22232142857143,296.12857142857143,1678,301.22232142857143,296.12857142857143,1789.3,301.22232142857143,296.12857142857143,1891,301.22232142857143,296.12857142857143,1997.2,301.22232142857143,296.12857142857143,2101.4,301.22232142857143,296.12857142857143,2203.8,301.22232142857143,296.12857142857143,2310.2,301.22232142857143,296.12857142857143,2411.6,301.22232142857143,296.12857142857143,2512.7,301.22232142857143,296.12857142857143,2617.6,301.22232142857143,296.12857142857143,2722.9,301.22232142857143,296.12857142857143,2827.3,301.22232142857143,296.12857142857143,2930.9,301.22232142857143,296.12857142857143,3041.6,301.22232142857143,296.12857142857143,3146.9,301.22232142857143,296.12857142857143,3247.8,301.22232142857143,296.12857142857143,3350,301.22232142857143,296.12857142857143,3450.4,301.22232142857143,296.12857142857143,3550.4,301.22232142857143,296.12857142857143,3650.4,301.22232142857143,296.12857142857143,3750.4,301.22232142857143,296.12857142857143,3862.9,301.22232142857143,296.12857142857143,3967.4,301.22232142857143,296.12857142857143,4068.7,301.22232142857143,296.12857142857143,4177.8,301.22232142857143,296.12857142857143,4278.7,301.22232142857143,296.12857142857143,4379.8,301.22232142857143,296.12857142857143,4480.3,301.22232142857143,296.12857142857143,4580.3,301.22232142857143,296.12857142857143,4686.9,301.22232142857143,296.12857142857143,4797.7,301.22232142857143,296.12857142857143,4902.4]","[1657.7,1657.7,1000,0,657.7,""smooth"",""left"",""left"",""good_move"",5046.4,3387.3,2828.5,1659.1,558.8,""smooth"",""left"",""left"",""good_move"",7986.5,2939.3,2387.7,5047.2,551.7,""oops"",""left"",""down"",""bad_move"",10967.4,2980.4,2447.4,7987.1,533,""smooth"",""left"",""left"",""good_move"",13623.2,2655.6,2054,10967.7,601.5,""smooth"",""up"",""up"",""good_move"",17054.8,3429.4,2830,13625.4,599.4,""smooth"",""up"",""up"",""good_move"",19367.7,2311.2,1613.8,17056.5,697.4,""smooth"",""up"",""up"",""good_move""]","",""
"2060","","<div style=""width:500px;"">
  <p>What determined the result of this run?</p>
  </div>","78","html-slider-response","30","384428","0.0-5.0-1.4","3","1","2025-07-09 08:38:39","01610cd0009c79a99da7d0a3353eb402","105.216.70.10","Mozilla/5.0 (Windows NT 10.0; Win64; x64) AppleWebKit/537.36 (KHTML, like Gecko) Chrome/138.0.0.0 Safari/537.36","WebKit","Chrome","138.0.0.0","Windows","10.0","https://app.prolific.com/","en-ZA,en-GB;q=0.9,en-US;q=0.8,en;q=0.7","653a6a7224e6c0bfb644ff9b","683db7602f5db6a34d12d064","686e2a6a39f0de6b1cae885e","1","653a6a7224e6c0bfb644ff9b","1","2025-07-09T08:45:05.759Z","","","","","","","","","","","AttribQ","","50","","","","","","","","","","","","","","","","","","","","","","","","","","","","",""
"3348","","<div style=""width:500px;"">
  <p>How much control did you have over the ball?</p>
  </div>","66","html-slider-response","31","387779","0.0-5.0-2.4","3","1","2025-07-09 08:38:39","01610cd0009c79a99da7d0a3353eb402","105.216.70.10","Mozilla/5.0 (Windows NT 10.0; Win64; x64) AppleWebKit/537.36 (KHTML, like Gecko) Chrome/138.0.0.0 Safari/537.36","WebKit","Chrome","138.0.0.0","Windows","10.0","https://app.prolific.com/","en-ZA,en-GB;q=0.9,en-US;q=0.8,en;q=0.7","653a6a7224e6c0bfb644ff9b","683db7602f5db6a34d12d064","686e2a6a39f0de6b1cae885e","1","653a6a7224e6c0bfb644ff9b","1","2025-07-09T08:45:09.109Z","","","","","","","","","","","ControlQ","","50","","","","","","","","","","","","","","","","","","","","","","","","","","","","",""
"1625","","<div style=""width:500px;"">
  <p>How would you describe your current emotional state?</p>
  </div>","74","html-slider-response","32","389407","0.0-5.0-3.4","3","1","2025-07-09 08:38:39","01610cd0009c79a99da7d0a3353eb402","105.216.70.10","Mozilla/5.0 (Windows NT 10.0; Win64; x64) AppleWebKit/537.36 (KHTML, like Gecko) Chrome/138.0.0.0 Safari/537.36","WebKit","Chrome","138.0.0.0","Windows","10.0","https://app.prolific.com/","en-ZA,en-GB;q=0.9,en-US;q=0.8,en;q=0.7","653a6a7224e6c0bfb644ff9b","683db7602f5db6a34d12d064","686e2a6a39f0de6b1cae885e","1","653a6a7224e6c0bfb644ff9b","1","2025-07-09T08:45:10.738Z","","","","","","","","","","","StressQ","","50","","","","","","","","","","","","","","","","","","","","","","","","","","","","",""
"3587","","<div style=""width:500px;"">
  <p>What best describes how you currently feel?</p>
  </div>","69","html-slider-response","33","392999","0.0-5.0-4.4","3","1","2025-07-09 08:38:39","01610cd0009c79a99da7d0a3353eb402","105.216.70.10","Mozilla/5.0 (Windows NT 10.0; Win64; x64) AppleWebKit/537.36 (KHTML, like Gecko) Chrome/138.0.0.0 Safari/537.36","WebKit","Chrome","138.0.0.0","Windows","10.0","https://app.prolific.com/","en-ZA,en-GB;q=0.9,en-US;q=0.8,en;q=0.7","653a6a7224e6c0bfb644ff9b","683db7602f5db6a34d12d064","686e2a6a39f0de6b1cae885e","1","653a6a7224e6c0bfb644ff9b","1","2025-07-09T08:45:14.329Z","","","","","","","","","","","MotivationQ","","50","","","","","","","","","","","","","","","","","","","","","","","","","","","","",""
"","","","","ctl-task-cpt","34","444077","0.0-5.0-0.5","3","1","2025-07-09 08:38:39","01610cd0009c79a99da7d0a3353eb402","105.216.70.10","Mozilla/5.0 (Windows NT 10.0; Win64; x64) AppleWebKit/537.36 (KHTML, like Gecko) Chrome/138.0.0.0 Safari/537.36","WebKit","Chrome","138.0.0.0","Windows","10.0","https://app.prolific.com/","en-ZA,en-GB;q=0.9,en-US;q=0.8,en;q=0.7","653a6a7224e6c0bfb644ff9b","683db7602f5db6a34d12d064","686e2a6a39f0de6b1cae885e","1","653a6a7224e6c0bfb644ff9b","1","2025-07-09T08:46:05.407Z","","","","","","","","","","","","","","win-only","1","g1:NE,g2:SW","0.5","6","0","395950.4","1024.8","6028.7","48061.7","1","4","8","6","2","-8","-9","0","3","0","5003.9","3000","-1785","[""down"",""left""]","{""num_key_presses"":11,""num_perfect"":5,""num_errors"":1,""num_randdir"":5,""num_randdir_good_moves"":2,""num_whilered"":0,""num_whileblue"":1,""num_blue"":3,""num_good_moves"":7}","[300.22232142857143,290.12857142857143,0.5,300.22232142857143,290.12857142857143,102.9,300.22232142857143,290.12857142857143,212.8,299.22232142857143,290.12857142857143,313.5,299.22232142857143,290.12857142857143,420.6,299.22232142857143,290.12857142857143,526.2,299.22232142857143,290.12857142857143,626.6,299.22232142857143,290.12857142857143,736.1,300.22232142857143,290.12857142857143,836.6,300.22232142857143,290.12857142857143,941.8,300.22232142857143,290.12857142857143,1043.3,300.22232142857143,290.12857142857143,1152.6,300.22232142857143,290.12857142857143,1263.5,300.22232142857143,290.12857142857143,1383.5,300.22232142857143,290.12857142857143,1485.9,300.22232142857143,290.12857142857143,1592.9,300.22232142857143,290.12857142857143,1701.9,300.22232142857143,290.12857142857143,1803,300.22232142857143,290.12857142857143,1908.8,300.22232142857143,290.12857142857143,2017.8,300.22232142857143,290.12857142857143,2119,300.22232142857143,290.12857142857143,2220.3,300.22232142857143,290.12857142857143,2321,300.22232142857143,290.12857142857143,2422.9,300.22232142857143,290.12857142857143,2523.4,300.22232142857143,290.12857142857143,2632.1,300.22232142857143,290.12857142857143,2733.9,300.22232142857143,291.12857142857143,2835.7,300.22232142857143,291.12857142857143,2936,300.22232142857143,292.12857142857143,3038.6,300.22232142857143,292.12857142857143,3143.9,300.22232142857143,292.12857142857143,3253.4,300.22232142857143,292.12857142857143,3353.4,300.22232142857143,292.12857142857143,3462.4,300.22232142857143,292.12857142857143,3562.8,300.22232142857143,293.12857142857143,3667.5,300.22232142857143,295.12857142857143,3770.9,300.22232142857143,297.12857142857143,3875.8,300.22232142857143,297.12857142857143,3979.2,300.22232142857143,295.12857142857143,4086,301.22232142857143,292.12857142857143,4186.6,302.22232142857143,290.12857142857143,4307.7,302.22232142857143,290.12857142857143,4417.8,302.22232142857143,290.12857142857143,4518.6,302.22232142857143,291.12857142857143,4620.5,302.22232142857143,293.12857142857143,4721,302.22232142857143,293.12857142857143,4821,302.22232142857143,293.12857142857143,4922]","[1651.5,1651.5,1000,0,651.5,""oops"",""down"",""right"",""bad_move"",4944.3,3292.3,2813.1,1652.1,479.2,""smooth"",""down"",""down"",""good_move"",7800.5,2855,2181.6,4945.5,673.4,""smooth"",""down"",""down"",""good_move"",11242,3441,2752.9,7801,688.1,""oops"",""left"",""up"",""bad_move"",14420.1,3176.3,2711.6,11243.8,464.7,""smooth"",""left"",""left"",""good_move"",16949,2528.2,1980.8,14420.8,547.5,""oops"",""down"",""left"",""good_move"",20981.5,4032.1,3620.9,16949.4,411.2,""smooth"",""down"",""down"",""good_move"",29753,8771.1,2309.2,27096.4,347.4,""oops"",""down"",""down"",""good_move"",33438.5,3685.3,3227.7,29753.2,457.6,""smooth"",""left"",""left"",""good_move"",35983.3,2544.3,2057.8,33439,486.5,""while_blue"",""left"",""right"",""bad_move"",39354.1,3370,2888,35984.2,482,""oops"",""left"",""up"",""bad_move""]","",""
"2664","","<div style=""width:500px;"">
  <p>What determined the result of this run?</p>
  </div>","80","html-slider-response","35","446743","0.0-5.0-1.5","3","1","2025-07-09 08:38:39","01610cd0009c79a99da7d0a3353eb402","105.216.70.10","Mozilla/5.0 (Windows NT 10.0; Win64; x64) AppleWebKit/537.36 (KHTML, like Gecko) Chrome/138.0.0.0 Safari/537.36","WebKit","Chrome","138.0.0.0","Windows","10.0","https://app.prolific.com/","en-ZA,en-GB;q=0.9,en-US;q=0.8,en;q=0.7","653a6a7224e6c0bfb644ff9b","683db7602f5db6a34d12d064","686e2a6a39f0de6b1cae885e","1","653a6a7224e6c0bfb644ff9b","1","2025-07-09T08:46:08.074Z","","","","","","","","","","","AttribQ","","50","","","","","","","","","","","","","","","","","","","","","","","","","","","","",""
"2801","","<div style=""width:500px;"">
  <p>How much control did you have over the ball?</p>
  </div>","61","html-slider-response","36","449548","0.0-5.0-2.5","3","1","2025-07-09 08:38:39","01610cd0009c79a99da7d0a3353eb402","105.216.70.10","Mozilla/5.0 (Windows NT 10.0; Win64; x64) AppleWebKit/537.36 (KHTML, like Gecko) Chrome/138.0.0.0 Safari/537.36","WebKit","Chrome","138.0.0.0","Windows","10.0","https://app.prolific.com/","en-ZA,en-GB;q=0.9,en-US;q=0.8,en;q=0.7","653a6a7224e6c0bfb644ff9b","683db7602f5db6a34d12d064","686e2a6a39f0de6b1cae885e","1","653a6a7224e6c0bfb644ff9b","1","2025-07-09T08:46:10.878Z","","","","","","","","","","","ControlQ","","50","","","","","","","","","","","","","","","","","","","","","","","","","","","","",""
"2592","","<div style=""width:500px;"">
  <p>How would you describe your current emotional state?</p>
  </div>","93","html-slider-response","37","452143","0.0-5.0-3.5","3","1","2025-07-09 08:38:39","01610cd0009c79a99da7d0a3353eb402","105.216.70.10","Mozilla/5.0 (Windows NT 10.0; Win64; x64) AppleWebKit/537.36 (KHTML, like Gecko) Chrome/138.0.0.0 Safari/537.36","WebKit","Chrome","138.0.0.0","Windows","10.0","https://app.prolific.com/","en-ZA,en-GB;q=0.9,en-US;q=0.8,en;q=0.7","653a6a7224e6c0bfb644ff9b","683db7602f5db6a34d12d064","686e2a6a39f0de6b1cae885e","1","653a6a7224e6c0bfb644ff9b","1","2025-07-09T08:46:13.474Z","","","","","","","","","","","StressQ","","50","","","","","","","","","","","","","","","","","","","","","","","","","","","","",""
"2389","","<div style=""width:500px;"">
  <p>What best describes how you currently feel?</p>
  </div>","71","html-slider-response","38","454534","0.0-5.0-4.5","3","1","2025-07-09 08:38:39","01610cd0009c79a99da7d0a3353eb402","105.216.70.10","Mozilla/5.0 (Windows NT 10.0; Win64; x64) AppleWebKit/537.36 (KHTML, like Gecko) Chrome/138.0.0.0 Safari/537.36","WebKit","Chrome","138.0.0.0","Windows","10.0","https://app.prolific.com/","en-ZA,en-GB;q=0.9,en-US;q=0.8,en;q=0.7","653a6a7224e6c0bfb644ff9b","683db7602f5db6a34d12d064","686e2a6a39f0de6b1cae885e","1","653a6a7224e6c0bfb644ff9b","1","2025-07-09T08:46:15.864Z","","","","","","","","","","","MotivationQ","","50","","","","","","","","","","","","","","","","","","","","","","","","","","","","",""
"","","","","ctl-task-cpt","39","511755","0.0-5.0-0.6","3","1","2025-07-09 08:38:39","01610cd0009c79a99da7d0a3353eb402","105.216.70.10","Mozilla/5.0 (Windows NT 10.0; Win64; x64) AppleWebKit/537.36 (KHTML, like Gecko) Chrome/138.0.0.0 Safari/537.36","WebKit","Chrome","138.0.0.0","Windows","10.0","https://app.prolific.com/","en-ZA,en-GB;q=0.9,en-US;q=0.8,en;q=0.7","653a6a7224e6c0bfb644ff9b","683db7602f5db6a34d12d064","686e2a6a39f0de6b1cae885e","1","653a6a7224e6c0bfb644ff9b","1","2025-07-09T08:47:13.085Z","","","","","","","","","","","","","","win-only","3","g1:SW,g2:NE","0.4","7","0","457485.9","913.2","5915.7","54211.5","1","4","8","6","1","-1","-1","0","0","0","5002.5","3000","-1665","[""down"",""left""]","{""num_key_presses"":11,""num_perfect"":5,""num_errors"":0,""num_randdir"":6,""num_randdir_good_moves"":2,""num_whilered"":0,""num_whileblue"":0,""num_blue"":4,""num_good_moves"":7}","[295.22232142857143,298.12857142857143,0.9,295.22232142857143,298.12857142857143,108.4,295.22232142857143,298.12857142857143,217.6,295.22232142857143,298.12857142857143,323.5,295.22232142857143,298.12857142857143,435.6,295.22232142857143,298.12857142857143,544.4,295.22232142857143,299.12857142857143,651.8,295.22232142857143,300.12857142857143,757.1,295.22232142857143,300.12857142857143,859.1,295.22232142857143,300.12857142857143,970.2,295.22232142857143,300.12857142857143,1076.5,295.22232142857143,300.12857142857143,1183,295.22232142857143,300.12857142857143,1283.9,295.22232142857143,300.12857142857143,1396,295.22232142857143,300.12857142857143,1500.1,295.22232142857143,300.12857142857143,1609.9,295.22232142857143,300.12857142857143,1721.4,295.22232142857143,300.12857142857143,1833.1,295.22232142857143,300.12857142857143,1943.1,295.22232142857143,300.12857142857143,2046.7,295.22232142857143,300.12857142857143,2148.7,295.22232142857143,300.12857142857143,2259.3,295.22232142857143,300.12857142857143,2360.3,295.22232142857143,300.12857142857143,2460.3,295.22232142857143,300.12857142857143,2563.9,295.22232142857143,300.12857142857143,2674,295.22232142857143,297.12857142857143,2776.3,295.22232142857143,296.12857142857143,2877.1,294.22232142857143,297.12857142857143,2993.6,294.22232142857143,297.12857142857143,3107,294.22232142857143,297.12857142857143,3209.6,294.22232142857143,297.12857142857143,3310.1,294.22232142857143,297.12857142857143,3410.9,294.22232142857143,297.12857142857143,3525.8,294.22232142857143,297.12857142857143,3626.6,294.22232142857143,297.12857142857143,3729,294.22232142857143,297.12857142857143,3846.5,294.22232142857143,298.12857142857143,3954.4,294.22232142857143,297.12857142857143,4057.1,294.22232142857143,296.12857142857143,4159.1,293.22232142857143,296.12857142857143,4259.6,293.22232142857143,296.12857142857143,4364.9,293.22232142857143,296.12857142857143,4476.7,293.22232142857143,297.12857142857143,4579.4,293.22232142857143,297.12857142857143,4692,293.22232142857143,298.12857142857143,4798.8,293.22232142857143,298.12857142857143,4902.7]","[8209.5,8209.5,2096.6,5645.3,467.6,""oops"",""down"",""right"",""bad_move"",10989.2,2776.2,2311.8,8213,464.4,""smooth"",""down"",""down"",""good_move"",14155.1,3164.9,2660.2,10990.2,504.7,""oops"",""left"",""up"",""bad_move"",16642.4,2486.2,2023,14156.2,463.2,""smooth"",""down"",""down"",""good_move"",19672.9,3029.8,2570.5,16643.3,459.2,""smooth"",""down"",""down"",""good_move"",22282.1,2608.4,2160.8,19673.7,447.6,""smooth"",""left"",""left"",""good_move"",25706.3,3423.7,2780.5,22282.6,643.2,""oops"",""left"",""right"",""bad_move"",32748.5,7041.4,2756.9,29622.9,368.7,""oops"",""left"",""left"",""good_move"",36421.5,3672.7,2987,32748.8,685.7,""oops"",""left"",""left"",""good_move"",39323.8,2901.6,2387.1,36422.2,514.5,""oops"",""left"",""right"",""bad_move"",45872.1,6547.7,2488.1,43002.6,381.4,""smooth"",""left"",""left"",""good_move""]","",""
"2404","","<div style=""width:500px;"">
  <p>What determined the result of this run?</p>
  </div>","74","html-slider-response","40","514161","0.0-5.0-1.6","3","1","2025-07-09 08:38:39","01610cd0009c79a99da7d0a3353eb402","105.216.70.10","Mozilla/5.0 (Windows NT 10.0; Win64; x64) AppleWebKit/537.36 (KHTML, like Gecko) Chrome/138.0.0.0 Safari/537.36","WebKit","Chrome","138.0.0.0","Windows","10.0","https://app.prolific.com/","en-ZA,en-GB;q=0.9,en-US;q=0.8,en;q=0.7","653a6a7224e6c0bfb644ff9b","683db7602f5db6a34d12d064","686e2a6a39f0de6b1cae885e","1","653a6a7224e6c0bfb644ff9b","1","2025-07-09T08:47:15.491Z","","","","","","","","","","","AttribQ","","50","","","","","","","","","","","","","","","","","","","","","","","","","","","","",""
"3987","","<div style=""width:500px;"">
  <p>How much control did you have over the ball?</p>
  </div>","54","html-slider-response","41","518150","0.0-5.0-2.6","3","1","2025-07-09 08:38:39","01610cd0009c79a99da7d0a3353eb402","105.216.70.10","Mozilla/5.0 (Windows NT 10.0; Win64; x64) AppleWebKit/537.36 (KHTML, like Gecko) Chrome/138.0.0.0 Safari/537.36","WebKit","Chrome","138.0.0.0","Windows","10.0","https://app.prolific.com/","en-ZA,en-GB;q=0.9,en-US;q=0.8,en;q=0.7","653a6a7224e6c0bfb644ff9b","683db7602f5db6a34d12d064","686e2a6a39f0de6b1cae885e","1","653a6a7224e6c0bfb644ff9b","1","2025-07-09T08:47:19.481Z","","","","","","","","","","","ControlQ","","50","","","","","","","","","","","","","","","","","","","","","","","","","","","","",""
"1929","","<div style=""width:500px;"">
  <p>How would you describe your current emotional state?</p>
  </div>","91","html-slider-response","42","520086","0.0-5.0-3.6","3","1","2025-07-09 08:38:39","01610cd0009c79a99da7d0a3353eb402","105.216.70.10","Mozilla/5.0 (Windows NT 10.0; Win64; x64) AppleWebKit/537.36 (KHTML, like Gecko) Chrome/138.0.0.0 Safari/537.36","WebKit","Chrome","138.0.0.0","Windows","10.0","https://app.prolific.com/","en-ZA,en-GB;q=0.9,en-US;q=0.8,en;q=0.7","653a6a7224e6c0bfb644ff9b","683db7602f5db6a34d12d064","686e2a6a39f0de6b1cae885e","1","653a6a7224e6c0bfb644ff9b","1","2025-07-09T08:47:21.416Z","","","","","","","","","","","StressQ","","50","","","","","","","","","","","","","","","","","","","","","","","","","","","","",""
"2426","","<div style=""width:500px;"">
  <p>What best describes how you currently feel?</p>
  </div>","68","html-slider-response","43","522515","0.0-5.0-4.6","3","1","2025-07-09 08:38:39","01610cd0009c79a99da7d0a3353eb402","105.216.70.10","Mozilla/5.0 (Windows NT 10.0; Win64; x64) AppleWebKit/537.36 (KHTML, like Gecko) Chrome/138.0.0.0 Safari/537.36","WebKit","Chrome","138.0.0.0","Windows","10.0","https://app.prolific.com/","en-ZA,en-GB;q=0.9,en-US;q=0.8,en;q=0.7","653a6a7224e6c0bfb644ff9b","683db7602f5db6a34d12d064","686e2a6a39f0de6b1cae885e","1","653a6a7224e6c0bfb644ff9b","1","2025-07-09T08:47:23.845Z","","","","","","","","","","","MotivationQ","","50","","","","","","","","","","","","","","","","","","","","","","","","","","","","",""
"","","","","ctl-task-cpt","44","551607","0.0-5.0-0.7","3","1","2025-07-09 08:38:39","01610cd0009c79a99da7d0a3353eb402","105.216.70.10","Mozilla/5.0 (Windows NT 10.0; Win64; x64) AppleWebKit/537.36 (KHTML, like Gecko) Chrome/138.0.0.0 Safari/537.36","WebKit","Chrome","138.0.0.0","Windows","10.0","https://app.prolific.com/","en-ZA,en-GB;q=0.9,en-US;q=0.8,en;q=0.7","653a6a7224e6c0bfb644ff9b","683db7602f5db6a34d12d064","686e2a6a39f0de6b1cae885e","1","653a6a7224e6c0bfb644ff9b","1","2025-07-09T08:47:52.937Z","","","","","","","","","","","","","","win-only","0","g1:NW,g2:SE","0.3","8","0","525469.5","955","5968.4","26076.7","1","4","4","6","2","4","4","4","0","0.030303030303030304","5013.4","3000","1215","[""down"",""right""]","{""num_key_presses"":6,""num_perfect"":2,""num_errors"":0,""num_randdir"":4,""num_randdir_good_moves"":4,""num_whilered"":0,""num_whileblue"":0,""num_blue"":1,""num_good_moves"":6}","[297.22232142857143,301.12857142857143,0.6,297.22232142857143,301.12857142857143,101.1,297.22232142857143,301.12857142857143,215.9,300.22232142857143,289.12857142857143,319.2,300.22232142857143,289.12857142857143,428.4,300.22232142857143,289.12857142857143,546.8,300.22232142857143,289.12857142857143,648.6,300.22232142857143,289.12857142857143,755.3,300.22232142857143,289.12857142857143,858.4,300.22232142857143,289.12857142857143,964.8,300.22232142857143,289.12857142857143,1068.8,300.22232142857143,289.12857142857143,1170.7,300.22232142857143,289.12857142857143,1272.8,300.22232142857143,289.12857142857143,1377.3,300.22232142857143,289.12857142857143,1485.8,300.22232142857143,289.12857142857143,1588.4,300.22232142857143,289.12857142857143,1697.4,300.22232142857143,289.12857142857143,1816.7,300.22232142857143,289.12857142857143,1922.7,300.22232142857143,289.12857142857143,2045.4,300.22232142857143,289.12857142857143,2146.9,300.22232142857143,289.12857142857143,2247.3,300.22232142857143,289.12857142857143,2363.2,300.22232142857143,289.12857142857143,2463.3,300.22232142857143,289.12857142857143,2566.5,300.22232142857143,289.12857142857143,2674.6,300.22232142857143,289.12857142857143,2780.9,300.22232142857143,289.12857142857143,2886,300.22232142857143,289.12857142857143,2986.8,300.22232142857143,289.12857142857143,3087,300.22232142857143,289.12857142857143,3187,300.22232142857143,289.12857142857143,3288.2,300.22232142857143,289.12857142857143,3392.6,300.22232142857143,289.12857142857143,3503.2,300.22232142857143,289.12857142857143,3606.2,300.22232142857143,289.12857142857143,3707.1,300.22232142857143,289.12857142857143,3814.4,300.22232142857143,289.12857142857143,3929.2,300.22232142857143,289.12857142857143,4030.1,300.22232142857143,289.12857142857143,4130.9,300.22232142857143,289.12857142857143,4232.4,300.22232142857143,289.12857142857143,4346.3,300.22232142857143,289.12857142857143,4453.3,300.22232142857143,289.12857142857143,4556.2,300.22232142857143,289.12857142857143,4657.8,300.22232142857143,289.12857142857143,4767.8,300.22232142857143,289.12857142857143,4879.8,300.22232142857143,289.12857142857143,4984.1]","[1444.1,1444.1,1000,0,444.1,""oops"",""down"",""down"",""good_move"",4108.2,2663.5,2124.3,1444.7,539.2,""smooth"",""right"",""right"",""good_move"",11127,7018.4,3092.7,7602.8,431.6,""oops"",""down"",""right"",""good_move"",14163.6,3036.3,2375.3,11127.3,661,""smooth"",""down"",""down"",""good_move"",17156.4,2992.3,2250,14164.1,742.3,""oops"",""down"",""right"",""good_move"",19949.7,2792.9,2373.1,17156.8,419.8,""oops"",""down"",""down"",""good_move""]","",""
"2932","","<div style=""width:500px;"">
  <p>What determined the result of this run?</p>
  </div>","80","html-slider-response","45","554542","0.0-5.0-1.7","3","1","2025-07-09 08:38:39","01610cd0009c79a99da7d0a3353eb402","105.216.70.10","Mozilla/5.0 (Windows NT 10.0; Win64; x64) AppleWebKit/537.36 (KHTML, like Gecko) Chrome/138.0.0.0 Safari/537.36","WebKit","Chrome","138.0.0.0","Windows","10.0","https://app.prolific.com/","en-ZA,en-GB;q=0.9,en-US;q=0.8,en;q=0.7","653a6a7224e6c0bfb644ff9b","683db7602f5db6a34d12d064","686e2a6a39f0de6b1cae885e","1","653a6a7224e6c0bfb644ff9b","1","2025-07-09T08:47:55.872Z","","","","","","","","","","","AttribQ","","50","","","","","","","","","","","","","","","","","","","","","","","","","","","","",""
"1692","","<div style=""width:500px;"">
  <p>How much control did you have over the ball?</p>
  </div>","70","html-slider-response","46","556237","0.0-5.0-2.7","3","1","2025-07-09 08:38:39","01610cd0009c79a99da7d0a3353eb402","105.216.70.10","Mozilla/5.0 (Windows NT 10.0; Win64; x64) AppleWebKit/537.36 (KHTML, like Gecko) Chrome/138.0.0.0 Safari/537.36","WebKit","Chrome","138.0.0.0","Windows","10.0","https://app.prolific.com/","en-ZA,en-GB;q=0.9,en-US;q=0.8,en;q=0.7","653a6a7224e6c0bfb644ff9b","683db7602f5db6a34d12d064","686e2a6a39f0de6b1cae885e","1","653a6a7224e6c0bfb644ff9b","1","2025-07-09T08:47:57.567Z","","","","","","","","","","","ControlQ","","50","","","","","","","","","","","","","","","","","","","","","","","","","","","","",""
"1774","","<div style=""width:500px;"">
  <p>How would you describe your current emotional state?</p>
  </div>","74","html-slider-response","47","558014","0.0-5.0-3.7","3","1","2025-07-09 08:38:39","01610cd0009c79a99da7d0a3353eb402","105.216.70.10","Mozilla/5.0 (Windows NT 10.0; Win64; x64) AppleWebKit/537.36 (KHTML, like Gecko) Chrome/138.0.0.0 Safari/537.36","WebKit","Chrome","138.0.0.0","Windows","10.0","https://app.prolific.com/","en-ZA,en-GB;q=0.9,en-US;q=0.8,en;q=0.7","653a6a7224e6c0bfb644ff9b","683db7602f5db6a34d12d064","686e2a6a39f0de6b1cae885e","1","653a6a7224e6c0bfb644ff9b","1","2025-07-09T08:47:59.344Z","","","","","","","","","","","StressQ","","50","","","","","","","","","","","","","","","","","","","","","","","","","","","","",""
"3507","","<div style=""width:500px;"">
  <p>What best describes how you currently feel?</p>
  </div>","70","html-slider-response","48","561524","0.0-5.0-4.7","3","1","2025-07-09 08:38:39","01610cd0009c79a99da7d0a3353eb402","105.216.70.10","Mozilla/5.0 (Windows NT 10.0; Win64; x64) AppleWebKit/537.36 (KHTML, like Gecko) Chrome/138.0.0.0 Safari/537.36","WebKit","Chrome","138.0.0.0","Windows","10.0","https://app.prolific.com/","en-ZA,en-GB;q=0.9,en-US;q=0.8,en;q=0.7","653a6a7224e6c0bfb644ff9b","683db7602f5db6a34d12d064","686e2a6a39f0de6b1cae885e","1","653a6a7224e6c0bfb644ff9b","1","2025-07-09T08:48:02.854Z","","","","","","","","","","","MotivationQ","","50","","","","","","","","","","","","","","","","","","","","","","","","","","","","",""
"","","","","ctl-task-cpt","49","600006","0.0-5.0-0.8","3","1","2025-07-09 08:38:39","01610cd0009c79a99da7d0a3353eb402","105.216.70.10","Mozilla/5.0 (Windows NT 10.0; Win64; x64) AppleWebKit/537.36 (KHTML, like Gecko) Chrome/138.0.0.0 Safari/537.36","WebKit","Chrome","138.0.0.0","Windows","10.0","https://app.prolific.com/","en-ZA,en-GB;q=0.9,en-US;q=0.8,en;q=0.7","653a6a7224e6c0bfb644ff9b","683db7602f5db6a34d12d064","686e2a6a39f0de6b1cae885e","1","653a6a7224e6c0bfb644ff9b","1","2025-07-09T08:48:41.336Z","","","","","","","","","","","","","","win-only","3","g1:SW,g2:NE","0.2","9","0","564476.9","1917.3","6922.2","35438.2","1","4","8","6","1","1","0","4","4","0.030303030303030304","5004.9","3000","1580","[""down"",""left""]","{""num_key_presses"":8,""num_perfect"":0,""num_errors"":1,""num_randdir"":7,""num_randdir_good_moves"":5,""num_whilered"":0,""num_whileblue"":1,""num_blue"":3,""num_good_moves"":6}","[295.22232142857143,297.12857142857143,0.3,295.22232142857143,297.12857142857143,110.7,295.22232142857143,297.12857142857143,217.6,295.22232142857143,297.12857142857143,325.2,295.22232142857143,297.12857142857143,427.4,295.22232142857143,297.12857142857143,550.8,295.22232142857143,297.12857142857143,653.2,295.22232142857143,297.12857142857143,759.5,295.22232142857143,297.12857142857143,860.1,295.22232142857143,297.12857142857143,971.7,295.22232142857143,297.12857142857143,1078.3,295.22232142857143,297.12857142857143,1181.7,295.22232142857143,297.12857142857143,1285.9,295.22232142857143,297.12857142857143,1396.9,295.22232142857143,297.12857142857143,1498.7,295.22232142857143,297.12857142857143,1611.5,295.22232142857143,297.12857142857143,1727.7,295.22232142857143,297.12857142857143,1835.1,295.22232142857143,297.12857142857143,1958.2,295.22232142857143,297.12857142857143,2061.5,295.22232142857143,297.12857142857143,2164.5,295.22232142857143,297.12857142857143,2279.9,295.22232142857143,297.12857142857143,2381.6,295.22232142857143,297.12857142857143,2490.2,295.22232142857143,297.12857142857143,2592.6,295.22232142857143,297.12857142857143,2699.7,295.22232142857143,297.12857142857143,2801.6,295.22232142857143,297.12857142857143,2907.1,295.22232142857143,297.12857142857143,3017.1,295.22232142857143,297.12857142857143,3118.8,295.22232142857143,297.12857142857143,3229.2,295.22232142857143,297.12857142857143,3334.7,295.22232142857143,297.12857142857143,3444.2,295.22232142857143,297.12857142857143,3550.7,295.22232142857143,297.12857142857143,3657.4,295.22232142857143,297.12857142857143,3764.9,295.22232142857143,297.12857142857143,3865.4,295.22232142857143,297.12857142857143,3965.5,295.22232142857143,297.12857142857143,4082.7,295.22232142857143,297.12857142857143,4186.1,295.22232142857143,297.12857142857143,4299.6,295.22232142857143,297.12857142857143,4400.9,295.22232142857143,297.12857142857143,4501.9,295.22232142857143,297.12857142857143,4611.3,295.22232142857143,297.12857142857143,4712.9,295.22232142857143,297.12857142857143,4828.7,295.22232142857143,297.12857142857143,4929.7]","[4427.5,4427.5,2047.1,2027,353.4,""oops"",""down"",""down"",""good_move"",7496.1,3067.8,2569.6,4428.3,498.2,""oops"",""left"",""left"",""good_move"",11969.3,4472.5,3516.9,7496.8,955.6,""oops"",""left"",""down"",""good_move"",14258.5,2288.8,1798.1,11969.7,490.7,""oops"",""left"",""right"",""bad_move"",16925.4,2666.4,2237.7,14259,428.8,""oops"",""left"",""up"",""bad_move"",19255.3,2328.8,1891.7,16926.5,437.1,""oops"",""left"",""left"",""good_move"",21952,2696,2272.4,19256,423.7,""while_blue"",""left"",""left"",""good_move"",28339.2,6386.1,2318.8,25512.1,508.3,""oops"",""down"",""down"",""good_move""]","",""
"3102","","<div style=""width:500px;"">
  <p>What determined the result of this run?</p>
  </div>","70","html-slider-response","50","603110","0.0-5.0-1.8","3","1","2025-07-09 08:38:39","01610cd0009c79a99da7d0a3353eb402","105.216.70.10","Mozilla/5.0 (Windows NT 10.0; Win64; x64) AppleWebKit/537.36 (KHTML, like Gecko) Chrome/138.0.0.0 Safari/537.36","WebKit","Chrome","138.0.0.0","Windows","10.0","https://app.prolific.com/","en-ZA,en-GB;q=0.9,en-US;q=0.8,en;q=0.7","653a6a7224e6c0bfb644ff9b","683db7602f5db6a34d12d064","686e2a6a39f0de6b1cae885e","1","653a6a7224e6c0bfb644ff9b","1","2025-07-09T08:48:44.441Z","","","","","","","","","","","AttribQ","","50","","","","","","","","","","","","","","","","","","","","","","","","","","","","",""
"2375","","<div style=""width:500px;"">
  <p>How much control did you have over the ball?</p>
  </div>","59","html-slider-response","51","605488","0.0-5.0-2.8","3","1","2025-07-09 08:38:39","01610cd0009c79a99da7d0a3353eb402","105.216.70.10","Mozilla/5.0 (Windows NT 10.0; Win64; x64) AppleWebKit/537.36 (KHTML, like Gecko) Chrome/138.0.0.0 Safari/537.36","WebKit","Chrome","138.0.0.0","Windows","10.0","https://app.prolific.com/","en-ZA,en-GB;q=0.9,en-US;q=0.8,en;q=0.7","653a6a7224e6c0bfb644ff9b","683db7602f5db6a34d12d064","686e2a6a39f0de6b1cae885e","1","653a6a7224e6c0bfb644ff9b","1","2025-07-09T08:48:46.818Z","","","","","","","","","","","ControlQ","","50","","","","","","","","","","","","","","","","","","","","","","","","","","","","",""
"2029","","<div style=""width:500px;"">
  <p>How would you describe your current emotional state?</p>
  </div>","88","html-slider-response","52","607519","0.0-5.0-3.8","3","1","2025-07-09 08:38:39","01610cd0009c79a99da7d0a3353eb402","105.216.70.10","Mozilla/5.0 (Windows NT 10.0; Win64; x64) AppleWebKit/537.36 (KHTML, like Gecko) Chrome/138.0.0.0 Safari/537.36","WebKit","Chrome","138.0.0.0","Windows","10.0","https://app.prolific.com/","en-ZA,en-GB;q=0.9,en-US;q=0.8,en;q=0.7","653a6a7224e6c0bfb644ff9b","683db7602f5db6a34d12d064","686e2a6a39f0de6b1cae885e","1","653a6a7224e6c0bfb644ff9b","1","2025-07-09T08:48:48.849Z","","","","","","","","","","","StressQ","","50","","","","","","","","","","","","","","","","","","","","","","","","","","","","",""
"1821","","<div style=""width:500px;"">
  <p>What best describes how you currently feel?</p>
  </div>","76","html-slider-response","53","609343","0.0-5.0-4.8","3","1","2025-07-09 08:38:39","01610cd0009c79a99da7d0a3353eb402","105.216.70.10","Mozilla/5.0 (Windows NT 10.0; Win64; x64) AppleWebKit/537.36 (KHTML, like Gecko) Chrome/138.0.0.0 Safari/537.36","WebKit","Chrome","138.0.0.0","Windows","10.0","https://app.prolific.com/","en-ZA,en-GB;q=0.9,en-US;q=0.8,en;q=0.7","653a6a7224e6c0bfb644ff9b","683db7602f5db6a34d12d064","686e2a6a39f0de6b1cae885e","1","653a6a7224e6c0bfb644ff9b","1","2025-07-09T08:48:50.673Z","","","","","","","","","","","MotivationQ","","50","","","","","","","","","","","","","","","","","","","","","","","","","","","","",""
"","","","","ctl-task-cpt","54","717860","0.0-5.0-0.9","3","1","2025-07-09 08:38:39","01610cd0009c79a99da7d0a3353eb402","105.216.70.10","Mozilla/5.0 (Windows NT 10.0; Win64; x64) AppleWebKit/537.36 (KHTML, like Gecko) Chrome/138.0.0.0 Safari/537.36","WebKit","Chrome","138.0.0.0","Windows","10.0","https://app.prolific.com/","en-ZA,en-GB;q=0.9,en-US;q=0.8,en;q=0.7","653a6a7224e6c0bfb644ff9b","683db7602f5db6a34d12d064","686e2a6a39f0de6b1cae885e","1","653a6a7224e6c0bfb644ff9b","1","2025-07-09T08:50:39.190Z","","","","","","","","","","","","","","win-only","3","g1:SW,g2:NE","0.4","10","0","612298","2597","7603.2","105482.1","1","4","4","6","2","-4","-4","0","4","0","5006.1","3000","-690","[""up"",""right""]","{""num_key_presses"":20,""num_perfect"":8,""num_errors"":0,""num_randdir"":12,""num_randdir_good_moves"":4,""num_whilered"":0,""num_whileblue"":0,""num_blue"":2,""num_good_moves"":12}","[293.22232142857143,290.12857142857143,2.9,293.22232142857143,290.12857142857143,112.8,291.22232142857143,289.12857142857143,220.9,291.22232142857143,285.12857142857143,324,291.22232142857143,285.12857142857143,424.2,291.22232142857143,285.12857142857143,546.8,291.22232142857143,285.12857142857143,649.3,291.22232142857143,285.12857142857143,757.1,291.22232142857143,285.12857142857143,890.5,291.22232142857143,285.12857142857143,992.6,291.22232142857143,285.12857142857143,1110.3,291.22232142857143,285.12857142857143,1211.3,291.22232142857143,285.12857142857143,1312.6,291.22232142857143,285.12857142857143,1425.9,291.22232142857143,285.12857142857143,1530.4,291.22232142857143,285.12857142857143,1631.2,291.22232142857143,285.12857142857143,1738.2,291.22232142857143,285.12857142857143,1843.4,291.22232142857143,285.12857142857143,1945.4,291.22232142857143,285.12857142857143,2056,291.22232142857143,285.12857142857143,2199.8,291.22232142857143,285.12857142857143,2303.6,291.22232142857143,285.12857142857143,2411.2,291.22232142857143,285.12857142857143,2563.9,291.22232142857143,285.12857142857143,2690.9,291.22232142857143,285.12857142857143,2791,291.22232142857143,285.12857142857143,2892.9,291.22232142857143,285.12857142857143,2998.5,291.22232142857143,285.12857142857143,3102.8,291.22232142857143,285.12857142857143,3208.5,291.22232142857143,285.12857142857143,3313.5,291.22232142857143,285.12857142857143,3422.8,291.22232142857143,285.12857142857143,3523.8,291.22232142857143,285.12857142857143,3631.6,291.22232142857143,285.12857142857143,3736.3,291.22232142857143,285.12857142857143,3838.9,291.22232142857143,285.12857142857143,3944.1,291.22232142857143,285.12857142857143,4058.2,291.22232142857143,285.12857142857143,4178.9,291.22232142857143,285.12857142857143,4281.2,291.22232142857143,285.12857142857143,4382.4,291.22232142857143,285.12857142857143,4483.6,291.22232142857143,285.12857142857143,4588.3,291.22232142857143,285.12857142857143,4689.9,291.22232142857143,285.12857142857143,4796.7,291.22232142857143,285.12857142857143,4901.3]","[4942.8,4942.8,2285.4,2007.9,649.5,""oops"",""up"",""down"",""bad_move"",7875.4,2930.3,2322,4945.2,608.2,""oops"",""up"",""left"",""bad_move"",11868.6,3992,2265.7,7876.6,1726.3,""oops"",""up"",""down"",""bad_move"",15092.5,3223.5,2679.4,11869,544.1,""oops"",""up"",""up"",""good_move"",20412.5,5317.3,2160.2,15095.3,3157,""smooth"",""right"",""right"",""good_move"",24260.9,3848,2910.9,20413,937,""smooth"",""right"",""right"",""good_move"",27453.9,3192.2,2546.4,24261.7,645.8,""oops"",""right"",""down"",""bad_move"",30389.5,2935.2,1956,27454.3,979.2,""oops"",""up"",""right"",""good_move"",32916.5,2526.2,2003.3,30390.3,522.9,""smooth"",""up"",""up"",""good_move"",39203.7,6286.8,2617.6,32916.9,3669.2,""smooth"",""up"",""up"",""good_move"",47664.3,8460.3,3085.1,39204,5375.2,""smooth"",""up"",""up"",""good_move"",56503.2,8838.5,2480.5,47664.7,6358,""smooth"",""up"",""up"",""good_move"",65413.1,8909.5,2793.9,56503.6,6115.6,""smooth"",""up"",""up"",""good_move"",75087.9,9674.4,2142.5,72463.1,482.3,""oops"",""right"",""down"",""bad_move"",78413.8,3325.3,2652.4,75088.5,672.9,""oops"",""right"",""right"",""good_move"",81751.3,3335.2,2744.3,78416.1,590.9,""oops"",""up"",""left"",""bad_move"",84845.7,3093.3,2699.2,81752.4,394.1,""smooth"",""right"",""right"",""good_move"",87466.9,2620.4,2194.1,84846.6,426.3,""oops"",""up"",""down"",""bad_move"",90504.2,3036.8,2578.1,87467.4,458.7,""oops"",""up"",""up"",""good_move"",94371.5,3866.8,3504.4,90504.8,362.3,""oops"",""up"",""left"",""bad_move""]","",""
"2265","","<div style=""width:500px;"">
  <p>What determined the result of this run?</p>
  </div>","87","html-slider-response","55","720128","0.0-5.0-1.9","3","1","2025-07-09 08:38:39","01610cd0009c79a99da7d0a3353eb402","105.216.70.10","Mozilla/5.0 (Windows NT 10.0; Win64; x64) AppleWebKit/537.36 (KHTML, like Gecko) Chrome/138.0.0.0 Safari/537.36","WebKit","Chrome","138.0.0.0","Windows","10.0","https://app.prolific.com/","en-ZA,en-GB;q=0.9,en-US;q=0.8,en;q=0.7","653a6a7224e6c0bfb644ff9b","683db7602f5db6a34d12d064","686e2a6a39f0de6b1cae885e","1","653a6a7224e6c0bfb644ff9b","1","2025-07-09T08:50:41.458Z","","","","","","","","","","","AttribQ","","50","","","","","","","","","","","","","","","","","","","","","","","","","","","","",""
"3788","","<div style=""width:500px;"">
  <p>How much control did you have over the ball?</p>
  </div>","39","html-slider-response","56","723920","0.0-5.0-2.9","3","1","2025-07-09 08:38:39","01610cd0009c79a99da7d0a3353eb402","105.216.70.10","Mozilla/5.0 (Windows NT 10.0; Win64; x64) AppleWebKit/537.36 (KHTML, like Gecko) Chrome/138.0.0.0 Safari/537.36","WebKit","Chrome","138.0.0.0","Windows","10.0","https://app.prolific.com/","en-ZA,en-GB;q=0.9,en-US;q=0.8,en;q=0.7","653a6a7224e6c0bfb644ff9b","683db7602f5db6a34d12d064","686e2a6a39f0de6b1cae885e","1","653a6a7224e6c0bfb644ff9b","1","2025-07-09T08:50:45.250Z","","","","","","","","","","","ControlQ","","50","","","","","","","","","","","","","","","","","","","","","","","","","","","","",""
"2472","","<div style=""width:500px;"">
  <p>How would you describe your current emotional state?</p>
  </div>","81","html-slider-response","57","726396","0.0-5.0-3.9","3","1","2025-07-09 08:38:39","01610cd0009c79a99da7d0a3353eb402","105.216.70.10","Mozilla/5.0 (Windows NT 10.0; Win64; x64) AppleWebKit/537.36 (KHTML, like Gecko) Chrome/138.0.0.0 Safari/537.36","WebKit","Chrome","138.0.0.0","Windows","10.0","https://app.prolific.com/","en-ZA,en-GB;q=0.9,en-US;q=0.8,en;q=0.7","653a6a7224e6c0bfb644ff9b","683db7602f5db6a34d12d064","686e2a6a39f0de6b1cae885e","1","653a6a7224e6c0bfb644ff9b","1","2025-07-09T08:50:47.726Z","","","","","","","","","","","StressQ","","50","","","","","","","","","","","","","","","","","","","","","","","","","","","","",""
"2075","","<div style=""width:500px;"">
  <p>What best describes how you currently feel?</p>
  </div>","72","html-slider-response","58","728475","0.0-5.0-4.9","3","1","2025-07-09 08:38:39","01610cd0009c79a99da7d0a3353eb402","105.216.70.10","Mozilla/5.0 (Windows NT 10.0; Win64; x64) AppleWebKit/537.36 (KHTML, like Gecko) Chrome/138.0.0.0 Safari/537.36","WebKit","Chrome","138.0.0.0","Windows","10.0","https://app.prolific.com/","en-ZA,en-GB;q=0.9,en-US;q=0.8,en;q=0.7","653a6a7224e6c0bfb644ff9b","683db7602f5db6a34d12d064","686e2a6a39f0de6b1cae885e","1","653a6a7224e6c0bfb644ff9b","1","2025-07-09T08:50:49.805Z","","","","","","","","","","","MotivationQ","","50","","","","","","","","","","","","","","","","","","","","","","","","","","","","",""
"","","","","ctl-task-cpt","59","828170","0.0-5.0-0.10","3","1","2025-07-09 08:38:39","01610cd0009c79a99da7d0a3353eb402","105.216.70.10","Mozilla/5.0 (Windows NT 10.0; Win64; x64) AppleWebKit/537.36 (KHTML, like Gecko) Chrome/138.0.0.0 Safari/537.36","WebKit","Chrome","138.0.0.0","Windows","10.0","https://app.prolific.com/","en-ZA,en-GB;q=0.9,en-US;q=0.8,en;q=0.7","653a6a7224e6c0bfb644ff9b","683db7602f5db6a34d12d064","686e2a6a39f0de6b1cae885e","1","653a6a7224e6c0bfb644ff9b","1","2025-07-09T08:52:29.501Z","","","","","","","","","","","","","","win-only","3","g1:SW,g2:NE","0.5","11","0","731430.1","1034.8","6064.2","96614.3","1","4","4","6","2","4","3","3","0","0.022727272727272728","5029.4","3000","2290","[""up"",""right""]","{""num_key_presses"":15,""num_perfect"":8,""num_errors"":1,""num_randdir"":6,""num_randdir_good_moves"":3,""num_whilered"":0,""num_whileblue"":0,""num_blue"":1,""num_good_moves"":10}","[293.22232142857143,296.12857142857143,0.4,293.22232142857143,296.12857142857143,106,293.22232142857143,296.12857142857143,237.8,293.22232142857143,296.12857142857143,338.6,293.22232142857143,296.12857142857143,446,293.22232142857143,296.12857142857143,573.9,293.22232142857143,296.12857142857143,675.7,293.22232142857143,296.12857142857143,806.6,293.22232142857143,296.12857142857143,936.7,293.22232142857143,296.12857142857143,1037.1,293.22232142857143,296.12857142857143,1168,293.22232142857143,296.12857142857143,1300.8,293.22232142857143,296.12857142857143,1430.8,293.22232142857143,296.12857142857143,1563.7,293.22232142857143,296.12857142857143,1694.3,293.22232142857143,296.12857142857143,1826.9,293.22232142857143,296.12857142857143,1929.2,293.22232142857143,296.12857142857143,2057.3,293.22232142857143,296.12857142857143,2162.3,293.22232142857143,296.12857142857143,2266.3,293.22232142857143,296.12857142857143,2371.9,293.22232142857143,296.12857142857143,2504.7,293.22232142857143,296.12857142857143,2640.5,293.22232142857143,296.12857142857143,2772.2,293.22232142857143,296.12857142857143,2873.9,293.22232142857143,296.12857142857143,2974.6,293.22232142857143,296.12857142857143,3076,293.22232142857143,296.12857142857143,3179.5,293.22232142857143,296.12857142857143,3279.6,293.22232142857143,296.12857142857143,3411.3,293.22232142857143,296.12857142857143,3513.2,293.22232142857143,296.12857142857143,3643.8,293.22232142857143,296.12857142857143,3746,293.22232142857143,296.12857142857143,3877.8,293.22232142857143,296.12857142857143,3978.1,293.22232142857143,296.12857142857143,4078.7,293.22232142857143,296.12857142857143,4185.6,293.22232142857143,296.12857142857143,4287.6,293.22232142857143,296.12857142857143,4389.9,293.22232142857143,296.12857142857143,4491.1,293.22232142857143,296.12857142857143,4592.6,293.22232142857143,296.12857142857143,4693.5,293.22232142857143,296.12857142857143,4795.6,293.22232142857143,296.12857142857143,4927.2]","[505.6,505.6,1000,0,-494.4,""error"",""-"",""-"",""no_move"",4680.7,4173.9,2325.5,1538.6,816.6,""oops"",""up"",""up"",""good_move"",13450.4,8769.3,2626,4681.1,6143.3,""smooth"",""up"",""up"",""good_move"",23029.1,9578.4,2558.4,13450.7,7020,""oops"",""up"",""up"",""good_move"",33130.6,10100.9,2256.4,23029.7,7844.5,""oops"",""right"",""left"",""bad_move"",43128.7,9997.7,2738.4,33131.1,7259.3,""smooth"",""down"",""down"",""bad_move"",45873.8,2744,2158.1,43129.8,585.9,""smooth"",""right"",""right"",""good_move"",49003.6,3129.2,2566.1,45874.4,563.1,""smooth"",""right"",""right"",""good_move"",51385.4,2381.5,1806.3,49003.9,575.2,""smooth"",""right"",""right"",""good_move"",54894.4,3508.6,2961.9,51385.8,546.7,""oops"",""up"",""right"",""good_move"",58210.9,3315.8,2873.6,54895.1,442.2,""oops"",""up"",""down"",""bad_move"",61072.3,2860.8,2310.9,58211.6,549.9,""oops"",""up"",""down"",""bad_move"",64690.4,3617.8,3066,61072.7,551.8,""smooth"",""up"",""up"",""good_move"",75245.7,10555,1760.1,64690.7,8794.9,""smooth"",""up"",""up"",""good_move"",90272.8,15026.8,3084.8,86668.5,519.5,""smooth"",""up"",""up"",""good_move""]","",""
"4270","","<div style=""width:500px;"">
  <p>What determined the result of this run?</p>
  </div>","76","html-slider-response","60","832447","0.0-5.0-1.10","3","1","2025-07-09 08:38:39","01610cd0009c79a99da7d0a3353eb402","105.216.70.10","Mozilla/5.0 (Windows NT 10.0; Win64; x64) AppleWebKit/537.36 (KHTML, like Gecko) Chrome/138.0.0.0 Safari/537.36","WebKit","Chrome","138.0.0.0","Windows","10.0","https://app.prolific.com/","en-ZA,en-GB;q=0.9,en-US;q=0.8,en;q=0.7","653a6a7224e6c0bfb644ff9b","683db7602f5db6a34d12d064","686e2a6a39f0de6b1cae885e","1","653a6a7224e6c0bfb644ff9b","1","2025-07-09T08:52:33.777Z","","","","","","","","","","","AttribQ","","50","","","","","","","","","","","","","","","","","","","","","","","","","","","","",""
"3697","","<div style=""width:500px;"">
  <p>How much control did you have over the ball?</p>
  </div>","57","html-slider-response","61","836150","0.0-5.0-2.10","3","1","2025-07-09 08:38:39","01610cd0009c79a99da7d0a3353eb402","105.216.70.10","Mozilla/5.0 (Windows NT 10.0; Win64; x64) AppleWebKit/537.36 (KHTML, like Gecko) Chrome/138.0.0.0 Safari/537.36","WebKit","Chrome","138.0.0.0","Windows","10.0","https://app.prolific.com/","en-ZA,en-GB;q=0.9,en-US;q=0.8,en;q=0.7","653a6a7224e6c0bfb644ff9b","683db7602f5db6a34d12d064","686e2a6a39f0de6b1cae885e","1","653a6a7224e6c0bfb644ff9b","1","2025-07-09T08:52:37.481Z","","","","","","","","","","","ControlQ","","50","","","","","","","","","","","","","","","","","","","","","","","","","","","","",""
"2909","","<div style=""width:500px;"">
  <p>How would you describe your current emotional state?</p>
  </div>","100","html-slider-response","62","839067","0.0-5.0-3.10","3","1","2025-07-09 08:38:39","01610cd0009c79a99da7d0a3353eb402","105.216.70.10","Mozilla/5.0 (Windows NT 10.0; Win64; x64) AppleWebKit/537.36 (KHTML, like Gecko) Chrome/138.0.0.0 Safari/537.36","WebKit","Chrome","138.0.0.0","Windows","10.0","https://app.prolific.com/","en-ZA,en-GB;q=0.9,en-US;q=0.8,en;q=0.7","653a6a7224e6c0bfb644ff9b","683db7602f5db6a34d12d064","686e2a6a39f0de6b1cae885e","1","653a6a7224e6c0bfb644ff9b","1","2025-07-09T08:52:40.398Z","","","","","","","","","","","StressQ","","50","","","","","","","","","","","","","","","","","","","","","","","","","","","","",""
"2398","","<div style=""width:500px;"">
  <p>What best describes how you currently feel?</p>
  </div>","73","html-slider-response","63","841473","0.0-5.0-4.10","3","1","2025-07-09 08:38:39","01610cd0009c79a99da7d0a3353eb402","105.216.70.10","Mozilla/5.0 (Windows NT 10.0; Win64; x64) AppleWebKit/537.36 (KHTML, like Gecko) Chrome/138.0.0.0 Safari/537.36","WebKit","Chrome","138.0.0.0","Windows","10.0","https://app.prolific.com/","en-ZA,en-GB;q=0.9,en-US;q=0.8,en;q=0.7","653a6a7224e6c0bfb644ff9b","683db7602f5db6a34d12d064","686e2a6a39f0de6b1cae885e","1","653a6a7224e6c0bfb644ff9b","1","2025-07-09T08:52:42.803Z","","","","","","","","","","","MotivationQ","","50","","","","","","","","","","","","","","","","","","","","","","","","","","","","",""
"","","","","ctl-task-cpt","64","936696","0.0-5.0-0.11","3","1","2025-07-09 08:38:39","01610cd0009c79a99da7d0a3353eb402","105.216.70.10","Mozilla/5.0 (Windows NT 10.0; Win64; x64) AppleWebKit/537.36 (KHTML, like Gecko) Chrome/138.0.0.0 Safari/537.36","WebKit","Chrome","138.0.0.0","Windows","10.0","https://app.prolific.com/","en-ZA,en-GB;q=0.9,en-US;q=0.8,en;q=0.7","653a6a7224e6c0bfb644ff9b","683db7602f5db6a34d12d064","686e2a6a39f0de6b1cae885e","1","653a6a7224e6c0bfb644ff9b","1","2025-07-09T08:54:18.027Z","","","","","","","","","","","","","","win-only","2","g1:SE,g2:NW","0.6","12","0","844431.6","998.6","6098.1","92172.8","1","4","8","6","1","-1","-3","0","3","0","5099.5","3000","-395","[""down"",""right""]","{""num_key_presses"":19,""num_perfect"":11,""num_errors"":2,""num_randdir"":6,""num_randdir_good_moves"":3,""num_whilered"":0,""num_whileblue"":0,""num_blue"":1,""num_good_moves"":8}","[299.22232142857143,301.12857142857143,0.2,299.22232142857143,301.12857142857143,103.7,299.22232142857143,301.12857142857143,207.9,298.22232142857143,306.12857142857143,314.4,298.22232142857143,306.12857142857143,417.4,298.22232142857143,306.12857142857143,520.4,298.22232142857143,306.12857142857143,622.3,298.22232142857143,306.12857142857143,725.8,298.22232142857143,306.12857142857143,829.8,298.22232142857143,306.12857142857143,939.2,298.22232142857143,306.12857142857143,1046,298.22232142857143,306.12857142857143,1148.4,298.22232142857143,306.12857142857143,1251.2,298.22232142857143,306.12857142857143,1352.1,298.22232142857143,306.12857142857143,1452.4,298.22232142857143,306.12857142857143,1553.2,298.22232142857143,306.12857142857143,1655,298.22232142857143,306.12857142857143,1755.8,298.22232142857143,306.12857142857143,1856.5,298.22232142857143,306.12857142857143,1958.1,298.22232142857143,306.12857142857143,2059.7,298.22232142857143,306.12857142857143,2161.8,298.22232142857143,306.12857142857143,2264.4,298.22232142857143,306.12857142857143,2364.8,298.22232142857143,306.12857142857143,2464.9,298.22232142857143,306.12857142857143,2663.9,298.22232142857143,306.12857142857143,2765.2,298.22232142857143,306.12857142857143,2866.7,298.22232142857143,306.12857142857143,2968.4,298.22232142857143,306.12857142857143,3068.5,298.22232142857143,306.12857142857143,3172.6,298.22232142857143,306.12857142857143,3273.1,298.22232142857143,306.12857142857143,3374.4,298.22232142857143,306.12857142857143,3575.8,298.22232142857143,306.12857142857143,3678,298.22232142857143,306.12857142857143,3779.8,298.22232142857143,306.12857142857143,3881,298.22232142857143,306.12857142857143,4083.5,298.22232142857143,306.12857142857143,4185.8,298.22232142857143,306.12857142857143,4290.1,298.22232142857143,306.12857142857143,4392.4,298.22232142857143,306.12857142857143,4492.8,298.22232142857143,306.12857142857143,4593.9,298.22232142857143,306.12857142857143,4694.9,298.22232142857143,306.12857142857143,4798.5,298.22232142857143,306.12857142857143,4899.4]","[1917.4,1917.4,1000,0,917.4,""oops"",""up"",""left"",""bad_move"",18329.7,16411.9,1981.1,1917.8,14430.8,""oops"",""up"",""down"",""good_move"",21508.2,3177.8,2284.5,18330.4,893.3,""smooth"",""up"",""up"",""bad_move"",24948.1,3439.5,2024.5,21508.6,1415,""smooth"",""left"",""left"",""bad_move"",27778.1,2829.5,2391.9,24948.7,437.5,""oops"",""left"",""down"",""good_move"",31309.6,3530.7,2640.6,27778.9,890.1,""smooth"",""left"",""left"",""bad_move"",35856.7,4546.7,2229.2,31310,2317.5,""smooth"",""up"",""up"",""bad_move"",41309.9,5452.3,1877,35857.6,3575.3,""smooth"",""up"",""up"",""bad_move"",46723.3,5412.9,2560.9,41310.4,2852,""smooth"",""up"",""up"",""bad_move"",50429.8,3706.1,2584.5,46723.7,1121.6,""oops"",""up"",""up"",""bad_move"",54364.8,3932.3,2247.3,50432.5,1685,""oops"",""down"",""right"",""good_move"",54993.7,627.8,2659.5,54365.9,-2031.7,""error"",""-"",""-"",""no_move"",56515.1,1521,2500.9,55994.6,-1980.4,""error"",""-"",""-"",""no_move"",60773,4257.7,2316,57524.8,932.2,""smooth"",""down"",""down"",""good_move"",67127.4,6353.4,2164.6,63857.2,1105.6,""smooth"",""down"",""down"",""good_move"",70505.7,3377.9,2528.2,67127.8,849.7,""oops"",""down"",""left"",""bad_move"",77342.9,6836.7,2976,70506.2,3860.7,""smooth"",""down"",""down"",""good_move"",80485.3,3142,2578.7,77343.3,563.3,""smooth"",""down"",""down"",""good_move"",83363.1,2877.3,2353.2,80485.8,524.1,""smooth"",""down"",""down"",""good_move""]","",""
"6026","","<div style=""width:500px;"">
  <p>What determined the result of this run?</p>
  </div>","10","html-slider-response","65","942727","0.0-5.0-1.11","3","1","2025-07-09 08:38:39","01610cd0009c79a99da7d0a3353eb402","105.216.70.10","Mozilla/5.0 (Windows NT 10.0; Win64; x64) AppleWebKit/537.36 (KHTML, like Gecko) Chrome/138.0.0.0 Safari/537.36","WebKit","Chrome","138.0.0.0","Windows","10.0","https://app.prolific.com/","en-ZA,en-GB;q=0.9,en-US;q=0.8,en;q=0.7","653a6a7224e6c0bfb644ff9b","683db7602f5db6a34d12d064","686e2a6a39f0de6b1cae885e","1","653a6a7224e6c0bfb644ff9b","1","2025-07-09T08:54:24.057Z","","","","","","","","","","","AttribQ","","50","","","","","","","","","","","","","","","","","","","","","","","","","","","","",""
"3321","","<div style=""width:500px;"">
  <p>How much control did you have over the ball?</p>
  </div>","40","html-slider-response","66","946054","0.0-5.0-2.11","3","1","2025-07-09 08:38:39","01610cd0009c79a99da7d0a3353eb402","105.216.70.10","Mozilla/5.0 (Windows NT 10.0; Win64; x64) AppleWebKit/537.36 (KHTML, like Gecko) Chrome/138.0.0.0 Safari/537.36","WebKit","Chrome","138.0.0.0","Windows","10.0","https://app.prolific.com/","en-ZA,en-GB;q=0.9,en-US;q=0.8,en;q=0.7","653a6a7224e6c0bfb644ff9b","683db7602f5db6a34d12d064","686e2a6a39f0de6b1cae885e","1","653a6a7224e6c0bfb644ff9b","1","2025-07-09T08:54:27.384Z","","","","","","","","","","","ControlQ","","50","","","","","","","","","","","","","","","","","","","","","","","","","","","","",""
"2661","","<div style=""width:500px;"">
  <p>How would you describe your current emotional state?</p>
  </div>","90","html-slider-response","67","948721","0.0-5.0-3.11","3","1","2025-07-09 08:38:39","01610cd0009c79a99da7d0a3353eb402","105.216.70.10","Mozilla/5.0 (Windows NT 10.0; Win64; x64) AppleWebKit/537.36 (KHTML, like Gecko) Chrome/138.0.0.0 Safari/537.36","WebKit","Chrome","138.0.0.0","Windows","10.0","https://app.prolific.com/","en-ZA,en-GB;q=0.9,en-US;q=0.8,en;q=0.7","653a6a7224e6c0bfb644ff9b","683db7602f5db6a34d12d064","686e2a6a39f0de6b1cae885e","1","653a6a7224e6c0bfb644ff9b","1","2025-07-09T08:54:30.051Z","","","","","","","","","","","StressQ","","50","","","","","","","","","","","","","","","","","","","","","","","","","","","","",""
"2844","","<div style=""width:500px;"">
  <p>What best describes how you currently feel?</p>
  </div>","66","html-slider-response","68","951570","0.0-5.0-4.11","3","1","2025-07-09 08:38:39","01610cd0009c79a99da7d0a3353eb402","105.216.70.10","Mozilla/5.0 (Windows NT 10.0; Win64; x64) AppleWebKit/537.36 (KHTML, like Gecko) Chrome/138.0.0.0 Safari/537.36","WebKit","Chrome","138.0.0.0","Windows","10.0","https://app.prolific.com/","en-ZA,en-GB;q=0.9,en-US;q=0.8,en;q=0.7","653a6a7224e6c0bfb644ff9b","683db7602f5db6a34d12d064","686e2a6a39f0de6b1cae885e","1","653a6a7224e6c0bfb644ff9b","1","2025-07-09T08:54:32.900Z","","","","","","","","","","","MotivationQ","","50","","","","","","","","","","","","","","","","","","","","","","","","","","","","",""
"","","","","ctl-task-cpt","69","1030320","0.0-5.0-0.12","3","1","2025-07-09 08:38:39","01610cd0009c79a99da7d0a3353eb402","105.216.70.10","Mozilla/5.0 (Windows NT 10.0; Win64; x64) AppleWebKit/537.36 (KHTML, like Gecko) Chrome/138.0.0.0 Safari/537.36","WebKit","Chrome","138.0.0.0","Windows","10.0","https://app.prolific.com/","en-ZA,en-GB;q=0.9,en-US;q=0.8,en;q=0.7","653a6a7224e6c0bfb644ff9b","683db7602f5db6a34d12d064","686e2a6a39f0de6b1cae885e","1","653a6a7224e6c0bfb644ff9b","1","2025-07-09T08:55:51.650Z","","","","","","","","","","","","","","win-only","1","g1:NE,g2:SW","0.7","13","0","954525.5","960.6","5977.2","75638","1","4","8","6","2","8","8","8","0","0.06060606060606061","5016.6","3000","2560","[""down"",""left""]","{""num_key_presses"":8,""num_perfect"":5,""num_errors"":0,""num_randdir"":3,""num_randdir_good_moves"":2,""num_whilered"":0,""num_whileblue"":0,""num_blue"":5,""num_good_moves"":7}","[289.22232142857143,300.12857142857143,0.7,296.22232142857143,299.12857142857143,125.5,296.22232142857143,299.12857142857143,253.6,296.22232142857143,299.12857142857143,381.8,296.22232142857143,299.12857142857143,507.8,296.22232142857143,299.12857142857143,631,296.22232142857143,299.12857142857143,755.5,296.22232142857143,299.12857142857143,877.1,296.22232142857143,299.12857142857143,1000.5,296.22232142857143,299.12857142857143,1121.2,296.22232142857143,299.12857142857143,1245.6,296.22232142857143,299.12857142857143,1367,296.22232142857143,299.12857142857143,1488.9,296.22232142857143,299.12857142857143,1616.3,296.22232142857143,299.12857142857143,1737.4,296.22232142857143,299.12857142857143,1863.8,296.22232142857143,299.12857142857143,1987.7,296.22232142857143,299.12857142857143,2112.3,296.22232142857143,299.12857142857143,2242.3,296.22232142857143,299.12857142857143,2366.3,296.22232142857143,299.12857142857143,2488.8,296.22232142857143,299.12857142857143,2615.7,296.22232142857143,299.12857142857143,2739.9,296.22232142857143,299.12857142857143,2866,296.22232142857143,299.12857142857143,2988.3,296.22232142857143,299.12857142857143,3112,296.22232142857143,299.12857142857143,3245.8,296.22232142857143,299.12857142857143,3367.6,296.22232142857143,299.12857142857143,3491.8,296.22232142857143,299.12857142857143,3617.6,296.22232142857143,299.12857142857143,3736.2,296.22232142857143,299.12857142857143,3869.9,296.22232142857143,299.12857142857143,3994.8,296.22232142857143,299.12857142857143,4120.7,296.22232142857143,299.12857142857143,4269.4,296.22232142857143,299.12857142857143,4398.2,296.22232142857143,299.12857142857143,4522,296.22232142857143,299.12857142857143,4646.4,296.22232142857143,299.12857142857143,4769.7,296.22232142857143,299.12857142857143,4894.4]","[1620.2,1620.2,1000,0,620.2,""smooth"",""down"",""down"",""good_move"",4813.9,3193.5,2557.9,1620.4,635.6,""oops"",""left"",""left"",""good_move"",16044.7,11230.4,2739.9,4814.3,8490.5,""oops"",""left"",""left"",""good_move"",28211.5,12166.3,2644.8,16045.2,9521.5,""oops"",""left"",""right"",""bad_move"",42005.8,13793.7,2990.2,38346.8,668.8,""smooth"",""down"",""down"",""good_move"",45667.6,3661.5,2682.3,42006.1,979.2,""smooth"",""left"",""left"",""good_move"",64864.9,19197.1,2123.9,61949.4,791.6,""smooth"",""down"",""down"",""good_move"",68305.1,3439.9,2229.5,64865.2,1210.4,""smooth"",""left"",""left"",""good_move""]","",""
"3396","","<div style=""width:500px;"">
  <p>What determined the result of this run?</p>
  </div>","75","html-slider-response","70","1033725","0.0-5.0-1.12","3","1","2025-07-09 08:38:39","01610cd0009c79a99da7d0a3353eb402","105.216.70.10","Mozilla/5.0 (Windows NT 10.0; Win64; x64) AppleWebKit/537.36 (KHTML, like Gecko) Chrome/138.0.0.0 Safari/537.36","WebKit","Chrome","138.0.0.0","Windows","10.0","https://app.prolific.com/","en-ZA,en-GB;q=0.9,en-US;q=0.8,en;q=0.7","653a6a7224e6c0bfb644ff9b","683db7602f5db6a34d12d064","686e2a6a39f0de6b1cae885e","1","653a6a7224e6c0bfb644ff9b","1","2025-07-09T08:55:55.055Z","","","","","","","","","","","AttribQ","","50","","","","","","","","","","","","","","","","","","","","","","","","","","","","",""
"2038","","<div style=""width:500px;"">
  <p>How much control did you have over the ball?</p>
  </div>","64","html-slider-response","71","1035773","0.0-5.0-2.12","3","1","2025-07-09 08:38:39","01610cd0009c79a99da7d0a3353eb402","105.216.70.10","Mozilla/5.0 (Windows NT 10.0; Win64; x64) AppleWebKit/537.36 (KHTML, like Gecko) Chrome/138.0.0.0 Safari/537.36","WebKit","Chrome","138.0.0.0","Windows","10.0","https://app.prolific.com/","en-ZA,en-GB;q=0.9,en-US;q=0.8,en;q=0.7","653a6a7224e6c0bfb644ff9b","683db7602f5db6a34d12d064","686e2a6a39f0de6b1cae885e","1","653a6a7224e6c0bfb644ff9b","1","2025-07-09T08:55:57.103Z","","","","","","","","","","","ControlQ","","50","","","","","","","","","","","","","","","","","","","","","","","","","","","","",""
"3030","","<div style=""width:500px;"">
  <p>How would you describe your current emotional state?</p>
  </div>","81","html-slider-response","72","1038813","0.0-5.0-3.12","3","1","2025-07-09 08:38:39","01610cd0009c79a99da7d0a3353eb402","105.216.70.10","Mozilla/5.0 (Windows NT 10.0; Win64; x64) AppleWebKit/537.36 (KHTML, like Gecko) Chrome/138.0.0.0 Safari/537.36","WebKit","Chrome","138.0.0.0","Windows","10.0","https://app.prolific.com/","en-ZA,en-GB;q=0.9,en-US;q=0.8,en;q=0.7","653a6a7224e6c0bfb644ff9b","683db7602f5db6a34d12d064","686e2a6a39f0de6b1cae885e","1","653a6a7224e6c0bfb644ff9b","1","2025-07-09T08:56:00.143Z","","","","","","","","","","","StressQ","","50","","","","","","","","","","","","","","","","","","","","","","","","","","","","",""
"1783","","<div style=""width:500px;"">
  <p>What best describes how you currently feel?</p>
  </div>","64","html-slider-response","73","1040604","0.0-5.0-4.12","3","1","2025-07-09 08:38:39","01610cd0009c79a99da7d0a3353eb402","105.216.70.10","Mozilla/5.0 (Windows NT 10.0; Win64; x64) AppleWebKit/537.36 (KHTML, like Gecko) Chrome/138.0.0.0 Safari/537.36","WebKit","Chrome","138.0.0.0","Windows","10.0","https://app.prolific.com/","en-ZA,en-GB;q=0.9,en-US;q=0.8,en;q=0.7","653a6a7224e6c0bfb644ff9b","683db7602f5db6a34d12d064","686e2a6a39f0de6b1cae885e","1","653a6a7224e6c0bfb644ff9b","1","2025-07-09T08:56:01.935Z","","","","","","","","","","","MotivationQ","","50","","","","","","","","","","","","","","","","","","","","","","","","","","","","",""
