"rt","response_timestamp","stimulus","response","trial_type","trial_index","time_elapsed","internal_node_id","run_id","condition","recorded_at","source_code_version","ip","user_agent","device","browser","browser_version","platform","platform_version","referer","accept_language","PROLIFIC_PID","STUDY_ID","SESSION_ID","WEEK","BATCH","prolific_id","week","batch","realtime","success","responses","item_order","radio_event_ids","radio_event_times","key_event_times","mouse_event_times","straightlining","zigzagging","honeypot","eventType","view_history","slider_start","which_type","canvas_config","goals_layout","control_level","trial_number","tutorial_trial_number","trial_start_time","phase1_start_time","phase2_start_time","phase3_start_time","goal_1_value","goal_1_distance","goal_2_value","goal_2_distance","goal_selected","outcome","outcome_total","participant_final_score","participant_initial_score","participant_final_score_prop","goal_choice_rt","allocated_time","allocated_time_remaining","goal_direction","counts","mouse_movements","key_presses","question_order","question_id"
"1609","1752674205481","<p style='font-size:40px;line-height:1.25'><strong>Welcome to the experiment!</strong></p><p style='font-size:1.1em;line-height:1.25'>Thank you for participanting in our experiment again! You will be asked to play the Dysfunctional Ball Game again. We will briefly recap the rules before we start.</p><p style='font-size:1.1em;line-height:1.25'>Press <strong>Next</strong> to continue.</p>","0","custom-html-button-response","0","1611","0.0-0.0","116","1","2025-07-16 13:56:45","1f75c3e559b7213887762d5229550c2b","89.245.26.231","Mozilla/5.0 (Windows NT 10.0; Win64; x64) AppleWebKit/537.36 (KHTML, like Gecko) Chrome/134.0.0.0 Safari/537.36 OPR/119.0.0.0","WebKit","Opera","119.0.0.0","Windows","10.0","https://app.prolific.com/","de-DE,de;q=0.9,en-US;q=0.8,en;q=0.7","6565f2ba13586fa869dd3b28","686e379bc37a29ffa5cdc956","6877af93a6475af9e06149aa","1","1","6565f2ba13586fa869dd3b28","1","1","2025-07-16T13:56:45.482Z","","","","","","","","","","","","","","","","","","","","","","","","","","","","","","","","","","","","","","","","","",""
"6667","","","","fullscreen","1","9289","0.0-1.0","116","1","2025-07-16 13:56:45","1f75c3e559b7213887762d5229550c2b","89.245.26.231","Mozilla/5.0 (Windows NT 10.0; Win64; x64) AppleWebKit/537.36 (KHTML, like Gecko) Chrome/134.0.0.0 Safari/537.36 OPR/119.0.0.0","WebKit","Opera","119.0.0.0","Windows","10.0","https://app.prolific.com/","de-DE,de;q=0.9,en-US;q=0.8,en;q=0.7","6565f2ba13586fa869dd3b28","686e379bc37a29ffa5cdc956","6877af93a6475af9e06149aa","1","1","6565f2ba13586fa869dd3b28","1","1","","true","","","","","","","","","","","","","","","","","","","","","","","","","","","","","","","","","","","","","","","","",""
"11189","1752674224349","<p style='font-size:1.1em;line-height:1.25'>In the following, we will ask you a few questions relating to your feelings in the last 24 hours.<br></p><p style='font-size:1.1em;line-height:1.25'>Press the <strong>Next</strong> button to continue.</p>","0","custom-html-button-response","2","20479","0.0-2.0-0.0","116","1","2025-07-16 13:56:45","1f75c3e559b7213887762d5229550c2b","89.245.26.231","Mozilla/5.0 (Windows NT 10.0; Win64; x64) AppleWebKit/537.36 (KHTML, like Gecko) Chrome/134.0.0.0 Safari/537.36 OPR/119.0.0.0","WebKit","Opera","119.0.0.0","Windows","10.0","https://app.prolific.com/","de-DE,de;q=0.9,en-US;q=0.8,en;q=0.7","6565f2ba13586fa869dd3b28","686e379bc37a29ffa5cdc956","6877af93a6475af9e06149aa","1","1","6565f2ba13586fa869dd3b28","1","1","2025-07-16T13:57:04.350Z","","","","","","","","","","","","","","","","","","","","","","","","","","","","","","","","","","","","","","","","","",""
"60643.39999997616","","","","survey-template","3","81126","0.0-2.0-1.0","116","1","2025-07-16 13:56:45","1f75c3e559b7213887762d5229550c2b","89.245.26.231","Mozilla/5.0 (Windows NT 10.0; Win64; x64) AppleWebKit/537.36 (KHTML, like Gecko) Chrome/134.0.0.0 Safari/537.36 OPR/119.0.0.0","WebKit","Opera","119.0.0.0","Windows","10.0","https://app.prolific.com/","de-DE,de;q=0.9,en-US;q=0.8,en;q=0.7","6565f2ba13586fa869dd3b28","686e379bc37a29ffa5cdc956","6877af93a6475af9e06149aa","1","1","6565f2ba13586fa869dd3b28","1","1","2025-07-16T13:58:04.997Z","","{""Q01"":""0"",""Q02"":""0"",""Q03"":""0"",""Q04"":""0"",""Q05"":""1"",""Q06"":""1"",""Q07"":""0"",""Q08"":""0"",""Q09"":""1"",""Q10"":""1"",""Q11"":""2"",""Q12"":""2"",""Q13"":""5"",""Q14"":""2"",""Q15"":""0"",""Q16"":""2"",""Q17"":""0"",""Q18"":""1"",""Q19"":""0"",""Q20"":""0"",""Q21"":""0"",""Q22"":""0""}","[0,1,2,3,4,5,6,7,8,9,10,11,12,13,14,15,16,17,18,19,20,21]","[""Q01"",""Q02"",""Q03"",""Q04"",""Q05"",""Q05"",""Q06"",""Q07"",""Q08"",""Q09"",""Q10"",""Q11"",""Q12"",""Q13"",""Q14"",""Q14"",""Q15"",""Q16"",""Q16"",""Q17"",""Q18"",""Q19"",""Q20"",""Q21"",""Q22""]","[1829.2999999523163,3268.699999988079,4703.799999952316,5355.199999988079,6133.199999988079,7855.899999976158,10083.399999976158,13095.099999964237,13736.899999976158,16361.799999952316,17528,20496.799999952316,21411.799999952316,23361.799999952316,24772.899999976158,25615.099999964237,27924.899999976158,46145.799999952316,47179.799999952316,48908.89999997616,49973.69999998808,51462.799999952316,56229.799999952316,57981,59351.59999996424]","[]","[0,1829.2999999523163,3268.699999988079,4703.799999952316,5355.199999988079,6133.199999988079,7855.899999976158,10083.399999976158,11059.099999964237,12047.799999952316,12840,13095.099999964237,13736.899999976158,16361.799999952316,17528,19658.099999964237,20496.799999952316,21411.799999952316,23361.799999952316,24772.899999976158,25615.099999964237,27924.899999976158,46145.799999952316,47179.799999952316,48908.89999997616,49973.69999998808,51462.799999952316,55780.89999997616,56229.799999952316,57981,58911.799999952316,59351.59999996424,60640.89999997616]","0.5454545454545454","0.2857142857142857","0","drsp","","","","","","","","","","","","","","","","","","","","","","","","","","","","","","",""
"9682.300000011921","","","","survey-template","4","90810","0.0-2.0-2.0","116","1","2025-07-16 13:56:45","1f75c3e559b7213887762d5229550c2b","89.245.26.231","Mozilla/5.0 (Windows NT 10.0; Win64; x64) AppleWebKit/537.36 (KHTML, like Gecko) Chrome/134.0.0.0 Safari/537.36 OPR/119.0.0.0","WebKit","Opera","119.0.0.0","Windows","10.0","https://app.prolific.com/","de-DE,de;q=0.9,en-US;q=0.8,en;q=0.7","6565f2ba13586fa869dd3b28","686e379bc37a29ffa5cdc956","6877af93a6475af9e06149aa","1","1","6565f2ba13586fa869dd3b28","1","1","2025-07-16T13:58:14.681Z","","{""Q01"":""1"",""Q02"":""2"",""Q03"":""1""}","[0,1,2]","[""Q01"",""Q02"",""Q03""]","[3872.5,6449.399999976158,8941.5]","[]","[3872.5,6449.399999976158,8941.5,9681.599999964237]","0.6666666666666666","0","0","stress","","","","","","","","","","","","","","","","","","","","","","","","","","","","","","",""
"5496","","","","instructions","5","96307","0.0-3.0-0.0","116","1","2025-07-16 13:56:45","1f75c3e559b7213887762d5229550c2b","89.245.26.231","Mozilla/5.0 (Windows NT 10.0; Win64; x64) AppleWebKit/537.36 (KHTML, like Gecko) Chrome/134.0.0.0 Safari/537.36 OPR/119.0.0.0","WebKit","Opera","119.0.0.0","Windows","10.0","https://app.prolific.com/","de-DE,de;q=0.9,en-US;q=0.8,en;q=0.7","6565f2ba13586fa869dd3b28","686e379bc37a29ffa5cdc956","6877af93a6475af9e06149aa","1","1","6565f2ba13586fa869dd3b28","1","1","","","","","","","","","","","","","[{""page_index"":0,""viewing_time"":5496}]","","","","","","","","","","","","","","","","","","","","","","","","","","","","","",""
"7665","","<p>Before you start with this game please answer the following three questions yourself. </p>
  <p>Through this game, we measure several aspects of your cognitive performance, such as reaction times, multi-tasking capabilities </p>
  <p>and the ability to assess the situation you are in.</p>
  <p></p>
  <p><b>How good do you usually are in such tasks?</b></p>","66","html-slider-response","6","103973","0.0-4.0-0.0","116","1","2025-07-16 13:56:45","1f75c3e559b7213887762d5229550c2b","89.245.26.231","Mozilla/5.0 (Windows NT 10.0; Win64; x64) AppleWebKit/537.36 (KHTML, like Gecko) Chrome/134.0.0.0 Safari/537.36 OPR/119.0.0.0","WebKit","Opera","119.0.0.0","Windows","10.0","https://app.prolific.com/","de-DE,de;q=0.9,en-US;q=0.8,en;q=0.7","6565f2ba13586fa869dd3b28","686e379bc37a29ffa5cdc956","6877af93a6475af9e06149aa","1","1","6565f2ba13586fa869dd3b28","1","1","2025-07-16T13:58:27.844Z","","","","","","","","","","","PreSkillQ","","50","","","","","","","","","","","","","","","","","","","","","","","","","","","","",""
"4159","","<div style=""width:500px;"">
  <p>How well do you think you will perform in this task compared to other participants?</p>
  </div>","50","html-slider-response","7","108133","0.0-4.0-1.0","116","1","2025-07-16 13:56:45","1f75c3e559b7213887762d5229550c2b","89.245.26.231","Mozilla/5.0 (Windows NT 10.0; Win64; x64) AppleWebKit/537.36 (KHTML, like Gecko) Chrome/134.0.0.0 Safari/537.36 OPR/119.0.0.0","WebKit","Opera","119.0.0.0","Windows","10.0","https://app.prolific.com/","de-DE,de;q=0.9,en-US;q=0.8,en;q=0.7","6565f2ba13586fa869dd3b28","686e379bc37a29ffa5cdc956","6877af93a6475af9e06149aa","1","1","6565f2ba13586fa869dd3b28","1","1","2025-07-16T13:58:32.004Z","","","","","","","","","","","PrePerfQ","","50","","","","","","","","","","","","","","","","","","","","","","","","","","","","",""
"1896","","<div style=""width:500px;"">
  <p>What best describes how you currently feel?</p>
  </div>","100","html-slider-response","8","110030","0.0-4.0-2.0","116","1","2025-07-16 13:56:45","1f75c3e559b7213887762d5229550c2b","89.245.26.231","Mozilla/5.0 (Windows NT 10.0; Win64; x64) AppleWebKit/537.36 (KHTML, like Gecko) Chrome/134.0.0.0 Safari/537.36 OPR/119.0.0.0","WebKit","Opera","119.0.0.0","Windows","10.0","https://app.prolific.com/","de-DE,de;q=0.9,en-US;q=0.8,en;q=0.7","6565f2ba13586fa869dd3b28","686e379bc37a29ffa5cdc956","6877af93a6475af9e06149aa","1","1","6565f2ba13586fa869dd3b28","1","1","2025-07-16T13:58:33.901Z","","","","","","","","","","","PreMotivationQ","","50","","","","","","","","","","","","","","","","","","","","","","","","","","","","",""
"","","","","ctl-task-cpt","9","132483","0.0-5.0-0.0","116","1","2025-07-16 13:56:45","1f75c3e559b7213887762d5229550c2b","89.245.26.231","Mozilla/5.0 (Windows NT 10.0; Win64; x64) AppleWebKit/537.36 (KHTML, like Gecko) Chrome/134.0.0.0 Safari/537.36 OPR/119.0.0.0","WebKit","Opera","119.0.0.0","Windows","10.0","https://app.prolific.com/","de-DE,de;q=0.9,en-US;q=0.8,en;q=0.7","6565f2ba13586fa869dd3b28","686e379bc37a29ffa5cdc956","6877af93a6475af9e06149aa","1","1","6565f2ba13586fa869dd3b28","1","1","2025-07-16T13:58:56.354Z","","","","","","","","","","","","","","win-only","1","g1:NE,g2:SW","1","1","0","111095","907.8","5911.2","19448.1","1","4","8","6","1","1","0","0","0","0","2034.4","3000","1555","[""up"",""right""]","{""num_key_presses"":5,""num_perfect"":4,""num_errors"":1,""num_randdir"":0,""num_randdir_good_moves"":0,""num_whilered"":0,""num_whileblue"":0,""num_blue"":0,""num_good_moves"":4}","[417.57142857142856,410.47767857142856,0.1,417.57142857142856,410.47767857142856,106.2,417.57142857142856,410.47767857142856,208.4,417.57142857142856,410.47767857142856,313.8,417.57142857142856,410.47767857142856,418.3,481.57142857142856,410.47767857142856,518.3,497.57142857142856,406.47767857142856,622.7,271.57142857142856,580.4776785714286,723.1,161.57142857142856,650.4776785714286,834.7,155.57142857142856,656.4776785714286,940.3,127.57142857142857,698.4776785714286,1054.7,85.57142857142857,722.4776785714286,1166.5,65.57142857142857,732.4776785714286,1268,63.57142857142857,732.4776785714286,1368.1,63.57142857142857,732.4776785714286,1472.8,189.57142857142856,626.4776785714286,1573.7,599.5714285714286,230.47767857142856,1684.8,623.5714285714286,194.47767857142856,1789.7,669.5714285714286,148.47767857142856,1889.9,755.5714285714286,92.47767857142857,1993.3,755.5714285714286,92.47767857142857,2098.5,755.5714285714286,92.47767857142857,2208.3,755.5714285714286,92.47767857142857,2312.9,755.5714285714286,94.47767857142857,2413.1,755.5714285714286,110.47767857142857,2517.5,741.5714285714286,126.47767857142857,2617.6,721.5714285714286,142.47767857142856,2717.9,703.5714285714286,152.47767857142856,2818.6,693.5714285714286,154.47767857142856,2924.2,685.5714285714286,150.47767857142856,3028.2,685.5714285714286,140.47767857142856,3132.9,685.5714285714286,136.47767857142856,3233,677.5714285714286,114.47767857142857,3338,673.5714285714286,96.47767857142857,3438.2,673.5714285714286,96.47767857142857,3542.8,661.5714285714286,86.47767857142857,3643,631.5714285714286,92.47767857142857,3743.2,631.5714285714286,92.47767857142857,3843.4,695.5714285714286,48.47767857142857,3947.8,629.5714285714286,144.47767857142856,4048,599.5714285714286,162.47767857142856,4148.2,597.5714285714286,146.47767857142856,4248.3,597.5714285714286,146.47767857142856,4354.1,597.5714285714286,146.47767857142856,4457.9,597.5714285714286,146.47767857142856,4558,597.5714285714286,146.47767857142856,4658.1,597.5714285714286,146.47767857142856,4758.2,597.5714285714286,146.47767857142856,4858.2,597.5714285714286,146.47767857142856,4958.3]","[723.6,723.5,1000,0.1,-276.5,""error"",""-"",""-"",""no_move"",4710.4,3986.7,2591,1724.1,395.3,""smooth"",""up"",""up"",""good_move"",8153.6,3442.8,3011.3,4710.8,431.5,""smooth"",""up"",""up"",""good_move"",10546.3,2392.4,1928.5,8153.9,463.9,""smooth"",""right"",""right"",""good_move"",13447.4,2900.7,2559.6,10546.7,341.1,""smooth"",""right"",""right"",""good_move""]","",""
"4705","","<div style=""width:500px;"">
  <p>What determined the result of this run?</p>
  </div>","100","html-slider-response","10","137189","0.0-5.0-1.0","116","1","2025-07-16 13:56:45","1f75c3e559b7213887762d5229550c2b","89.245.26.231","Mozilla/5.0 (Windows NT 10.0; Win64; x64) AppleWebKit/537.36 (KHTML, like Gecko) Chrome/134.0.0.0 Safari/537.36 OPR/119.0.0.0","WebKit","Opera","119.0.0.0","Windows","10.0","https://app.prolific.com/","de-DE,de;q=0.9,en-US;q=0.8,en;q=0.7","6565f2ba13586fa869dd3b28","686e379bc37a29ffa5cdc956","6877af93a6475af9e06149aa","1","1","6565f2ba13586fa869dd3b28","1","1","2025-07-16T13:59:01.060Z","","","","","","","","","","","AttribQ","","50","","","","","","","","","","","","","","","","","","","","","","","","","","","","",""
"2985","","<div style=""width:500px;"">
  <p>How much control did you have over the ball?</p>
  </div>","100","html-slider-response","11","140176","0.0-5.0-2.0","116","1","2025-07-16 13:56:45","1f75c3e559b7213887762d5229550c2b","89.245.26.231","Mozilla/5.0 (Windows NT 10.0; Win64; x64) AppleWebKit/537.36 (KHTML, like Gecko) Chrome/134.0.0.0 Safari/537.36 OPR/119.0.0.0","WebKit","Opera","119.0.0.0","Windows","10.0","https://app.prolific.com/","de-DE,de;q=0.9,en-US;q=0.8,en;q=0.7","6565f2ba13586fa869dd3b28","686e379bc37a29ffa5cdc956","6877af93a6475af9e06149aa","1","1","6565f2ba13586fa869dd3b28","1","1","2025-07-16T13:59:04.047Z","","","","","","","","","","","ControlQ","","50","","","","","","","","","","","","","","","","","","","","","","","","","","","","",""
"3607","","<div style=""width:500px;"">
  <p>How would you describe your current emotional state?</p>
  </div>","7","html-slider-response","12","143784","0.0-5.0-3.0","116","1","2025-07-16 13:56:45","1f75c3e559b7213887762d5229550c2b","89.245.26.231","Mozilla/5.0 (Windows NT 10.0; Win64; x64) AppleWebKit/537.36 (KHTML, like Gecko) Chrome/134.0.0.0 Safari/537.36 OPR/119.0.0.0","WebKit","Opera","119.0.0.0","Windows","10.0","https://app.prolific.com/","de-DE,de;q=0.9,en-US;q=0.8,en;q=0.7","6565f2ba13586fa869dd3b28","686e379bc37a29ffa5cdc956","6877af93a6475af9e06149aa","1","1","6565f2ba13586fa869dd3b28","1","1","2025-07-16T13:59:07.655Z","","","","","","","","","","","StressQ","","50","","","","","","","","","","","","","","","","","","","","","","","","","","","","",""
"2472","","<div style=""width:500px;"">
  <p>What best describes how you currently feel?</p>
  </div>","100","html-slider-response","13","146257","0.0-5.0-4.0","116","1","2025-07-16 13:56:45","1f75c3e559b7213887762d5229550c2b","89.245.26.231","Mozilla/5.0 (Windows NT 10.0; Win64; x64) AppleWebKit/537.36 (KHTML, like Gecko) Chrome/134.0.0.0 Safari/537.36 OPR/119.0.0.0","WebKit","Opera","119.0.0.0","Windows","10.0","https://app.prolific.com/","de-DE,de;q=0.9,en-US;q=0.8,en;q=0.7","6565f2ba13586fa869dd3b28","686e379bc37a29ffa5cdc956","6877af93a6475af9e06149aa","1","1","6565f2ba13586fa869dd3b28","1","1","2025-07-16T13:59:10.128Z","","","","","","","","","","","MotivationQ","","50","","","","","","","","","","","","","","","","","","","","","","","","","","","","",""
"","","","","ctl-task-cpt","14","177765","0.0-5.0-0.1","116","1","2025-07-16 13:56:45","1f75c3e559b7213887762d5229550c2b","89.245.26.231","Mozilla/5.0 (Windows NT 10.0; Win64; x64) AppleWebKit/537.36 (KHTML, like Gecko) Chrome/134.0.0.0 Safari/537.36 OPR/119.0.0.0","WebKit","Opera","119.0.0.0","Windows","10.0","https://app.prolific.com/","de-DE,de;q=0.9,en-US;q=0.8,en;q=0.7","6565f2ba13586fa869dd3b28","686e379bc37a29ffa5cdc956","6877af93a6475af9e06149aa","1","1","6565f2ba13586fa869dd3b28","1","1","2025-07-16T13:59:41.636Z","","","","","","","","","","","","","","win-only","1","g1:NE,g2:SW","0.9","2","0","147321.1","1457.1","6460.7","28490.5","1","4","4","6","2","4","4","4","0","0.030303030303030304","1148","3000","945","[""down"",""left""]","{""num_key_presses"":6,""num_perfect"":5,""num_errors"":0,""num_randdir"":1,""num_randdir_good_moves"":1,""num_whilered"":0,""num_whileblue"":0,""num_blue"":2,""num_good_moves"":6}","[415.57142857142856,418.47767857142856,0.3,415.57142857142856,418.47767857142856,113.9,415.57142857142856,418.47767857142856,218.4,415.57142857142856,418.47767857142856,336.8,415.57142857142856,418.47767857142856,438.1,415.57142857142856,422.47767857142856,538.9,283.57142857142856,556.4776785714286,643.5,133.57142857142856,646.4776785714286,743.5,107.57142857142857,690.4776785714286,851.6,95.57142857142857,714.4776785714286,953.2,69.57142857142857,738.4776785714286,1053.8,69.57142857142857,738.4776785714286,1158,69.57142857142857,738.4776785714286,1258.2,71.57142857142857,732.4776785714286,1359.1,75.57142857142857,636.4776785714286,1463.2,109.57142857142857,508.47767857142856,1564,91.57142857142857,380.47767857142856,1668.4,71.57142857142857,382.47767857142856,1769.1,71.57142857142857,382.47767857142856,1869.3,71.57142857142857,382.47767857142856,1973.1,71.57142857142857,382.47767857142856,2073.3,71.57142857142857,382.47767857142856,2173.4,71.57142857142857,382.47767857142856,2273.5,71.57142857142857,382.47767857142856,2374.1,71.57142857142857,382.47767857142856,2478.2,71.57142857142857,382.47767857142856,2578.3,71.57142857142857,382.47767857142856,2678.3,71.57142857142857,382.47767857142856,2778.4,71.57142857142857,382.47767857142856,2878.5,71.57142857142857,382.47767857142856,2983.3,71.57142857142857,382.47767857142856,3084.4,71.57142857142857,382.47767857142856,3188.5,71.57142857142857,382.47767857142856,3288.5,71.57142857142857,382.47767857142856,3393.6,71.57142857142857,382.47767857142856,3498.5,71.57142857142857,382.47767857142856,3603.4,71.57142857142857,382.47767857142856,3703.4,71.57142857142857,382.47767857142856,3803.5,71.57142857142857,382.47767857142856,3908.1,71.57142857142857,382.47767857142856,4008.1,71.57142857142857,382.47767857142856,4108.3,71.57142857142857,382.47767857142856,4208.4,71.57142857142857,382.47767857142856,4308.5,71.57142857142857,382.47767857142856,4413.1,71.57142857142857,380.47767857142856,4513.2,71.57142857142857,380.47767857142856,4613.3,71.57142857142857,380.47767857142856,4713.4,71.57142857142857,380.47767857142856,4813.5,69.57142857142857,378.47767857142856,4918.2]","[4228.2,4228.2,1927.2,2004.9,296.1,""smooth"",""left"",""left"",""good_move"",7268.8,3040.2,2683.4,4228.6,356.8,""smooth"",""down"",""down"",""good_move"",9803.6,2534.4,2178.3,7269.3,356,""smooth"",""left"",""left"",""good_move"",16088.7,6284.8,1824.7,13905.1,358.9,""oops"",""down"",""left"",""good_move"",18764.9,2676,2276.9,16088.9,399.1,""smooth"",""down"",""down"",""good_move"",21938.2,3173,2831.2,18765.2,341.8,""smooth"",""down"",""down"",""good_move""]","",""
"3864","","<div style=""width:500px;"">
  <p>What determined the result of this run?</p>
  </div>","86","html-slider-response","15","181630","0.0-5.0-1.1","116","1","2025-07-16 13:56:45","1f75c3e559b7213887762d5229550c2b","89.245.26.231","Mozilla/5.0 (Windows NT 10.0; Win64; x64) AppleWebKit/537.36 (KHTML, like Gecko) Chrome/134.0.0.0 Safari/537.36 OPR/119.0.0.0","WebKit","Opera","119.0.0.0","Windows","10.0","https://app.prolific.com/","de-DE,de;q=0.9,en-US;q=0.8,en;q=0.7","6565f2ba13586fa869dd3b28","686e379bc37a29ffa5cdc956","6877af93a6475af9e06149aa","1","1","6565f2ba13586fa869dd3b28","1","1","2025-07-16T13:59:45.501Z","","","","","","","","","","","AttribQ","","50","","","","","","","","","","","","","","","","","","","","","","","","","","","","",""
"1778","","<div style=""width:500px;"">
  <p>How much control did you have over the ball?</p>
  </div>","88","html-slider-response","16","183410","0.0-5.0-2.1","116","1","2025-07-16 13:56:45","1f75c3e559b7213887762d5229550c2b","89.245.26.231","Mozilla/5.0 (Windows NT 10.0; Win64; x64) AppleWebKit/537.36 (KHTML, like Gecko) Chrome/134.0.0.0 Safari/537.36 OPR/119.0.0.0","WebKit","Opera","119.0.0.0","Windows","10.0","https://app.prolific.com/","de-DE,de;q=0.9,en-US;q=0.8,en;q=0.7","6565f2ba13586fa869dd3b28","686e379bc37a29ffa5cdc956","6877af93a6475af9e06149aa","1","1","6565f2ba13586fa869dd3b28","1","1","2025-07-16T13:59:47.281Z","","","","","","","","","","","ControlQ","","50","","","","","","","","","","","","","","","","","","","","","","","","","","","","",""
"1434","","<div style=""width:500px;"">
  <p>How would you describe your current emotional state?</p>
  </div>","14","html-slider-response","17","184845","0.0-5.0-3.1","116","1","2025-07-16 13:56:45","1f75c3e559b7213887762d5229550c2b","89.245.26.231","Mozilla/5.0 (Windows NT 10.0; Win64; x64) AppleWebKit/537.36 (KHTML, like Gecko) Chrome/134.0.0.0 Safari/537.36 OPR/119.0.0.0","WebKit","Opera","119.0.0.0","Windows","10.0","https://app.prolific.com/","de-DE,de;q=0.9,en-US;q=0.8,en;q=0.7","6565f2ba13586fa869dd3b28","686e379bc37a29ffa5cdc956","6877af93a6475af9e06149aa","1","1","6565f2ba13586fa869dd3b28","1","1","2025-07-16T13:59:48.717Z","","","","","","","","","","","StressQ","","50","","","","","","","","","","","","","","","","","","","","","","","","","","","","",""
"1916","","<div style=""width:500px;"">
  <p>What best describes how you currently feel?</p>
  </div>","86","html-slider-response","18","186763","0.0-5.0-4.1","116","1","2025-07-16 13:56:45","1f75c3e559b7213887762d5229550c2b","89.245.26.231","Mozilla/5.0 (Windows NT 10.0; Win64; x64) AppleWebKit/537.36 (KHTML, like Gecko) Chrome/134.0.0.0 Safari/537.36 OPR/119.0.0.0","WebKit","Opera","119.0.0.0","Windows","10.0","https://app.prolific.com/","de-DE,de;q=0.9,en-US;q=0.8,en;q=0.7","6565f2ba13586fa869dd3b28","686e379bc37a29ffa5cdc956","6877af93a6475af9e06149aa","1","1","6565f2ba13586fa869dd3b28","1","1","2025-07-16T13:59:50.634Z","","","","","","","","","","","MotivationQ","","50","","","","","","","","","","","","","","","","","","","","","","","","","","","","",""
"","","","","ctl-task-cpt","19","216998","0.0-5.0-0.2","116","1","2025-07-16 13:56:45","1f75c3e559b7213887762d5229550c2b","89.245.26.231","Mozilla/5.0 (Windows NT 10.0; Win64; x64) AppleWebKit/537.36 (KHTML, like Gecko) Chrome/134.0.0.0 Safari/537.36 OPR/119.0.0.0","WebKit","Opera","119.0.0.0","Windows","10.0","https://app.prolific.com/","de-DE,de;q=0.9,en-US;q=0.8,en;q=0.7","6565f2ba13586fa869dd3b28","686e379bc37a29ffa5cdc956","6877af93a6475af9e06149aa","1","1","6565f2ba13586fa869dd3b28","1","1","2025-07-16T14:00:20.869Z","","","","","","","","","","","","","","win-only","3","g1:SW,g2:NE","0.8","3","0","187828.2","4599.4","9601.4","27215.5","1","4","8","6","1","1","1","5","4","0.03787878787878788","1818.1","3000","1385","[""down"",""left""]","{""num_key_presses"":4,""num_perfect"":4,""num_errors"":0,""num_randdir"":0,""num_randdir_good_moves"":0,""num_whilered"":0,""num_whileblue"":0,""num_blue"":2,""num_good_moves"":4}","[427.57142857142856,416.47767857142856,0.2,427.57142857142856,416.47767857142856,102,427.57142857142856,418.47767857142856,205.9,427.57142857142856,418.47767857142856,308,427.57142857142856,418.47767857142856,411.8,425.57142857142856,420.47767857142856,516.6,421.57142857142856,428.47767857142856,616.9,437.57142857142856,414.47767857142856,718.3,659.5714285714286,254.47767857142856,821.2,719.5714285714286,138.47767857142856,922,741.5714285714286,104.47767857142857,1026.5,741.5714285714286,102.47767857142857,1126.5,741.5714285714286,102.47767857142857,1227,741.5714285714286,102.47767857142857,1331.5,577.5714285714286,308.47767857142856,1437,-38.42857142857143,722.4776785714286,1541.3,-46.42857142857143,742.4776785714286,1641.3,61.57142857142857,730.4776785714286,1741.3,85.57142857142857,722.4776785714286,1841.9,87.57142857142857,720.4776785714286,1945.8,93.57142857142857,694.4776785714286,2046.1,1.5714285714285694,564.4776785714286,2146.4,-126.42857142857143,456.47767857142856,2246.4,-542.4285714285714,394.47767857142856,2346.4,-542.4285714285714,394.47767857142856,2446.4,-542.4285714285714,394.47767857142856,2551.1,-542.4285714285714,394.47767857142856,2651.2,-542.4285714285714,394.47767857142856,2751.3,-542.4285714285714,394.47767857142856,2856.2,-542.4285714285714,394.47767857142856,2956.4,-542.4285714285714,394.47767857142856,3056.7,-542.4285714285714,394.47767857142856,3161.3,-542.4285714285714,394.47767857142856,3266.4,-542.4285714285714,394.47767857142856,3371.3,-542.4285714285714,394.47767857142856,3471.4,-542.4285714285714,394.47767857142856,3571.6,-542.4285714285714,394.47767857142856,3676,-358.42857142857144,318.47767857142856,3776.1,-102.42857142857143,350.47767857142856,3876.3,-10.42857142857143,442.47767857142856,3976.3,-2.4285714285714306,446.47767857142856,4076.3,-36.42857142857143,424.47767857142856,4176.4,-192.42857142857144,382.47767857142856,4281.5,-192.42857142857144,380.47767857142856,4388.1,-192.42857142857144,380.47767857142856,4491.1,-162.42857142857144,378.47767857142856,4596,91.57142857142857,322.47767857142856,4696.5,209.57142857142856,314.47767857142856,4803.8,209.57142857142856,316.47767857142856,4906.6]","[1500.8,1500.8,1000,0,500.8,""smooth"",""left"",""left"",""good_move"",4425.2,2923.9,2460.6,1501.3,463.3,""smooth"",""left"",""left"",""good_move"",11274.4,6848.9,2729.9,8166.3,378.2,""smooth"",""down"",""down"",""good_move"",17522.2,6247.4,2599.3,14509.3,413.6,""smooth"",""down"",""down"",""good_move""]","",""
"3914","","<div style=""width:500px;"">
  <p>What determined the result of this run?</p>
  </div>","86","html-slider-response","20","220913","0.0-5.0-1.2","116","1","2025-07-16 13:56:45","1f75c3e559b7213887762d5229550c2b","89.245.26.231","Mozilla/5.0 (Windows NT 10.0; Win64; x64) AppleWebKit/537.36 (KHTML, like Gecko) Chrome/134.0.0.0 Safari/537.36 OPR/119.0.0.0","WebKit","Opera","119.0.0.0","Windows","10.0","https://app.prolific.com/","de-DE,de;q=0.9,en-US;q=0.8,en;q=0.7","6565f2ba13586fa869dd3b28","686e379bc37a29ffa5cdc956","6877af93a6475af9e06149aa","1","1","6565f2ba13586fa869dd3b28","1","1","2025-07-16T14:00:24.785Z","","","","","","","","","","","AttribQ","","50","","","","","","","","","","","","","","","","","","","","","","","","","","","","",""
"17027","","<div style=""width:500px;"">
  <p>How much control did you have over the ball?</p>
  </div>","80","html-slider-response","21","237942","0.0-5.0-2.2","116","1","2025-07-16 13:56:45","1f75c3e559b7213887762d5229550c2b","89.245.26.231","Mozilla/5.0 (Windows NT 10.0; Win64; x64) AppleWebKit/537.36 (KHTML, like Gecko) Chrome/134.0.0.0 Safari/537.36 OPR/119.0.0.0","WebKit","Opera","119.0.0.0","Windows","10.0","https://app.prolific.com/","de-DE,de;q=0.9,en-US;q=0.8,en;q=0.7","6565f2ba13586fa869dd3b28","686e379bc37a29ffa5cdc956","6877af93a6475af9e06149aa","1","1","6565f2ba13586fa869dd3b28","1","1","2025-07-16T14:00:41.813Z","","","","","","","","","","","ControlQ","","50","","","","","","","","","","","","","","","","","","","","","","","","","","","","",""
"2459","","<div style=""width:500px;"">
  <p>How would you describe your current emotional state?</p>
  </div>","5","html-slider-response","22","240402","0.0-5.0-3.2","116","1","2025-07-16 13:56:45","1f75c3e559b7213887762d5229550c2b","89.245.26.231","Mozilla/5.0 (Windows NT 10.0; Win64; x64) AppleWebKit/537.36 (KHTML, like Gecko) Chrome/134.0.0.0 Safari/537.36 OPR/119.0.0.0","WebKit","Opera","119.0.0.0","Windows","10.0","https://app.prolific.com/","de-DE,de;q=0.9,en-US;q=0.8,en;q=0.7","6565f2ba13586fa869dd3b28","686e379bc37a29ffa5cdc956","6877af93a6475af9e06149aa","1","1","6565f2ba13586fa869dd3b28","1","1","2025-07-16T14:00:44.273Z","","","","","","","","","","","StressQ","","50","","","","","","","","","","","","","","","","","","","","","","","","","","","","",""
"1992","","<div style=""width:500px;"">
  <p>What best describes how you currently feel?</p>
  </div>","88","html-slider-response","23","242395","0.0-5.0-4.2","116","1","2025-07-16 13:56:45","1f75c3e559b7213887762d5229550c2b","89.245.26.231","Mozilla/5.0 (Windows NT 10.0; Win64; x64) AppleWebKit/537.36 (KHTML, like Gecko) Chrome/134.0.0.0 Safari/537.36 OPR/119.0.0.0","WebKit","Opera","119.0.0.0","Windows","10.0","https://app.prolific.com/","de-DE,de;q=0.9,en-US;q=0.8,en;q=0.7","6565f2ba13586fa869dd3b28","686e379bc37a29ffa5cdc956","6877af93a6475af9e06149aa","1","1","6565f2ba13586fa869dd3b28","1","1","2025-07-16T14:00:46.267Z","","","","","","","","","","","MotivationQ","","50","","","","","","","","","","","","","","","","","","","","","","","","","","","","",""
"","","","","ctl-task-cpt","24","335839","0.0-5.0-0.3","116","1","2025-07-16 13:56:45","1f75c3e559b7213887762d5229550c2b","89.245.26.231","Mozilla/5.0 (Windows NT 10.0; Win64; x64) AppleWebKit/537.36 (KHTML, like Gecko) Chrome/134.0.0.0 Safari/537.36 OPR/119.0.0.0","WebKit","Opera","119.0.0.0","Windows","10.0","https://app.prolific.com/","de-DE,de;q=0.9,en-US;q=0.8,en;q=0.7","6565f2ba13586fa869dd3b28","686e379bc37a29ffa5cdc956","6877af93a6475af9e06149aa","1","1","6565f2ba13586fa869dd3b28","1","1","2025-07-16T14:02:19.710Z","","","","","","","","","","","","","","win-only","0","g1:NW,g2:SE","0.7","4","0","243461.3","45148.7","50155.1","90426","1","4","4","6","2","-4","-5","0","5","0","2106","3000","-2955","[""down"",""right""]","{""num_key_presses"":6,""num_perfect"":3,""num_errors"":1,""num_randdir"":2,""num_randdir_good_moves"":0,""num_whilered"":0,""num_whileblue"":0,""num_blue"":6,""num_good_moves"":3}","[419.57142857142856,406.47767857142856,0.3,419.57142857142856,406.47767857142856,102.3,419.57142857142856,406.47767857142856,213.1,419.57142857142856,406.47767857142856,316.6,457.57142857142856,380.47767857142856,417.3,539.5714285714286,304.47767857142856,524.7,449.57142857142856,350.47767857142856,627,391.57142857142856,396.47767857142856,727,419.57142857142856,434.47767857142856,831.6,587.5714285714286,624.4776785714286,932.2,659.5714285714286,694.4776785714286,1037.9,659.5714285714286,694.4776785714286,1141.9,693.5714285714286,710.4776785714286,1246.5,703.5714285714286,712.4776785714286,1348.9,717.5714285714286,724.4776785714286,1452.5,739.5714285714286,738.4776785714286,1552.5,739.5714285714286,738.4776785714286,1657.1,739.5714285714286,738.4776785714286,1757.5,739.5714285714286,738.4776785714286,1861.5,739.5714285714286,738.4776785714286,1961.6,739.5714285714286,738.4776785714286,2061.9,739.5714285714286,738.4776785714286,2161.9,739.5714285714286,738.4776785714286,2262,739.5714285714286,738.4776785714286,2366.8,737.5714285714286,734.4776785714286,2471.8,721.5714285714286,698.4776785714286,2571.9,717.5714285714286,690.4776785714286,2672.3,715.5714285714286,684.4776785714286,2773,693.5714285714286,634.4776785714286,2877.3,651.5714285714286,576.4776785714286,2981.6,563.5714285714286,462.47767857142856,3082.1,479.57142857142856,392.47767857142856,3182.8,373.57142857142856,292.47767857142856,3291.5,373.57142857142856,292.47767857142856,3392.1,373.57142857142856,292.47767857142856,3497.3,373.57142857142856,292.47767857142856,3615.3,373.57142857142856,292.47767857142856,3716.3,373.57142857142856,292.47767857142856,3817,373.57142857142856,292.47767857142856,3917.2,373.57142857142856,292.47767857142856,4021.9,373.57142857142856,292.47767857142856,4122,373.57142857142856,292.47767857142856,4222,373.57142857142856,292.47767857142856,4322.8,373.57142857142856,292.47767857142856,4426.9,373.57142857142856,292.47767857142856,4527,373.57142857142856,292.47767857142856,4627.1,373.57142857142856,292.47767857142856,4727.2,373.57142857142856,292.47767857142856,4827.3,373.57142857142856,292.47767857142856,4931.6]","[1402.2,1402.2,1000,0,402.2,""oops"",""down"",""up"",""bad_move"",11926.2,10523.6,2811.2,8640.3,474.7,""oops"",""right"",""left"",""bad_move"",15608.8,3682.4,2755.8,11926.5,926.6,""smooth"",""right"",""right"",""good_move"",26154.8,10545.6,2062.8,23670.4,421.6,""smooth"",""down"",""down"",""good_move"",31679.5,5524.3,1411.1,29433.9,834.5,""smooth"",""down"",""down"",""good_move"",35983.4,4303.8,2157.5,35475.4,-1649.4,""error"",""-"",""-"",""no_move""]","",""
"7330","","<div style=""width:500px;"">
  <p>What determined the result of this run?</p>
  </div>","21","html-slider-response","25","343171","0.0-5.0-1.3","116","1","2025-07-16 13:56:45","1f75c3e559b7213887762d5229550c2b","89.245.26.231","Mozilla/5.0 (Windows NT 10.0; Win64; x64) AppleWebKit/537.36 (KHTML, like Gecko) Chrome/134.0.0.0 Safari/537.36 OPR/119.0.0.0","WebKit","Opera","119.0.0.0","Windows","10.0","https://app.prolific.com/","de-DE,de;q=0.9,en-US;q=0.8,en;q=0.7","6565f2ba13586fa869dd3b28","686e379bc37a29ffa5cdc956","6877af93a6475af9e06149aa","1","1","6565f2ba13586fa869dd3b28","1","1","2025-07-16T14:02:27.042Z","","","","","","","","","","","AttribQ","","50","","","","","","","","","","","","","","","","","","","","","","","","","","","","",""
"2355","","<div style=""width:500px;"">
  <p>How much control did you have over the ball?</p>
  </div>","19","html-slider-response","26","345527","0.0-5.0-2.3","116","1","2025-07-16 13:56:45","1f75c3e559b7213887762d5229550c2b","89.245.26.231","Mozilla/5.0 (Windows NT 10.0; Win64; x64) AppleWebKit/537.36 (KHTML, like Gecko) Chrome/134.0.0.0 Safari/537.36 OPR/119.0.0.0","WebKit","Opera","119.0.0.0","Windows","10.0","https://app.prolific.com/","de-DE,de;q=0.9,en-US;q=0.8,en;q=0.7","6565f2ba13586fa869dd3b28","686e379bc37a29ffa5cdc956","6877af93a6475af9e06149aa","1","1","6565f2ba13586fa869dd3b28","1","1","2025-07-16T14:02:29.399Z","","","","","","","","","","","ControlQ","","50","","","","","","","","","","","","","","","","","","","","","","","","","","","","",""
"2661","","<div style=""width:500px;"">
  <p>How would you describe your current emotional state?</p>
  </div>","9","html-slider-response","27","348190","0.0-5.0-3.3","116","1","2025-07-16 13:56:45","1f75c3e559b7213887762d5229550c2b","89.245.26.231","Mozilla/5.0 (Windows NT 10.0; Win64; x64) AppleWebKit/537.36 (KHTML, like Gecko) Chrome/134.0.0.0 Safari/537.36 OPR/119.0.0.0","WebKit","Opera","119.0.0.0","Windows","10.0","https://app.prolific.com/","de-DE,de;q=0.9,en-US;q=0.8,en;q=0.7","6565f2ba13586fa869dd3b28","686e379bc37a29ffa5cdc956","6877af93a6475af9e06149aa","1","1","6565f2ba13586fa869dd3b28","1","1","2025-07-16T14:02:32.061Z","","","","","","","","","","","StressQ","","50","","","","","","","","","","","","","","","","","","","","","","","","","","","","",""
"3395","","<div style=""width:500px;"">
  <p>What best describes how you currently feel?</p>
  </div>","86","html-slider-response","28","351586","0.0-5.0-4.3","116","1","2025-07-16 13:56:45","1f75c3e559b7213887762d5229550c2b","89.245.26.231","Mozilla/5.0 (Windows NT 10.0; Win64; x64) AppleWebKit/537.36 (KHTML, like Gecko) Chrome/134.0.0.0 Safari/537.36 OPR/119.0.0.0","WebKit","Opera","119.0.0.0","Windows","10.0","https://app.prolific.com/","de-DE,de;q=0.9,en-US;q=0.8,en;q=0.7","6565f2ba13586fa869dd3b28","686e379bc37a29ffa5cdc956","6877af93a6475af9e06149aa","1","1","6565f2ba13586fa869dd3b28","1","1","2025-07-16T14:02:35.457Z","","","","","","","","","","","MotivationQ","","50","","","","","","","","","","","","","","","","","","","","","","","","","","","","",""
"","","","","ctl-task-cpt","29","386033","0.0-5.0-0.4","116","1","2025-07-16 13:56:45","1f75c3e559b7213887762d5229550c2b","89.245.26.231","Mozilla/5.0 (Windows NT 10.0; Win64; x64) AppleWebKit/537.36 (KHTML, like Gecko) Chrome/134.0.0.0 Safari/537.36 OPR/119.0.0.0","WebKit","Opera","119.0.0.0","Windows","10.0","https://app.prolific.com/","de-DE,de;q=0.9,en-US;q=0.8,en;q=0.7","6565f2ba13586fa869dd3b28","686e379bc37a29ffa5cdc956","6877af93a6475af9e06149aa","1","1","6565f2ba13586fa869dd3b28","1","1","2025-07-16T14:03:09.904Z","","","","","","","","","","","","","","win-only","3","g1:SW,g2:NE","0.6","5","0","352651.6","838.8","5840.9","31425.5","1","4","8","6","1","1","1","1","0","0.007575757575757576","1261.4","3000","1455","[""down"",""left""]","{""num_key_presses"":4,""num_perfect"":3,""num_errors"":0,""num_randdir"":1,""num_randdir_good_moves"":1,""num_whilered"":0,""num_whileblue"":0,""num_blue"":4,""num_good_moves"":4}","[409.57142857142856,405.47767857142856,0.2,409.57142857142856,405.47767857142856,101.5,409.57142857142856,405.47767857142856,207,409.57142857142856,405.47767857142856,307,413.57142857142856,403.47767857142856,408,413.57142857142856,401.47767857142856,512.2,415.57142857142856,399.47767857142856,616.6,423.57142857142856,395.47767857142856,716.9,413.57142857142856,419.47767857142856,818.2,259.57142857142856,559.4776785714286,921.4,167.57142857142856,643.4776785714286,1021.5,119.57142857142857,679.4776785714286,1123.5,103.57142857142857,707.4776785714286,1225.6,101.57142857142857,709.4776785714286,1327.5,101.57142857142857,711.4776785714286,1432.1,101.57142857142857,711.4776785714286,1537.1,41.57142857142857,609.4776785714286,1642.8,-304.42857142857144,531.4776785714286,1742.8,-542.4285714285714,519.4776785714286,1847.3,-542.4285714285714,519.4776785714286,1951.7,-542.4285714285714,519.4776785714286,2052.2,-542.4285714285714,519.4776785714286,2158.1,-542.4285714285714,519.4776785714286,2258.6,-542.4285714285714,519.4776785714286,2361.6,-542.4285714285714,519.4776785714286,2462,-542.4285714285714,519.4776785714286,2566.5,-542.4285714285714,519.4776785714286,2666.5,-542.4285714285714,519.4776785714286,2772.1,-542.4285714285714,519.4776785714286,2876.3,-542.4285714285714,519.4776785714286,2976.7,-542.4285714285714,519.4776785714286,3081.4,-542.4285714285714,519.4776785714286,3181.5,-542.4285714285714,519.4776785714286,3282.6,-542.4285714285714,519.4776785714286,3386.5,-542.4285714285714,519.4776785714286,3487.2,-542.4285714285714,519.4776785714286,3592.2,-542.4285714285714,519.4776785714286,3696.6,-542.4285714285714,519.4776785714286,3796.7,-542.4285714285714,519.4776785714286,3901.4,-542.4285714285714,519.4776785714286,4002.7,-542.4285714285714,519.4776785714286,4106.5,-542.4285714285714,519.4776785714286,4208.8,-542.4285714285714,519.4776785714286,4311.3,-542.4285714285714,519.4776785714286,4411.5,-542.4285714285714,519.4776785714286,4511.6,-542.4285714285714,519.4776785714286,4611.7,-542.4285714285714,519.4776785714286,4716.7,-542.4285714285714,519.4776785714286,4816.8,-542.4285714285714,519.4776785714286,4921.4]","[1504.1,1504.1,1000,0,504.1,""oops"",""left"",""left"",""good_move"",15811.2,14306.6,2841.5,12584.3,385.4,""smooth"",""down"",""down"",""good_move"",18856.7,3045,2501.6,15811.7,543.4,""smooth"",""left"",""left"",""good_move"",25478.8,6621.6,2261.6,22863.2,354,""smooth"",""down"",""down"",""good_move""]","",""
"11396","","<div style=""width:500px;"">
  <p>What determined the result of this run?</p>
  </div>","76","html-slider-response","30","397430","0.0-5.0-1.4","116","1","2025-07-16 13:56:45","1f75c3e559b7213887762d5229550c2b","89.245.26.231","Mozilla/5.0 (Windows NT 10.0; Win64; x64) AppleWebKit/537.36 (KHTML, like Gecko) Chrome/134.0.0.0 Safari/537.36 OPR/119.0.0.0","WebKit","Opera","119.0.0.0","Windows","10.0","https://app.prolific.com/","de-DE,de;q=0.9,en-US;q=0.8,en;q=0.7","6565f2ba13586fa869dd3b28","686e379bc37a29ffa5cdc956","6877af93a6475af9e06149aa","1","1","6565f2ba13586fa869dd3b28","1","1","2025-07-16T14:03:21.302Z","","","","","","","","","","","AttribQ","","50","","","","","","","","","","","","","","","","","","","","","","","","","","","","",""
"20461","","<div style=""width:500px;"">
  <p>How much control did you have over the ball?</p>
  </div>","88","html-slider-response","31","417893","0.0-5.0-2.4","116","1","2025-07-16 13:56:45","1f75c3e559b7213887762d5229550c2b","89.245.26.231","Mozilla/5.0 (Windows NT 10.0; Win64; x64) AppleWebKit/537.36 (KHTML, like Gecko) Chrome/134.0.0.0 Safari/537.36 OPR/119.0.0.0","WebKit","Opera","119.0.0.0","Windows","10.0","https://app.prolific.com/","de-DE,de;q=0.9,en-US;q=0.8,en;q=0.7","6565f2ba13586fa869dd3b28","686e379bc37a29ffa5cdc956","6877af93a6475af9e06149aa","1","1","6565f2ba13586fa869dd3b28","1","1","2025-07-16T14:03:41.764Z","","","","","","","","","","","ControlQ","","50","","","","","","","","","","","","","","","","","","","","","","","","","","","","",""
"2460","","<div style=""width:500px;"">
  <p>How would you describe your current emotional state?</p>
  </div>","9","html-slider-response","32","420354","0.0-5.0-3.4","116","1","2025-07-16 13:56:45","1f75c3e559b7213887762d5229550c2b","89.245.26.231","Mozilla/5.0 (Windows NT 10.0; Win64; x64) AppleWebKit/537.36 (KHTML, like Gecko) Chrome/134.0.0.0 Safari/537.36 OPR/119.0.0.0","WebKit","Opera","119.0.0.0","Windows","10.0","https://app.prolific.com/","de-DE,de;q=0.9,en-US;q=0.8,en;q=0.7","6565f2ba13586fa869dd3b28","686e379bc37a29ffa5cdc956","6877af93a6475af9e06149aa","1","1","6565f2ba13586fa869dd3b28","1","1","2025-07-16T14:03:44.225Z","","","","","","","","","","","StressQ","","50","","","","","","","","","","","","","","","","","","","","","","","","","","","","",""
"5068","","<div style=""width:500px;"">
  <p>What best describes how you currently feel?</p>
  </div>","89","html-slider-response","33","425423","0.0-5.0-4.4","116","1","2025-07-16 13:56:45","1f75c3e559b7213887762d5229550c2b","89.245.26.231","Mozilla/5.0 (Windows NT 10.0; Win64; x64) AppleWebKit/537.36 (KHTML, like Gecko) Chrome/134.0.0.0 Safari/537.36 OPR/119.0.0.0","WebKit","Opera","119.0.0.0","Windows","10.0","https://app.prolific.com/","de-DE,de;q=0.9,en-US;q=0.8,en;q=0.7","6565f2ba13586fa869dd3b28","686e379bc37a29ffa5cdc956","6877af93a6475af9e06149aa","1","1","6565f2ba13586fa869dd3b28","1","1","2025-07-16T14:03:49.295Z","","","","","","","","","","","MotivationQ","","50","","","","","","","","","","","","","","","","","","","","","","","","","","","","",""
"","","","","ctl-task-cpt","34","489039","0.0-5.0-0.5","116","1","2025-07-16 13:56:45","1f75c3e559b7213887762d5229550c2b","89.245.26.231","Mozilla/5.0 (Windows NT 10.0; Win64; x64) AppleWebKit/537.36 (KHTML, like Gecko) Chrome/134.0.0.0 Safari/537.36 OPR/119.0.0.0","WebKit","Opera","119.0.0.0","Windows","10.0","https://app.prolific.com/","de-DE,de;q=0.9,en-US;q=0.8,en;q=0.7","6565f2ba13586fa869dd3b28","686e379bc37a29ffa5cdc956","6877af93a6475af9e06149aa","1","1","6565f2ba13586fa869dd3b28","1","1","2025-07-16T14:04:52.911Z","","","","","","","","","","","","","","win-only","3","g1:SW,g2:NE","0.5","6","0","426489.2","24748.4","29750.5","60597.6","1","4","4","6","1","-1","-1","0","1","0","2811.8","3000","-2720","[""down"",""left""]","{""num_key_presses"":8,""num_perfect"":4,""num_errors"":0,""num_randdir"":4,""num_randdir_good_moves"":1,""num_whilered"":0,""num_whileblue"":0,""num_blue"":2,""num_good_moves"":5}","[421.57142857142856,423.47767857142856,0.4,419.57142857142856,421.47767857142856,102.3,419.57142857142856,421.47767857142856,202.8,419.57142857142856,421.47767857142856,307.1,419.57142857142856,421.47767857142856,407.1,419.57142857142856,421.47767857142856,507.2,419.57142857142856,421.47767857142856,611.8,419.57142857142856,421.47767857142856,712.5,419.57142857142856,421.47767857142856,817,419.57142857142856,421.47767857142856,917.5,419.57142857142856,421.47767857142856,1017.5,419.57142857142856,421.47767857142856,1118,419.57142857142856,421.47767857142856,1222,419.57142857142856,421.47767857142856,1322.2,419.57142857142856,421.47767857142856,1422.2,419.57142857142856,421.47767857142856,1522.3,419.57142857142856,419.47767857142856,1622.5,453.57142857142856,409.47767857142856,1722.6,653.5714285714286,203.47767857142856,1826.8,711.5714285714286,119.47767857142857,1927,727.5714285714286,89.47767857142857,2029.5,729.5714285714286,89.47767857142857,2132.2,729.5714285714286,89.47767857142857,2237,651.5714285714286,221.47767857142856,2342,291.57142857142856,545.4776785714286,2442.2,185.57142857142856,637.4776785714286,2550.4,119.57142857142857,699.4776785714286,2652.2,87.57142857142857,721.4776785714286,2758.1,83.57142857142857,723.4776785714286,2868.3,89.57142857142857,719.4776785714286,2972.1,91.57142857142857,705.4776785714286,3076.9,81.57142857142857,595.4776785714286,3177.1,43.57142857142857,521.4776785714286,3278.3,-10.42857142857143,451.47767857142856,3383.1,-22.42857142857143,437.47767857142856,3483.9,-22.42857142857143,435.47767857142856,3586.8,-22.42857142857143,435.47767857142856,3686.9,-20.42857142857143,429.47767857142856,3787.4,-12.42857142857143,419.47767857142856,3893.1,45.57142857142857,353.47767857142856,3998.1,59.57142857142857,341.47767857142856,4098.9,71.57142857142857,343.47767857142856,4199.7,71.57142857142857,355.47767857142856,4302.3,71.57142857142857,359.47767857142856,4407.2,65.57142857142857,361.47767857142856,4507.2,63.57142857142857,367.47767857142856,4607.2,65.57142857142857,369.47767857142856,4707.3,87.57142857142857,399.47767857142856,4812,103.57142857142857,433.47767857142856,4924.7]","[4535.9,4536,2148.9,2005.1,382,""oops"",""left"",""up"",""bad_move"",7025,2488.5,2022.1,4536.5,466.4,""oops"",""down"",""up"",""bad_move"",9770.7,2745.4,2392.6,7025.3,352.8,""oops"",""down"",""down"",""good_move"",16949.5,7178.3,2957.9,13615.3,376.3,""smooth"",""left"",""left"",""good_move"",19174.5,2224.5,1812.9,16950,411.6,""smooth"",""down"",""down"",""good_move"",22137.7,2962.8,2553.2,19174.9,409.6,""smooth"",""down"",""down"",""good_move"",25514.6,3376.6,2761.6,22138,615,""smooth"",""left"",""left"",""good_move"",28398.9,2884.1,2546.7,25514.9,337.3,""oops"",""down"",""up"",""bad_move""]","",""
"3394","","<div style=""width:500px;"">
  <p>What determined the result of this run?</p>
  </div>","16","html-slider-response","35","492435","0.0-5.0-1.5","116","1","2025-07-16 13:56:45","1f75c3e559b7213887762d5229550c2b","89.245.26.231","Mozilla/5.0 (Windows NT 10.0; Win64; x64) AppleWebKit/537.36 (KHTML, like Gecko) Chrome/134.0.0.0 Safari/537.36 OPR/119.0.0.0","WebKit","Opera","119.0.0.0","Windows","10.0","https://app.prolific.com/","de-DE,de;q=0.9,en-US;q=0.8,en;q=0.7","6565f2ba13586fa869dd3b28","686e379bc37a29ffa5cdc956","6877af93a6475af9e06149aa","1","1","6565f2ba13586fa869dd3b28","1","1","2025-07-16T14:04:56.306Z","","","","","","","","","","","AttribQ","","50","","","","","","","","","","","","","","","","","","","","","","","","","","","","",""
"1934","","<div style=""width:500px;"">
  <p>How much control did you have over the ball?</p>
  </div>","22","html-slider-response","36","494371","0.0-5.0-2.5","116","1","2025-07-16 13:56:45","1f75c3e559b7213887762d5229550c2b","89.245.26.231","Mozilla/5.0 (Windows NT 10.0; Win64; x64) AppleWebKit/537.36 (KHTML, like Gecko) Chrome/134.0.0.0 Safari/537.36 OPR/119.0.0.0","WebKit","Opera","119.0.0.0","Windows","10.0","https://app.prolific.com/","de-DE,de;q=0.9,en-US;q=0.8,en;q=0.7","6565f2ba13586fa869dd3b28","686e379bc37a29ffa5cdc956","6877af93a6475af9e06149aa","1","1","6565f2ba13586fa869dd3b28","1","1","2025-07-16T14:04:58.242Z","","","","","","","","","","","ControlQ","","50","","","","","","","","","","","","","","","","","","","","","","","","","","","","",""
"2985","","<div style=""width:500px;"">
  <p>How would you describe your current emotional state?</p>
  </div>","25","html-slider-response","37","497357","0.0-5.0-3.5","116","1","2025-07-16 13:56:45","1f75c3e559b7213887762d5229550c2b","89.245.26.231","Mozilla/5.0 (Windows NT 10.0; Win64; x64) AppleWebKit/537.36 (KHTML, like Gecko) Chrome/134.0.0.0 Safari/537.36 OPR/119.0.0.0","WebKit","Opera","119.0.0.0","Windows","10.0","https://app.prolific.com/","de-DE,de;q=0.9,en-US;q=0.8,en;q=0.7","6565f2ba13586fa869dd3b28","686e379bc37a29ffa5cdc956","6877af93a6475af9e06149aa","1","1","6565f2ba13586fa869dd3b28","1","1","2025-07-16T14:05:01.228Z","","","","","","","","","","","StressQ","","50","","","","","","","","","","","","","","","","","","","","","","","","","","","","",""
"23815","","<div style=""width:500px;"">
  <p>What best describes how you currently feel?</p>
  </div>","77","html-slider-response","38","521173","0.0-5.0-4.5","116","1","2025-07-16 13:56:45","1f75c3e559b7213887762d5229550c2b","89.245.26.231","Mozilla/5.0 (Windows NT 10.0; Win64; x64) AppleWebKit/537.36 (KHTML, like Gecko) Chrome/134.0.0.0 Safari/537.36 OPR/119.0.0.0","WebKit","Opera","119.0.0.0","Windows","10.0","https://app.prolific.com/","de-DE,de;q=0.9,en-US;q=0.8,en;q=0.7","6565f2ba13586fa869dd3b28","686e379bc37a29ffa5cdc956","6877af93a6475af9e06149aa","1","1","6565f2ba13586fa869dd3b28","1","1","2025-07-16T14:05:25.044Z","","","","","","","","","","","MotivationQ","","50","","","","","","","","","","","","","","","","","","","","","","","","","","","","",""
"","","","","ctl-task-cpt","39","566149","0.0-5.0-0.6","116","1","2025-07-16 13:56:45","1f75c3e559b7213887762d5229550c2b","89.245.26.231","Mozilla/5.0 (Windows NT 10.0; Win64; x64) AppleWebKit/537.36 (KHTML, like Gecko) Chrome/134.0.0.0 Safari/537.36 OPR/119.0.0.0","WebKit","Opera","119.0.0.0","Windows","10.0","https://app.prolific.com/","de-DE,de;q=0.9,en-US;q=0.8,en;q=0.7","6565f2ba13586fa869dd3b28","686e379bc37a29ffa5cdc956","6877af93a6475af9e06149aa","1","1","6565f2ba13586fa869dd3b28","1","1","2025-07-16T14:06:10.020Z","","","","","","","","","","","","","","win-only","1","g1:NE,g2:SW","0.4","7","0","522238.6","817.8","5821.2","41970.4","1","4","4","6","1","-1","-1","0","0","0","1612.6","3000","-2815","[""up"",""right""]","{""num_key_presses"":8,""num_perfect"":3,""num_errors"":0,""num_randdir"":5,""num_randdir_good_moves"":2,""num_whilered"":0,""num_whileblue"":0,""num_blue"":3,""num_good_moves"":5}","[409.57142857142856,427.47767857142856,0.2,409.57142857142856,425.47767857142856,103.1,409.57142857142856,425.47767857142856,203.1,409.57142857142856,425.47767857142856,303.3,411.57142857142856,439.47767857142856,407.3,411.57142857142856,439.47767857142856,507.4,411.57142857142856,439.47767857142856,607.5,423.57142857142856,445.47767857142856,709.8,355.57142857142856,513.4776785714286,812.8,47.57142857142857,667.4776785714286,915.8,7.571428571428569,691.4776785714286,1017.6,221.57142857142856,503.47767857142856,1117.7,515.5714285714286,273.47767857142856,1218.8,561.5714285714286,211.47767857142856,1322.8,699.5714285714286,131.47767857142856,1429.8,731.5714285714286,99.47767857142857,1533.3,735.5714285714286,95.47767857142857,1636.9,735.5714285714286,95.47767857142857,1738.3,733.5714285714286,99.47767857142857,1845.6,717.5714285714286,119.47767857142857,1947.4,715.5714285714286,121.47767857142857,2048.5,715.5714285714286,121.47767857142857,2151.4,715.5714285714286,121.47767857142857,2252.8,715.5714285714286,119.47767857142857,2352.9,695.5714285714286,129.47767857142856,2453.1,693.5714285714286,129.47767857142856,2558.2,693.5714285714286,129.47767857142856,2664.6,693.5714285714286,129.47767857142856,2765.8,693.5714285714286,129.47767857142856,2868.2,693.5714285714286,129.47767857142856,2968.2,693.5714285714286,129.47767857142856,3072.6,693.5714285714286,129.47767857142856,3173.3,693.5714285714286,129.47767857142856,3273.3,693.5714285714286,129.47767857142856,3379.9,693.5714285714286,129.47767857142856,3482.6,693.5714285714286,129.47767857142856,3582.9,693.5714285714286,129.47767857142856,3683.4,693.5714285714286,127.47767857142857,3788,693.5714285714286,127.47767857142857,3889,687.5714285714286,137.47767857142856,3999.8,673.5714285714286,155.47767857142856,4104.1,643.5714285714286,197.47767857142856,4207.6,615.5714285714286,243.47767857142856,4308.4,613.5714285714286,249.47767857142856,4415.3,621.5714285714286,267.47767857142856,4517.1,667.5714285714286,299.47767857142856,4617.6,669.5714285714286,301.47767857142856,4717.9,669.5714285714286,301.47767857142856,4818,671.5714285714286,299.47767857142856,4923.2]","[1350.4,1350.4,1000,0,350.4,""oops"",""right"",""right"",""good_move"",7228.6,5877.7,2205.1,4650.4,373.1,""smooth"",""up"",""up"",""good_move"",10895.3,3666.4,3233.6,7229,432.7,""oops"",""up"",""right"",""good_move"",13851.3,2955.8,2571.9,10895.6,383.8,""oops"",""up"",""down"",""bad_move"",20831.9,6980.2,3097.3,17319.2,415.4,""smooth"",""up"",""up"",""good_move"",23561.8,2729.4,2278,20832.4,451.4,""oops"",""up"",""down"",""bad_move"",27089.5,3527.3,3088.8,23562.2,438.5,""smooth"",""up"",""up"",""good_move"",33795.5,6705.7,2984.2,30485.5,325.8,""oops"",""up"",""down"",""bad_move""]","",""
"4572","","<div style=""width:500px;"">
  <p>What determined the result of this run?</p>
  </div>","16","html-slider-response","40","570722","0.0-5.0-1.6","116","1","2025-07-16 13:56:45","1f75c3e559b7213887762d5229550c2b","89.245.26.231","Mozilla/5.0 (Windows NT 10.0; Win64; x64) AppleWebKit/537.36 (KHTML, like Gecko) Chrome/134.0.0.0 Safari/537.36 OPR/119.0.0.0","WebKit","Opera","119.0.0.0","Windows","10.0","https://app.prolific.com/","de-DE,de;q=0.9,en-US;q=0.8,en;q=0.7","6565f2ba13586fa869dd3b28","686e379bc37a29ffa5cdc956","6877af93a6475af9e06149aa","1","1","6565f2ba13586fa869dd3b28","1","1","2025-07-16T14:06:14.593Z","","","","","","","","","","","AttribQ","","50","","","","","","","","","","","","","","","","","","","","","","","","","","","","",""
"12938","","<div style=""width:500px;"">
  <p>How much control did you have over the ball?</p>
  </div>","19","html-slider-response","41","583662","0.0-5.0-2.6","116","1","2025-07-16 13:56:45","1f75c3e559b7213887762d5229550c2b","89.245.26.231","Mozilla/5.0 (Windows NT 10.0; Win64; x64) AppleWebKit/537.36 (KHTML, like Gecko) Chrome/134.0.0.0 Safari/537.36 OPR/119.0.0.0","WebKit","Opera","119.0.0.0","Windows","10.0","https://app.prolific.com/","de-DE,de;q=0.9,en-US;q=0.8,en;q=0.7","6565f2ba13586fa869dd3b28","686e379bc37a29ffa5cdc956","6877af93a6475af9e06149aa","1","1","6565f2ba13586fa869dd3b28","1","1","2025-07-16T14:06:27.533Z","","","","","","","","","","","ControlQ","","50","","","","","","","","","","","","","","","","","","","","","","","","","","","","",""
"30436","","<div style=""width:500px;"">
  <p>How would you describe your current emotional state?</p>
  </div>","56","html-slider-response","42","614099","0.0-5.0-3.6","116","1","2025-07-16 13:56:45","1f75c3e559b7213887762d5229550c2b","89.245.26.231","Mozilla/5.0 (Windows NT 10.0; Win64; x64) AppleWebKit/537.36 (KHTML, like Gecko) Chrome/134.0.0.0 Safari/537.36 OPR/119.0.0.0","WebKit","Opera","119.0.0.0","Windows","10.0","https://app.prolific.com/","de-DE,de;q=0.9,en-US;q=0.8,en;q=0.7","6565f2ba13586fa869dd3b28","686e379bc37a29ffa5cdc956","6877af93a6475af9e06149aa","1","1","6565f2ba13586fa869dd3b28","1","1","2025-07-16T14:06:57.970Z","","","","","","","","","","","StressQ","","50","","","","","","","","","","","","","","","","","","","","","","","","","","","","",""
"3809","","<div style=""width:500px;"">
  <p>What best describes how you currently feel?</p>
  </div>","82","html-slider-response","43","617910","0.0-5.0-4.6","116","1","2025-07-16 13:56:45","1f75c3e559b7213887762d5229550c2b","89.245.26.231","Mozilla/5.0 (Windows NT 10.0; Win64; x64) AppleWebKit/537.36 (KHTML, like Gecko) Chrome/134.0.0.0 Safari/537.36 OPR/119.0.0.0","WebKit","Opera","119.0.0.0","Windows","10.0","https://app.prolific.com/","de-DE,de;q=0.9,en-US;q=0.8,en;q=0.7","6565f2ba13586fa869dd3b28","686e379bc37a29ffa5cdc956","6877af93a6475af9e06149aa","1","1","6565f2ba13586fa869dd3b28","1","1","2025-07-16T14:07:01.781Z","","","","","","","","","","","MotivationQ","","50","","","","","","","","","","","","","","","","","","","","","","","","","","","","",""
"","","","","ctl-task-cpt","44","659697","0.0-5.0-0.7","116","1","2025-07-16 13:56:45","1f75c3e559b7213887762d5229550c2b","89.245.26.231","Mozilla/5.0 (Windows NT 10.0; Win64; x64) AppleWebKit/537.36 (KHTML, like Gecko) Chrome/134.0.0.0 Safari/537.36 OPR/119.0.0.0","WebKit","Opera","119.0.0.0","Windows","10.0","https://app.prolific.com/","de-DE,de;q=0.9,en-US;q=0.8,en;q=0.7","6565f2ba13586fa869dd3b28","686e379bc37a29ffa5cdc956","6877af93a6475af9e06149aa","1","1","6565f2ba13586fa869dd3b28","1","1","2025-07-16T14:07:43.568Z","","","","","","","","","","","","","","win-only","3","g1:SW,g2:NE","0.3","8","0","618975.2","795.4","5800.8","38776","1","4","8","6","1","-1","-1","0","0","0","880","3000","-2530","[""down"",""left""]","{""num_key_presses"":9,""num_perfect"":2,""num_errors"":0,""num_randdir"":7,""num_randdir_good_moves"":4,""num_whilered"":0,""num_whileblue"":0,""num_blue"":1,""num_good_moves"":6}","[415.57142857142856,417.47767857142856,0.1,415.57142857142856,417.47767857142856,101.3,415.57142857142856,417.47767857142856,201.3,415.57142857142856,417.47767857142856,306.8,415.57142857142856,417.47767857142856,410.7,355.57142857142856,525.4776785714286,521.1,153.57142857142856,681.4776785714286,624.9,63.57142857142857,729.4776785714286,727.2,49.57142857142857,741.4776785714286,837.6,49.57142857142857,741.4776785714286,942.5,51.57142857142857,739.4776785714286,1045.1,55.57142857142857,737.4776785714286,1145.2,57.57142857142857,735.4776785714286,1245.9,57.57142857142857,735.4776785714286,1354.5,61.57142857142857,731.4776785714286,1454.9,65.57142857142857,727.4776785714286,1556,69.57142857142857,725.4776785714286,1660.5,73.57142857142857,721.4776785714286,1760.6,77.57142857142857,719.4776785714286,1870.5,81.57142857142857,717.4776785714286,1980,83.57142857142857,715.4776785714286,2080.8,93.57142857142857,711.4776785714286,2190.8,95.57142857142857,709.4776785714286,2295.1,101.57142857142857,707.4776785714286,2395.4,103.57142857142857,707.4776785714286,2501.8,103.57142857142857,705.4776785714286,2604.9,127.57142857142857,685.4776785714286,2705.1,137.57142857142856,679.4776785714286,2810.9,221.57142857142856,619.4776785714286,2910.9,279.57142857142856,569.4776785714286,3019.7,299.57142857142856,541.4776785714286,3120.1,307.57142857142856,527.4776785714286,3220.1,313.57142857142856,519.4776785714286,3320.4,317.57142857142856,519.4776785714286,3420.7,347.57142857142856,499.47767857142856,3525.6,363.57142857142856,485.47767857142856,3625.8,345.57142857142856,489.47767857142856,3725.9,345.57142857142856,489.47767857142856,3826.1,345.57142857142856,489.47767857142856,3934.7,345.57142857142856,489.47767857142856,4034.8,345.57142857142856,487.47767857142856,4136.9,471.57142857142856,433.47767857142856,4240,509.57142857142856,427.47767857142856,4340.3,661.5714285714286,383.47767857142856,4441,665.5714285714286,381.47767857142856,4542.8,665.5714285714286,381.47767857142856,4646,635.5714285714286,373.47767857142856,4752.9,635.5714285714286,373.47767857142856,4854.9,635.5714285714286,373.47767857142856,4956.7]","[1390.3,1390.3,1000,0,390.3,""oops"",""left"",""down"",""good_move"",8690,7299.2,3002.4,5290.3,397.3,""oops"",""left"",""down"",""good_move"",11562.7,2872.6,2439.3,8690.1,433.3,""oops"",""left"",""left"",""good_move"",15059,3495.7,3136.4,11563.3,359.3,""oops"",""left"",""up"",""bad_move"",17427.5,2368,2002.2,15059.5,365.8,""oops"",""left"",""down"",""good_move"",21027.2,3599.3,3240.3,17427.9,359,""oops"",""left"",""right"",""bad_move"",23763.3,2735.8,2414.4,21027.5,321.4,""oops"",""left"",""right"",""bad_move"",27270.5,3507,3146.4,23763.5,360.6,""smooth"",""left"",""left"",""good_move"",29968.1,2697.2,2367.1,27271,330,""smooth"",""left"",""left"",""good_move""]","",""
"3060","","<div style=""width:500px;"">
  <p>What determined the result of this run?</p>
  </div>","11","html-slider-response","45","662758","0.0-5.0-1.7","116","1","2025-07-16 13:56:45","1f75c3e559b7213887762d5229550c2b","89.245.26.231","Mozilla/5.0 (Windows NT 10.0; Win64; x64) AppleWebKit/537.36 (KHTML, like Gecko) Chrome/134.0.0.0 Safari/537.36 OPR/119.0.0.0","WebKit","Opera","119.0.0.0","Windows","10.0","https://app.prolific.com/","de-DE,de;q=0.9,en-US;q=0.8,en;q=0.7","6565f2ba13586fa869dd3b28","686e379bc37a29ffa5cdc956","6877af93a6475af9e06149aa","1","1","6565f2ba13586fa869dd3b28","1","1","2025-07-16T14:07:46.629Z","","","","","","","","","","","AttribQ","","50","","","","","","","","","","","","","","","","","","","","","","","","","","","","",""
"1787","","<div style=""width:500px;"">
  <p>How much control did you have over the ball?</p>
  </div>","21","html-slider-response","46","664547","0.0-5.0-2.7","116","1","2025-07-16 13:56:45","1f75c3e559b7213887762d5229550c2b","89.245.26.231","Mozilla/5.0 (Windows NT 10.0; Win64; x64) AppleWebKit/537.36 (KHTML, like Gecko) Chrome/134.0.0.0 Safari/537.36 OPR/119.0.0.0","WebKit","Opera","119.0.0.0","Windows","10.0","https://app.prolific.com/","de-DE,de;q=0.9,en-US;q=0.8,en;q=0.7","6565f2ba13586fa869dd3b28","686e379bc37a29ffa5cdc956","6877af93a6475af9e06149aa","1","1","6565f2ba13586fa869dd3b28","1","1","2025-07-16T14:07:48.418Z","","","","","","","","","","","ControlQ","","50","","","","","","","","","","","","","","","","","","","","","","","","","","","","",""
"2398","","<div style=""width:500px;"">
  <p>How would you describe your current emotional state?</p>
  </div>","11","html-slider-response","47","666946","0.0-5.0-3.7","116","1","2025-07-16 13:56:45","1f75c3e559b7213887762d5229550c2b","89.245.26.231","Mozilla/5.0 (Windows NT 10.0; Win64; x64) AppleWebKit/537.36 (KHTML, like Gecko) Chrome/134.0.0.0 Safari/537.36 OPR/119.0.0.0","WebKit","Opera","119.0.0.0","Windows","10.0","https://app.prolific.com/","de-DE,de;q=0.9,en-US;q=0.8,en;q=0.7","6565f2ba13586fa869dd3b28","686e379bc37a29ffa5cdc956","6877af93a6475af9e06149aa","1","1","6565f2ba13586fa869dd3b28","1","1","2025-07-16T14:07:50.817Z","","","","","","","","","","","StressQ","","50","","","","","","","","","","","","","","","","","","","","","","","","","","","","",""
"37300","","<div style=""width:500px;"">
  <p>What best describes how you currently feel?</p>
  </div>","90","html-slider-response","48","704248","0.0-5.0-4.7","116","1","2025-07-16 13:56:45","1f75c3e559b7213887762d5229550c2b","89.245.26.231","Mozilla/5.0 (Windows NT 10.0; Win64; x64) AppleWebKit/537.36 (KHTML, like Gecko) Chrome/134.0.0.0 Safari/537.36 OPR/119.0.0.0","WebKit","Opera","119.0.0.0","Windows","10.0","https://app.prolific.com/","de-DE,de;q=0.9,en-US;q=0.8,en;q=0.7","6565f2ba13586fa869dd3b28","686e379bc37a29ffa5cdc956","6877af93a6475af9e06149aa","1","1","6565f2ba13586fa869dd3b28","1","1","2025-07-16T14:08:28.119Z","","","","","","","","","","","MotivationQ","","50","","","","","","","","","","","","","","","","","","","","","","","","","","","","",""
"","","","","ctl-task-cpt","49","749554","0.0-5.0-0.8","116","1","2025-07-16 13:56:45","1f75c3e559b7213887762d5229550c2b","89.245.26.231","Mozilla/5.0 (Windows NT 10.0; Win64; x64) AppleWebKit/537.36 (KHTML, like Gecko) Chrome/134.0.0.0 Safari/537.36 OPR/119.0.0.0","WebKit","Opera","119.0.0.0","Windows","10.0","https://app.prolific.com/","de-DE,de;q=0.9,en-US;q=0.8,en;q=0.7","6565f2ba13586fa869dd3b28","686e379bc37a29ffa5cdc956","6877af93a6475af9e06149aa","1","1","6565f2ba13586fa869dd3b28","1","1","2025-07-16T14:09:13.425Z","","","","","","","","","","","","","","win-only","3","g1:SW,g2:NE","0.2","9","0","705313.6","877.1","5881.7","42285.9","1","4","4","6","2","-4","-5","0","0","0","1510","3000","-2820","[""up"",""right""]","{""num_key_presses"":11,""num_perfect"":2,""num_errors"":1,""num_randdir"":7,""num_randdir_good_moves"":3,""num_whilered"":1,""num_whileblue"":0,""num_blue"":2,""num_good_moves"":5}","[413.57142857142856,429.47767857142856,0.4,413.57142857142856,429.47767857142856,106.7,413.57142857142856,429.47767857142856,210.3,413.57142857142856,429.47767857142856,314.4,413.57142857142856,435.47767857142856,420.4,411.57142857142856,445.47767857142856,523.8,405.57142857142856,459.47767857142856,624.2,325.57142857142856,511.47767857142856,724.7,225.57142857142856,571.4776785714286,829.1,315.57142857142856,549.4776785714286,929.4,705.5714285714286,269.47767857142856,1039.8,717.5714285714286,177.47767857142856,1141.1,725.5714285714286,115.47767857142857,1243.9,735.5714285714286,75.47767857142857,1345.6,737.5714285714286,73.47767857142857,1449.4,737.5714285714286,73.47767857142857,1553.6,737.5714285714286,73.47767857142857,1654.2,737.5714285714286,73.47767857142857,1759.1,743.5714285714286,93.47767857142857,1859.7,715.5714285714286,121.47767857142857,1968,675.5714285714286,155.47767857142856,2075.1,595.5714285714286,333.47767857142856,2181.2,397.57142857142856,575.4776785714286,2282,397.57142857142856,569.4776785714286,2384.5,381.57142857142856,511.47767857142856,2489.2,375.57142857142856,441.47767857142856,2594.5,327.57142857142856,335.47767857142856,2694.7,319.57142857142856,321.47767857142856,2799.4,319.57142857142856,321.47767857142856,2905.2,319.57142857142856,321.47767857142856,3009.9,319.57142857142856,321.47767857142856,3113.9,289.57142857142856,331.47767857142856,3216.9,267.57142857142856,337.47767857142856,3320.3,267.57142857142856,335.47767857142856,3424.1,299.57142857142856,317.47767857142856,3524.1,443.57142857142856,291.47767857142856,3628.9,487.57142857142856,297.47767857142856,3728.9,487.57142857142856,299.47767857142856,3838.3,487.57142857142856,305.47767857142856,3939.3,487.57142857142856,305.47767857142856,4044.4,487.57142857142856,305.47767857142856,4152.7,487.57142857142856,305.47767857142856,4253.7,487.57142857142856,305.47767857142856,4358.7,487.57142857142856,305.47767857142856,4458.6,487.57142857142856,305.47767857142856,4559,487.57142857142856,305.47767857142856,4659,487.57142857142856,305.47767857142856,4768.5,487.57142857142856,305.47767857142856,4869.8,487.57142857142856,305.47767857142856,4970.3]","[1346.1,1346.1,1000,0,346.1,""oops"",""right"",""down"",""bad_move"",4479.4,3132.9,2794.9,1346.5,338,""smooth"",""up"",""up"",""good_move"",11003.8,6524,2627.3,8019.4,357.1,""smooth"",""up"",""up"",""good_move"",14228.6,3224.6,2884.5,11004,340.1,""oops"",""up"",""right"",""good_move"",16809.2,2580.1,2254.8,14229.1,325.3,""oops"",""up"",""left"",""bad_move"",19463.2,2653.6,2307.1,16809.6,346.5,""oops"",""right"",""down"",""bad_move"",20516.2,1052.5,2144.3,19463.7,-1091.8,""error"",""-"",""-"",""no_move"",20776.9,260.3,2144.3,19463.7,-831.1,""while_red"",""-"",""-"",""no_move"",24489.7,3973.1,2650.9,21519.6,319.2,""oops"",""up"",""right"",""good_move"",27033.4,2543.3,2184.7,24490.1,358.6,""oops"",""up"",""up"",""good_move"",33684.7,6650.9,2220.8,31154.7,309.2,""oops"",""up"",""left"",""bad_move""]","",""
"4693","","<div style=""width:500px;"">
  <p>What determined the result of this run?</p>
  </div>","2","html-slider-response","50","754248","0.0-5.0-1.8","116","1","2025-07-16 13:56:45","1f75c3e559b7213887762d5229550c2b","89.245.26.231","Mozilla/5.0 (Windows NT 10.0; Win64; x64) AppleWebKit/537.36 (KHTML, like Gecko) Chrome/134.0.0.0 Safari/537.36 OPR/119.0.0.0","WebKit","Opera","119.0.0.0","Windows","10.0","https://app.prolific.com/","de-DE,de;q=0.9,en-US;q=0.8,en;q=0.7","6565f2ba13586fa869dd3b28","686e379bc37a29ffa5cdc956","6877af93a6475af9e06149aa","1","1","6565f2ba13586fa869dd3b28","1","1","2025-07-16T14:09:18.119Z","","","","","","","","","","","AttribQ","","50","","","","","","","","","","","","","","","","","","","","","","","","","","","","",""
"2402","","<div style=""width:500px;"">
  <p>How much control did you have over the ball?</p>
  </div>","8","html-slider-response","51","756652","0.0-5.0-2.8","116","1","2025-07-16 13:56:45","1f75c3e559b7213887762d5229550c2b","89.245.26.231","Mozilla/5.0 (Windows NT 10.0; Win64; x64) AppleWebKit/537.36 (KHTML, like Gecko) Chrome/134.0.0.0 Safari/537.36 OPR/119.0.0.0","WebKit","Opera","119.0.0.0","Windows","10.0","https://app.prolific.com/","de-DE,de;q=0.9,en-US;q=0.8,en;q=0.7","6565f2ba13586fa869dd3b28","686e379bc37a29ffa5cdc956","6877af93a6475af9e06149aa","1","1","6565f2ba13586fa869dd3b28","1","1","2025-07-16T14:09:20.523Z","","","","","","","","","","","ControlQ","","50","","","","","","","","","","","","","","","","","","","","","","","","","","","","",""
"2618","","<div style=""width:500px;"">
  <p>How would you describe your current emotional state?</p>
  </div>","78","html-slider-response","52","759271","0.0-5.0-3.8","116","1","2025-07-16 13:56:45","1f75c3e559b7213887762d5229550c2b","89.245.26.231","Mozilla/5.0 (Windows NT 10.0; Win64; x64) AppleWebKit/537.36 (KHTML, like Gecko) Chrome/134.0.0.0 Safari/537.36 OPR/119.0.0.0","WebKit","Opera","119.0.0.0","Windows","10.0","https://app.prolific.com/","de-DE,de;q=0.9,en-US;q=0.8,en;q=0.7","6565f2ba13586fa869dd3b28","686e379bc37a29ffa5cdc956","6877af93a6475af9e06149aa","1","1","6565f2ba13586fa869dd3b28","1","1","2025-07-16T14:09:23.142Z","","","","","","","","","","","StressQ","","50","","","","","","","","","","","","","","","","","","","","","","","","","","","","",""
"1851","","<div style=""width:500px;"">
  <p>What best describes how you currently feel?</p>
  </div>","7","html-slider-response","53","761124","0.0-5.0-4.8","116","1","2025-07-16 13:56:45","1f75c3e559b7213887762d5229550c2b","89.245.26.231","Mozilla/5.0 (Windows NT 10.0; Win64; x64) AppleWebKit/537.36 (KHTML, like Gecko) Chrome/134.0.0.0 Safari/537.36 OPR/119.0.0.0","WebKit","Opera","119.0.0.0","Windows","10.0","https://app.prolific.com/","de-DE,de;q=0.9,en-US;q=0.8,en;q=0.7","6565f2ba13586fa869dd3b28","686e379bc37a29ffa5cdc956","6877af93a6475af9e06149aa","1","1","6565f2ba13586fa869dd3b28","1","1","2025-07-16T14:09:24.995Z","","","","","","","","","","","MotivationQ","","50","","","","","","","","","","","","","","","","","","","","","","","","","","","","",""
"","","","","ctl-task-cpt","54","809768","0.0-5.0-0.9","116","1","2025-07-16 13:56:45","1f75c3e559b7213887762d5229550c2b","89.245.26.231","Mozilla/5.0 (Windows NT 10.0; Win64; x64) AppleWebKit/537.36 (KHTML, like Gecko) Chrome/134.0.0.0 Safari/537.36 OPR/119.0.0.0","WebKit","Opera","119.0.0.0","Windows","10.0","https://app.prolific.com/","de-DE,de;q=0.9,en-US;q=0.8,en;q=0.7","6565f2ba13586fa869dd3b28","686e379bc37a29ffa5cdc956","6877af93a6475af9e06149aa","1","1","6565f2ba13586fa869dd3b28","1","1","2025-07-16T14:10:13.639Z","","","","","","","","","","","","","","win-only","2","g1:SE,g2:NW","0.4","10","0","762190.1","785.1","5787.1","45623.7","1","4","8","6","2","-8","-8","0","0","0","1509.5","3000","-2540","[""left"",""up""]","{""num_key_presses"":9,""num_perfect"":3,""num_errors"":0,""num_randdir"":6,""num_randdir_good_moves"":0,""num_whilered"":0,""num_whileblue"":0,""num_blue"":3,""num_good_moves"":3}","[425.57142857142856,415.47767857142856,0.2,425.57142857142856,415.47767857142856,101.6,425.57142857142856,415.47767857142856,206.2,425.57142857142856,415.47767857142856,306.7,425.57142857142856,415.47767857142856,410.5,429.57142857142856,417.47767857142856,511,587.5714285714286,537.4776785714286,611.2,689.5714285714286,619.4776785714286,715.7,691.5714285714286,669.4776785714286,824.4,709.5714285714286,699.4776785714286,927,491.57142857142856,531.4776785714286,1028.2,213.57142857142856,243.47767857142856,1139.4,163.57142857142856,157.47767857142856,1241.9,145.57142857142856,127.47767857142857,1345.4,119.57142857142857,105.47767857142857,1446.6,117.57142857142857,101.47767857142857,1556.5,119.57142857142857,101.47767857142857,1659.3,159.57142857142856,159.47767857142856,1760.7,209.57142857142856,233.47767857142856,1861.9,213.57142857142856,239.47767857142856,1971.6,227.57142857142856,243.47767857142856,2071.7,253.57142857142856,233.47767857142856,2175.9,263.57142857142856,243.47767857142856,2287.3,-254.42857142857144,483.47767857142856,2398.5,-540.4285714285714,549.4776785714286,2507.4,-540.4285714285714,549.4776785714286,2610.7,-540.4285714285714,549.4776785714286,2720.5,-540.4285714285714,549.4776785714286,2821.9,-540.4285714285714,549.4776785714286,2926.3,-540.4285714285714,549.4776785714286,3031,-540.4285714285714,549.4776785714286,3138.3,-540.4285714285714,549.4776785714286,3241.1,-540.4285714285714,549.4776785714286,3341.8,-540.4285714285714,549.4776785714286,3445.9,-540.4285714285714,549.4776785714286,3550.5,-540.4285714285714,549.4776785714286,3651.9,-540.4285714285714,549.4776785714286,3756,-540.4285714285714,549.4776785714286,3856.4,-540.4285714285714,549.4776785714286,3961,-540.4285714285714,549.4776785714286,4061.3,-540.4285714285714,549.4776785714286,4165.4,-540.4285714285714,549.4776785714286,4270.1,-540.4285714285714,549.4776785714286,4370.9,-420.42857142857144,501.47767857142856,4470.9,-448.42857142857144,495.47767857142856,4570.9,-532.4285714285714,511.47767857142856,4675.6,-532.4285714285714,511.47767857142856,4775.8,-532.4285714285714,511.47767857142856,4883.3,-532.4285714285714,511.47767857142856,4983.4]","[1393.8,1393.8,1000,0,393.8,""oops"",""left"",""down"",""bad_move"",8219.2,6824.9,2731.1,5136,352.1,""oops"",""left"",""down"",""bad_move"",11352.5,3133.1,2785.8,8219.4,347.3,""oops"",""left"",""right"",""bad_move"",18800.1,7447.2,2962.3,15487.2,350.6,""oops"",""left"",""right"",""bad_move"",21808,3007.5,2646.1,18800.5,361.5,""smooth"",""left"",""left"",""good_move"",24773,2964.5,2530.2,21808.6,434.2,""oops"",""left"",""right"",""bad_move"",28144.1,3370.7,2989.9,24773.4,380.8,""smooth"",""left"",""left"",""good_move"",31001.6,2857.2,2503,28144.4,354.2,""oops"",""left"",""right"",""bad_move"",37241.4,6239.3,2341.7,34524,375.7,""smooth"",""left"",""left"",""good_move""]","",""
"2830","","<div style=""width:500px;"">
  <p>What determined the result of this run?</p>
  </div>","0","html-slider-response","55","812599","0.0-5.0-1.9","116","1","2025-07-16 13:56:45","1f75c3e559b7213887762d5229550c2b","89.245.26.231","Mozilla/5.0 (Windows NT 10.0; Win64; x64) AppleWebKit/537.36 (KHTML, like Gecko) Chrome/134.0.0.0 Safari/537.36 OPR/119.0.0.0","WebKit","Opera","119.0.0.0","Windows","10.0","https://app.prolific.com/","de-DE,de;q=0.9,en-US;q=0.8,en;q=0.7","6565f2ba13586fa869dd3b28","686e379bc37a29ffa5cdc956","6877af93a6475af9e06149aa","1","1","6565f2ba13586fa869dd3b28","1","1","2025-07-16T14:10:16.470Z","","","","","","","","","","","AttribQ","","50","","","","","","","","","","","","","","","","","","","","","","","","","","","","",""
"2011","","<div style=""width:500px;"">
  <p>How much control did you have over the ball?</p>
  </div>","0","html-slider-response","56","814611","0.0-5.0-2.9","116","1","2025-07-16 13:56:45","1f75c3e559b7213887762d5229550c2b","89.245.26.231","Mozilla/5.0 (Windows NT 10.0; Win64; x64) AppleWebKit/537.36 (KHTML, like Gecko) Chrome/134.0.0.0 Safari/537.36 OPR/119.0.0.0","WebKit","Opera","119.0.0.0","Windows","10.0","https://app.prolific.com/","de-DE,de;q=0.9,en-US;q=0.8,en;q=0.7","6565f2ba13586fa869dd3b28","686e379bc37a29ffa5cdc956","6877af93a6475af9e06149aa","1","1","6565f2ba13586fa869dd3b28","1","1","2025-07-16T14:10:18.482Z","","","","","","","","","","","ControlQ","","50","","","","","","","","","","","","","","","","","","","","","","","","","","","","",""
"2410","","<div style=""width:500px;"">
  <p>How would you describe your current emotional state?</p>
  </div>","92","html-slider-response","57","817023","0.0-5.0-3.9","116","1","2025-07-16 13:56:45","1f75c3e559b7213887762d5229550c2b","89.245.26.231","Mozilla/5.0 (Windows NT 10.0; Win64; x64) AppleWebKit/537.36 (KHTML, like Gecko) Chrome/134.0.0.0 Safari/537.36 OPR/119.0.0.0","WebKit","Opera","119.0.0.0","Windows","10.0","https://app.prolific.com/","de-DE,de;q=0.9,en-US;q=0.8,en;q=0.7","6565f2ba13586fa869dd3b28","686e379bc37a29ffa5cdc956","6877af93a6475af9e06149aa","1","1","6565f2ba13586fa869dd3b28","1","1","2025-07-16T14:10:20.894Z","","","","","","","","","","","StressQ","","50","","","","","","","","","","","","","","","","","","","","","","","","","","","","",""
"1829","","<div style=""width:500px;"">
  <p>What best describes how you currently feel?</p>
  </div>","0","html-slider-response","58","818854","0.0-5.0-4.9","116","1","2025-07-16 13:56:45","1f75c3e559b7213887762d5229550c2b","89.245.26.231","Mozilla/5.0 (Windows NT 10.0; Win64; x64) AppleWebKit/537.36 (KHTML, like Gecko) Chrome/134.0.0.0 Safari/537.36 OPR/119.0.0.0","WebKit","Opera","119.0.0.0","Windows","10.0","https://app.prolific.com/","de-DE,de;q=0.9,en-US;q=0.8,en;q=0.7","6565f2ba13586fa869dd3b28","686e379bc37a29ffa5cdc956","6877af93a6475af9e06149aa","1","1","6565f2ba13586fa869dd3b28","1","1","2025-07-16T14:10:22.725Z","","","","","","","","","","","MotivationQ","","50","","","","","","","","","","","","","","","","","","","","","","","","","","","","",""
"","","","","ctl-task-cpt","59","866369","0.0-5.0-0.10","116","1","2025-07-16 13:56:45","1f75c3e559b7213887762d5229550c2b","89.245.26.231","Mozilla/5.0 (Windows NT 10.0; Win64; x64) AppleWebKit/537.36 (KHTML, like Gecko) Chrome/134.0.0.0 Safari/537.36 OPR/119.0.0.0","WebKit","Opera","119.0.0.0","Windows","10.0","https://app.prolific.com/","de-DE,de;q=0.9,en-US;q=0.8,en;q=0.7","6565f2ba13586fa869dd3b28","686e379bc37a29ffa5cdc956","6877af93a6475af9e06149aa","1","1","6565f2ba13586fa869dd3b28","1","1","2025-07-16T14:11:10.240Z","","","","","","","","","","","","","","win-only","2","g1:SE,g2:NW","0.5","11","0","819919.6","623.4","5628.4","44496.6","1","4","4","6","2","-4","-4","0","0","0","1270.8","3000","-2445","[""left"",""up""]","{""num_key_presses"":9,""num_perfect"":4,""num_errors"":0,""num_randdir"":5,""num_randdir_good_moves"":2,""num_whilered"":0,""num_whileblue"":0,""num_blue"":3,""num_good_moves"":6}","[417.57142857142856,408.47767857142856,0.2,417.57142857142856,408.47767857142856,114.9,417.57142857142856,408.47767857142856,226.2,417.57142857142856,408.47767857142856,327.2,417.57142857142856,408.47767857142856,427.4,423.57142857142856,410.47767857142856,528.2,433.57142857142856,418.47767857142856,636.4,435.57142857142856,422.47767857142856,736.6,445.57142857142856,430.47767857142856,837.1,343.57142857142856,352.47767857142856,938.1,143.57142857142856,142.47767857142856,1042.4,125.57142857142857,102.47767857142857,1142.5,123.57142857142857,98.47767857142857,1254.8,123.57142857142857,98.47767857142857,1367.7,123.57142857142857,98.47767857142857,1471.8,121.57142857142857,98.47767857142857,1573.3,-202.42857142857144,142.47767857142856,1678.8,-206.42857142857144,140.47767857142856,1782,-206.42857142857144,140.47767857142856,1887.7,-206.42857142857144,140.47767857142856,1988.1,-206.42857142857144,140.47767857142856,2091.9,-206.42857142857144,140.47767857142856,2192,-206.42857142857144,140.47767857142856,2292.8,-206.42857142857144,140.47767857142856,2406.8,-206.42857142857144,140.47767857142856,2507.5,-206.42857142857144,140.47767857142856,2607.8,-206.42857142857144,140.47767857142856,2708.2,-206.42857142857144,140.47767857142856,2812.3,-206.42857142857144,140.47767857142856,2925.2,-206.42857142857144,140.47767857142856,3027.7,-206.42857142857144,140.47767857142856,3128,-206.42857142857144,140.47767857142856,3231.1,-206.42857142857144,140.47767857142856,3332.3,-206.42857142857144,140.47767857142856,3432.9,-206.42857142857144,140.47767857142856,3534.8,-206.42857142857144,140.47767857142856,3637.8,-206.42857142857144,140.47767857142856,3742.3,-206.42857142857144,140.47767857142856,3843.9,-206.42857142857144,140.47767857142856,3947.6,-206.42857142857144,140.47767857142856,4055.6,-206.42857142857144,140.47767857142856,4158.4,-206.42857142857144,140.47767857142856,4262.6,-206.42857142857144,140.47767857142856,4371.9,-206.42857142857144,140.47767857142856,4472.8,-206.42857142857144,140.47767857142856,4578.9,-206.42857142857144,140.47767857142856,4688.1,-206.42857142857144,140.47767857142856,4793.7,-206.42857142857144,140.47767857142856,4894.2]","[1385.2,1385.2,1000,0,385.2,""oops"",""left"",""left"",""good_move"",4184.9,2799,2419.9,1385.9,379.1,""oops"",""left"",""up"",""good_move"",7094.2,2908.8,2534.3,4185.4,374.5,""smooth"",""left"",""left"",""good_move"",11087,3992.6,3494.3,7094.4,498.3,""smooth"",""up"",""up"",""good_move"",14723.5,3636,3292.3,11087.5,343.7,""smooth"",""up"",""up"",""good_move"",20905.9,6182.2,2580.2,17937.6,388.1,""oops"",""left"",""right"",""bad_move"",23930.6,3024.2,2682,20906.4,342.2,""oops"",""left"",""down"",""bad_move"",26989.3,3058.2,2714.7,23931.2,343.5,""smooth"",""left"",""left"",""good_move"",29719.8,2730,2364,26989.8,366,""oops"",""left"",""right"",""bad_move""]","",""
"4725","","<div style=""width:500px;"">
  <p>What determined the result of this run?</p>
  </div>","6","html-slider-response","60","871096","0.0-5.0-1.10","116","1","2025-07-16 13:56:45","1f75c3e559b7213887762d5229550c2b","89.245.26.231","Mozilla/5.0 (Windows NT 10.0; Win64; x64) AppleWebKit/537.36 (KHTML, like Gecko) Chrome/134.0.0.0 Safari/537.36 OPR/119.0.0.0","WebKit","Opera","119.0.0.0","Windows","10.0","https://app.prolific.com/","de-DE,de;q=0.9,en-US;q=0.8,en;q=0.7","6565f2ba13586fa869dd3b28","686e379bc37a29ffa5cdc956","6877af93a6475af9e06149aa","1","1","6565f2ba13586fa869dd3b28","1","1","2025-07-16T14:11:14.967Z","","","","","","","","","","","AttribQ","","50","","","","","","","","","","","","","","","","","","","","","","","","","","","","",""
"4088","","<div style=""width:500px;"">
  <p>How much control did you have over the ball?</p>
  </div>","3","html-slider-response","61","875185","0.0-5.0-2.10","116","1","2025-07-16 13:56:45","1f75c3e559b7213887762d5229550c2b","89.245.26.231","Mozilla/5.0 (Windows NT 10.0; Win64; x64) AppleWebKit/537.36 (KHTML, like Gecko) Chrome/134.0.0.0 Safari/537.36 OPR/119.0.0.0","WebKit","Opera","119.0.0.0","Windows","10.0","https://app.prolific.com/","de-DE,de;q=0.9,en-US;q=0.8,en;q=0.7","6565f2ba13586fa869dd3b28","686e379bc37a29ffa5cdc956","6877af93a6475af9e06149aa","1","1","6565f2ba13586fa869dd3b28","1","1","2025-07-16T14:11:19.056Z","","","","","","","","","","","ControlQ","","50","","","","","","","","","","","","","","","","","","","","","","","","","","","","",""
"1256","","<div style=""width:500px;"">
  <p>How would you describe your current emotional state?</p>
  </div>","93","html-slider-response","62","876442","0.0-5.0-3.10","116","1","2025-07-16 13:56:45","1f75c3e559b7213887762d5229550c2b","89.245.26.231","Mozilla/5.0 (Windows NT 10.0; Win64; x64) AppleWebKit/537.36 (KHTML, like Gecko) Chrome/134.0.0.0 Safari/537.36 OPR/119.0.0.0","WebKit","Opera","119.0.0.0","Windows","10.0","https://app.prolific.com/","de-DE,de;q=0.9,en-US;q=0.8,en;q=0.7","6565f2ba13586fa869dd3b28","686e379bc37a29ffa5cdc956","6877af93a6475af9e06149aa","1","1","6565f2ba13586fa869dd3b28","1","1","2025-07-16T14:11:20.313Z","","","","","","","","","","","StressQ","","50","","","","","","","","","","","","","","","","","","","","","","","","","","","","",""
"1335","","<div style=""width:500px;"">
  <p>What best describes how you currently feel?</p>
  </div>","2","html-slider-response","63","877779","0.0-5.0-4.10","116","1","2025-07-16 13:56:45","1f75c3e559b7213887762d5229550c2b","89.245.26.231","Mozilla/5.0 (Windows NT 10.0; Win64; x64) AppleWebKit/537.36 (KHTML, like Gecko) Chrome/134.0.0.0 Safari/537.36 OPR/119.0.0.0","WebKit","Opera","119.0.0.0","Windows","10.0","https://app.prolific.com/","de-DE,de;q=0.9,en-US;q=0.8,en;q=0.7","6565f2ba13586fa869dd3b28","686e379bc37a29ffa5cdc956","6877af93a6475af9e06149aa","1","1","6565f2ba13586fa869dd3b28","1","1","2025-07-16T14:11:21.650Z","","","","","","","","","","","MotivationQ","","50","","","","","","","","","","","","","","","","","","","","","","","","","","","","",""
"","","","","ctl-task-cpt","64","900424","0.0-5.0-0.11","116","1","2025-07-16 13:56:45","1f75c3e559b7213887762d5229550c2b","89.245.26.231","Mozilla/5.0 (Windows NT 10.0; Win64; x64) AppleWebKit/537.36 (KHTML, like Gecko) Chrome/134.0.0.0 Safari/537.36 OPR/119.0.0.0","WebKit","Opera","119.0.0.0","Windows","10.0","https://app.prolific.com/","de-DE,de;q=0.9,en-US;q=0.8,en;q=0.7","6565f2ba13586fa869dd3b28","686e379bc37a29ffa5cdc956","6877af93a6475af9e06149aa","1","1","6565f2ba13586fa869dd3b28","1","1","2025-07-16T14:11:44.295Z","","","","","","","","","","","","","","win-only","3","g1:SW,g2:NE","0.6","12","0","878844.2","623","5625.9","19625.6","1","4","8","6","1","1","1","1","0","0.007575757575757576","895.6","3000","1690","[""down"",""left""]","{""num_key_presses"":4,""num_perfect"":2,""num_errors"":0,""num_randdir"":2,""num_randdir_good_moves"":2,""num_whilered"":0,""num_whileblue"":0,""num_blue"":1,""num_good_moves"":4}","[417.57142857142856,418.47767857142856,0.3,417.57142857142856,418.47767857142856,115.4,417.57142857142856,418.47767857142856,217.6,419.57142857142856,418.47767857142856,322.8,419.57142857142856,418.47767857142856,422.9,405.57142857142856,450.47767857142856,522.9,103.57142857142857,644.4776785714286,630.9,101.57142857142857,668.4776785714286,733.4,97.57142857142857,718.4776785714286,833.4,93.57142857142857,724.4776785714286,933.6,95.57142857142857,720.4776785714286,1038.4,99.57142857142857,626.4776785714286,1147.8,73.57142857142857,432.47767857142856,1249.9,53.57142857142857,384.47767857142856,1353,-32.42857142857143,352.47767857142856,1453.3,-36.42857142857143,352.47767857142856,1558.6,-36.42857142857143,352.47767857142856,1665.6,-36.42857142857143,352.47767857142856,1766.1,-36.42857142857143,352.47767857142856,1866.3,-36.42857142857143,352.47767857142856,1967.9,-36.42857142857143,352.47767857142856,2073.7,-36.42857142857143,352.47767857142856,2185.1,-36.42857142857143,352.47767857142856,2287.6,-36.42857142857143,352.47767857142856,2388.5,-36.42857142857143,352.47767857142856,2488.8,-36.42857142857143,352.47767857142856,2599.8,-36.42857142857143,352.47767857142856,2702.5,-36.42857142857143,352.47767857142856,2802.9,-36.42857142857143,352.47767857142856,2903.6,-36.42857142857143,352.47767857142856,3014.5,-36.42857142857143,352.47767857142856,3121.2,-36.42857142857143,352.47767857142856,3221.9,-36.42857142857143,352.47767857142856,3323,-36.42857142857143,352.47767857142856,3431.8,-36.42857142857143,352.47767857142856,3532.8,-36.42857142857143,352.47767857142856,3637.6,-36.42857142857143,352.47767857142856,3742.8,-36.42857142857143,352.47767857142856,3842.9,-36.42857142857143,352.47767857142856,3947.7,-36.42857142857143,352.47767857142856,4047.7,-36.42857142857143,352.47767857142856,4148.2,-36.42857142857143,352.47767857142856,4253.1,-36.42857142857143,352.47767857142856,4353.2,-36.42857142857143,352.47767857142856,4456.4,-36.42857142857143,352.47767857142856,4557.7,-36.42857142857143,352.47767857142856,4658.2,-36.42857142857143,352.47767857142856,4763.7,-36.42857142857143,352.47767857142856,4864.4,-36.42857142857143,352.47767857142856,4967.7]","[5193.1,5193.1,2765.7,2007.1,420.3,""oops"",""left"",""down"",""good_move"",8199.6,3006,2613.5,5193.6,392.5,""smooth"",""left"",""left"",""good_move"",11390.9,3190.9,2767.1,8200,423.8,""oops"",""left"",""left"",""good_move"",13879,2487.8,2092.2,11391.2,395.6,""smooth"",""down"",""down"",""good_move""]","",""
"7430","","<div style=""width:500px;"">
  <p>What determined the result of this run?</p>
  </div>","4","html-slider-response","65","907856","0.0-5.0-1.11","116","1","2025-07-16 13:56:45","1f75c3e559b7213887762d5229550c2b","89.245.26.231","Mozilla/5.0 (Windows NT 10.0; Win64; x64) AppleWebKit/537.36 (KHTML, like Gecko) Chrome/134.0.0.0 Safari/537.36 OPR/119.0.0.0","WebKit","Opera","119.0.0.0","Windows","10.0","https://app.prolific.com/","de-DE,de;q=0.9,en-US;q=0.8,en;q=0.7","6565f2ba13586fa869dd3b28","686e379bc37a29ffa5cdc956","6877af93a6475af9e06149aa","1","1","6565f2ba13586fa869dd3b28","1","1","2025-07-16T14:11:51.727Z","","","","","","","","","","","AttribQ","","50","","","","","","","","","","","","","","","","","","","","","","","","","","","","",""
"3174","","<div style=""width:500px;"">
  <p>How much control did you have over the ball?</p>
  </div>","3","html-slider-response","66","911031","0.0-5.0-2.11","116","1","2025-07-16 13:56:45","1f75c3e559b7213887762d5229550c2b","89.245.26.231","Mozilla/5.0 (Windows NT 10.0; Win64; x64) AppleWebKit/537.36 (KHTML, like Gecko) Chrome/134.0.0.0 Safari/537.36 OPR/119.0.0.0","WebKit","Opera","119.0.0.0","Windows","10.0","https://app.prolific.com/","de-DE,de;q=0.9,en-US;q=0.8,en;q=0.7","6565f2ba13586fa869dd3b28","686e379bc37a29ffa5cdc956","6877af93a6475af9e06149aa","1","1","6565f2ba13586fa869dd3b28","1","1","2025-07-16T14:11:54.902Z","","","","","","","","","","","ControlQ","","50","","","","","","","","","","","","","","","","","","","","","","","","","","","","",""
"26968","","<div style=""width:500px;"">
  <p>How would you describe your current emotional state?</p>
  </div>","82","html-slider-response","67","938000","0.0-5.0-3.11","116","1","2025-07-16 13:56:45","1f75c3e559b7213887762d5229550c2b","89.245.26.231","Mozilla/5.0 (Windows NT 10.0; Win64; x64) AppleWebKit/537.36 (KHTML, like Gecko) Chrome/134.0.0.0 Safari/537.36 OPR/119.0.0.0","WebKit","Opera","119.0.0.0","Windows","10.0","https://app.prolific.com/","de-DE,de;q=0.9,en-US;q=0.8,en;q=0.7","6565f2ba13586fa869dd3b28","686e379bc37a29ffa5cdc956","6877af93a6475af9e06149aa","1","1","6565f2ba13586fa869dd3b28","1","1","2025-07-16T14:12:21.871Z","","","","","","","","","","","StressQ","","50","","","","","","","","","","","","","","","","","","","","","","","","","","","","",""
"2273","","<div style=""width:500px;"">
  <p>What best describes how you currently feel?</p>
  </div>","11","html-slider-response","68","940275","0.0-5.0-4.11","116","1","2025-07-16 13:56:45","1f75c3e559b7213887762d5229550c2b","89.245.26.231","Mozilla/5.0 (Windows NT 10.0; Win64; x64) AppleWebKit/537.36 (KHTML, like Gecko) Chrome/134.0.0.0 Safari/537.36 OPR/119.0.0.0","WebKit","Opera","119.0.0.0","Windows","10.0","https://app.prolific.com/","de-DE,de;q=0.9,en-US;q=0.8,en;q=0.7","6565f2ba13586fa869dd3b28","686e379bc37a29ffa5cdc956","6877af93a6475af9e06149aa","1","1","6565f2ba13586fa869dd3b28","1","1","2025-07-16T14:12:24.146Z","","","","","","","","","","","MotivationQ","","50","","","","","","","","","","","","","","","","","","","","","","","","","","","","",""
"","","","","ctl-task-cpt","69","1003805","0.0-5.0-0.12","116","1","2025-07-16 13:56:45","1f75c3e559b7213887762d5229550c2b","89.245.26.231","Mozilla/5.0 (Windows NT 10.0; Win64; x64) AppleWebKit/537.36 (KHTML, like Gecko) Chrome/134.0.0.0 Safari/537.36 OPR/119.0.0.0","WebKit","Opera","119.0.0.0","Windows","10.0","https://app.prolific.com/","de-DE,de;q=0.9,en-US;q=0.8,en;q=0.7","6565f2ba13586fa869dd3b28","686e379bc37a29ffa5cdc956","6877af93a6475af9e06149aa","1","1","6565f2ba13586fa869dd3b28","1","1","2025-07-16T14:13:27.676Z","","","","","","","","","","","","","","win-only","2","g1:SE,g2:NW","0.7","13","0","941340.9","21887.2","26899.5","60510.9","1","4","4","6","1","1","1","2","1","0.015151515151515152","1423.3","3000","815","[""down"",""right""]","{""num_key_presses"":6,""num_perfect"":3,""num_errors"":0,""num_randdir"":3,""num_randdir_good_moves"":2,""num_whilered"":0,""num_whileblue"":0,""num_blue"":4,""num_good_moves"":5}","[410.57142857142856,407.47767857142856,0.3,410.57142857142856,407.47767857142856,111.5,410.57142857142856,407.47767857142856,213.5,410.57142857142856,407.47767857142856,315.9,410.57142857142856,407.47767857142856,418,410.57142857142856,407.47767857142856,530.7,410.57142857142856,407.47767857142856,635.8,390.57142857142856,393.47767857142856,749,238.57142857142856,253.47767857142856,862.5,480.57142857142856,467.47767857142856,974.1,634.5714285714286,611.4776785714286,1090.3,662.5714285714286,677.4776785714286,1196.8,726.5714285714286,739.4776785714286,1305.4,728.5714285714286,743.4776785714286,1418.5,728.5714285714286,743.4776785714286,1526.5,720.5714285714286,741.4776785714286,1642.4,570.5714285714286,649.4776785714286,1755.3,552.5714285714286,635.4776785714286,1863.9,552.5714285714286,635.4776785714286,1970.9,552.5714285714286,635.4776785714286,2075.8,552.5714285714286,635.4776785714286,2184.5,542.5714285714286,631.4776785714286,2295.7,496.57142857142856,653.4776785714286,2414.8,496.57142857142856,653.4776785714286,2539.8,496.57142857142856,653.4776785714286,2653.4,496.57142857142856,653.4776785714286,2772.2,496.57142857142856,653.4776785714286,2893.7,496.57142857142856,653.4776785714286,3007.3,496.57142857142856,653.4776785714286,3117.5,496.57142857142856,653.4776785714286,3218.7,496.57142857142856,653.4776785714286,3338,496.57142857142856,653.4776785714286,3453.8,496.57142857142856,653.4776785714286,3578.8,496.57142857142856,653.4776785714286,3680.8,496.57142857142856,653.4776785714286,3790.2,496.57142857142856,653.4776785714286,3891.9,496.57142857142856,653.4776785714286,4012.3,496.57142857142856,653.4776785714286,4115.9,496.57142857142856,653.4776785714286,4223.6,496.57142857142856,653.4776785714286,4329.1,496.57142857142856,653.4776785714286,4452.4,496.57142857142856,653.4776785714286,4554.1,496.57142857142856,653.4776785714286,4659.4,496.57142857142856,653.4776785714286,4780.3,496.57142857142856,653.4776785714286,4907.2]","[1458.4,1458.4,1000,0,458.4,""smooth"",""right"",""right"",""good_move"",8313.8,6854.7,1435.9,5097.8,1780.1,""oops"",""down"",""up"",""bad_move"",12075.8,3761.4,2050.8,8314.4,1710.6,""oops"",""down"",""down"",""good_move"",16642.3,4566,2817.9,12076.3,1748.1,""oops"",""down"",""right"",""good_move"",27077.2,10434.6,2621.4,24102.3,353.5,""smooth"",""down"",""down"",""good_move"",33511.4,6433.9,2671.4,30450.7,389.3,""smooth"",""down"",""down"",""good_move""]","",""
"8225","","<div style=""width:500px;"">
  <p>What determined the result of this run?</p>
  </div>","7","html-slider-response","70","1012031","0.0-5.0-1.12","116","1","2025-07-16 13:56:45","1f75c3e559b7213887762d5229550c2b","89.245.26.231","Mozilla/5.0 (Windows NT 10.0; Win64; x64) AppleWebKit/537.36 (KHTML, like Gecko) Chrome/134.0.0.0 Safari/537.36 OPR/119.0.0.0","WebKit","Opera","119.0.0.0","Windows","10.0","https://app.prolific.com/","de-DE,de;q=0.9,en-US;q=0.8,en;q=0.7","6565f2ba13586fa869dd3b28","686e379bc37a29ffa5cdc956","6877af93a6475af9e06149aa","1","1","6565f2ba13586fa869dd3b28","1","1","2025-07-16T14:13:35.902Z","","","","","","","","","","","AttribQ","","50","","","","","","","","","","","","","","","","","","","","","","","","","","","","",""
"2205","","<div style=""width:500px;"">
  <p>How much control did you have over the ball?</p>
  </div>","13","html-slider-response","71","1014237","0.0-5.0-2.12","116","1","2025-07-16 13:56:45","1f75c3e559b7213887762d5229550c2b","89.245.26.231","Mozilla/5.0 (Windows NT 10.0; Win64; x64) AppleWebKit/537.36 (KHTML, like Gecko) Chrome/134.0.0.0 Safari/537.36 OPR/119.0.0.0","WebKit","Opera","119.0.0.0","Windows","10.0","https://app.prolific.com/","de-DE,de;q=0.9,en-US;q=0.8,en;q=0.7","6565f2ba13586fa869dd3b28","686e379bc37a29ffa5cdc956","6877af93a6475af9e06149aa","1","1","6565f2ba13586fa869dd3b28","1","1","2025-07-16T14:13:38.108Z","","","","","","","","","","","ControlQ","","50","","","","","","","","","","","","","","","","","","","","","","","","","","","","",""
"2689","","<div style=""width:500px;"">
  <p>How would you describe your current emotional state?</p>
  </div>","84","html-slider-response","72","1016927","0.0-5.0-3.12","116","1","2025-07-16 13:56:45","1f75c3e559b7213887762d5229550c2b","89.245.26.231","Mozilla/5.0 (Windows NT 10.0; Win64; x64) AppleWebKit/537.36 (KHTML, like Gecko) Chrome/134.0.0.0 Safari/537.36 OPR/119.0.0.0","WebKit","Opera","119.0.0.0","Windows","10.0","https://app.prolific.com/","de-DE,de;q=0.9,en-US;q=0.8,en;q=0.7","6565f2ba13586fa869dd3b28","686e379bc37a29ffa5cdc956","6877af93a6475af9e06149aa","1","1","6565f2ba13586fa869dd3b28","1","1","2025-07-16T14:13:40.798Z","","","","","","","","","","","StressQ","","50","","","","","","","","","","","","","","","","","","","","","","","","","","","","",""
"5499","","<div style=""width:500px;"">
  <p>What best describes how you currently feel?</p>
  </div>","32","html-slider-response","73","1022427","0.0-5.0-4.12","116","1","2025-07-16 13:56:45","1f75c3e559b7213887762d5229550c2b","89.245.26.231","Mozilla/5.0 (Windows NT 10.0; Win64; x64) AppleWebKit/537.36 (KHTML, like Gecko) Chrome/134.0.0.0 Safari/537.36 OPR/119.0.0.0","WebKit","Opera","119.0.0.0","Windows","10.0","https://app.prolific.com/","de-DE,de;q=0.9,en-US;q=0.8,en;q=0.7","6565f2ba13586fa869dd3b28","686e379bc37a29ffa5cdc956","6877af93a6475af9e06149aa","1","1","6565f2ba13586fa869dd3b28","1","1","2025-07-16T14:13:46.298Z","","","","","","","","","","","MotivationQ","","50","","","","","","","","","","","","","","","","","","","","","","","","","","","","",""
