"rt","response_timestamp","stimulus","response","trial_type","trial_index","time_elapsed","internal_node_id","run_id","condition","recorded_at","source_code_version","ip","user_agent","device","browser","browser_version","platform","platform_version","referer","accept_language","PROLIFIC_PID","STUDY_ID","SESSION_ID","WEEK","BATCH","prolific_id","week","batch","realtime","success","responses","item_order","radio_event_ids","radio_event_times","key_event_times","mouse_event_times","straightlining","zigzagging","honeypot","eventType","view_history","slider_start","which_type","canvas_config","goals_layout","control_level","trial_number","tutorial_trial_number","trial_start_time","phase1_start_time","phase2_start_time","phase3_start_time","goal_1_value","goal_1_distance","goal_2_value","goal_2_distance","goal_selected","outcome","outcome_total","participant_final_score","participant_initial_score","participant_final_score_prop","goal_choice_rt","allocated_time","allocated_time_remaining","goal_direction","counts","mouse_movements","key_presses","question_order","question_id"
"7296","1753277026306","<p style='font-size:40px;line-height:1.25'><strong>Welcome to the experiment!</strong></p><p style='font-size:1.1em;line-height:1.25'>Thank you for participanting in our experiment again! You will be asked to play the Dysfunctional Ball Game again. We will briefly recap the rules before we start.</p><p style='font-size:1.1em;line-height:1.25'>Press <strong>Next</strong> to continue.</p>","0","custom-html-button-response","0","7298","0.0-0.0","220","1","2025-07-23 13:23:34","1f75c3e559b7213887762d5229550c2b","41.122.132.69","Mozilla/5.0 (Windows NT 10.0; Win64; x64) AppleWebKit/537.36 (KHTML, like Gecko) Chrome/138.0.0.0 Safari/537.36","WebKit","Chrome","138.0.0.0","Windows","10.0","https://app.prolific.com/","en-US,en;q=0.9","678bad003d15e6aba1ee5a5d","683dba2a8a9dda3513610c04","6880e071bd263a7c36c29bd9","3","0","678bad003d15e6aba1ee5a5d","3","0","2025-07-23T13:23:46.307Z","","","","","","","","","","","","","","","","","","","","","","","","","","","","","","","","","","","","","","","","","",""
"496171","","","","fullscreen","1","504473","0.0-1.0","220","1","2025-07-23 13:23:34","1f75c3e559b7213887762d5229550c2b","41.122.132.69","Mozilla/5.0 (Windows NT 10.0; Win64; x64) AppleWebKit/537.36 (KHTML, like Gecko) Chrome/138.0.0.0 Safari/537.36","WebKit","Chrome","138.0.0.0","Windows","10.0","https://app.prolific.com/","en-US,en;q=0.9","678bad003d15e6aba1ee5a5d","683dba2a8a9dda3513610c04","6880e071bd263a7c36c29bd9","3","0","678bad003d15e6aba1ee5a5d","3","0","","true","","","","","","","","","","","","","","","","","","","","","","","","","","","","","","","","","","","","","","","","",""
"1861","1753277525344","<p style='font-size:1.1em;line-height:1.25'>In the following, we will ask you a few questions relating to your feelings in the last 24 hours.<br></p><p style='font-size:1.1em;line-height:1.25'>Press the <strong>Next</strong> button to continue.</p>","0","custom-html-button-response","2","506336","0.0-2.0-0.0","220","1","2025-07-23 13:23:34","1f75c3e559b7213887762d5229550c2b","41.122.132.69","Mozilla/5.0 (Windows NT 10.0; Win64; x64) AppleWebKit/537.36 (KHTML, like Gecko) Chrome/138.0.0.0 Safari/537.36","WebKit","Chrome","138.0.0.0","Windows","10.0","https://app.prolific.com/","en-US,en;q=0.9","678bad003d15e6aba1ee5a5d","683dba2a8a9dda3513610c04","6880e071bd263a7c36c29bd9","3","0","678bad003d15e6aba1ee5a5d","3","0","2025-07-23T13:32:05.345Z","","","","","","","","","","","","","","","","","","","","","","","","","","","","","","","","","","","","","","","","","",""
"52902","","","","survey-template","3","559244","0.0-2.0-1.0","220","1","2025-07-23 13:23:34","1f75c3e559b7213887762d5229550c2b","41.122.132.69","Mozilla/5.0 (Windows NT 10.0; Win64; x64) AppleWebKit/537.36 (KHTML, like Gecko) Chrome/138.0.0.0 Safari/537.36","WebKit","Chrome","138.0.0.0","Windows","10.0","https://app.prolific.com/","en-US,en;q=0.9","678bad003d15e6aba1ee5a5d","683dba2a8a9dda3513610c04","6880e071bd263a7c36c29bd9","3","0","678bad003d15e6aba1ee5a5d","3","0","2025-07-23T13:32:58.253Z","","{""Q01"":""3"",""Q02"":""2"",""Q03"":""3"",""Q04"":""3"",""Q05"":""4"",""Q06"":""3"",""Q07"":""2"",""Q08"":""2"",""Q09"":""2"",""Q10"":""3"",""Q11"":""3"",""Q12"":""2"",""Q13"":""2"",""Q14"":""3"",""Q15"":""2"",""Q16"":""3"",""Q17"":""3"",""Q18"":""2"",""Q19"":""3"",""Q20"":""3"",""Q21"":""2"",""Q22"":""2""}","[0,1,2,3,4,5,6,7,8,9,10,11,12,13,14,15,16,17,18,19,20,21]","[""Q01"",""Q02"",""Q03"",""Q03"",""Q04"",""Q05"",""Q06"",""Q07"",""Q09"",""Q08"",""Q10"",""Q11"",""Q12"",""Q12"",""Q13"",""Q14"",""Q15"",""Q16"",""Q17"",""Q18"",""Q19"",""Q20"",""Q21"",""Q22""]","[3452.400000035763,7471.700000047684,8993.300000011921,9255.400000035763,10260.800000011921,13828.300000011921,14854.800000011921,15808.800000011921,18623.100000023842,19638.80000001192,21034.600000023842,25579.600000023842,26897.80000001192,27215.80000001192,28990.600000023842,30430.30000001192,31825.5,34046.30000001192,35706.30000001192,39469.80000001192,42199.700000047684,43344.80000001192,44697.30000001192,48067.90000003576]","[]","[0.10000002384185791,3452.400000035763,4206.700000047684,4872.400000035763,5608.900000035763,6247.400000035763,7471.700000047684,8403.600000023842,8993.300000011921,9255.400000035763,9759.800000011921,10260.800000011921,11167.300000011921,11819.700000047684,13047.200000047684,13828.300000011921,14854.800000011921,15808.800000011921,16535.600000023842,17294.100000023842,18012,18623.100000023842,19638.80000001192,21034.600000023842,22135.600000023842,22587.80000001192,23579.600000023842,24007.200000047684,24528.100000023842,25579.600000023842,26897.80000001192,27215.80000001192,28015.600000023842,28990.600000023842,30430.30000001192,31825.5,32878.80000001192,34046.30000001192,35131,35706.30000001192,38587.30000001192,39469.80000001192,42199.700000047684,43344.80000001192,44697.30000001192,48067.90000003576,52894.700000047684]","0.5","0.6190476190476191","0","drsp","","","","","","","","","","","","","","","","","","","","","","","","","","","","","","",""
"7654.300000011921","","","","survey-template","4","566900","0.0-2.0-2.0","220","1","2025-07-23 13:23:34","1f75c3e559b7213887762d5229550c2b","41.122.132.69","Mozilla/5.0 (Windows NT 10.0; Win64; x64) AppleWebKit/537.36 (KHTML, like Gecko) Chrome/138.0.0.0 Safari/537.36","WebKit","Chrome","138.0.0.0","Windows","10.0","https://app.prolific.com/","en-US,en;q=0.9","678bad003d15e6aba1ee5a5d","683dba2a8a9dda3513610c04","6880e071bd263a7c36c29bd9","3","0","678bad003d15e6aba1ee5a5d","3","0","2025-07-23T13:33:05.909Z","","{""Q01"":""3"",""Q02"":""3"",""Q03"":""3""}","[0,1,2]","[""Q01"",""Q02"",""Q03""]","[2344.5,4152.900000035763,5428.699999988079]","[]","[2344.5,3288.400000035763,4152.900000035763,5428.699999988079,7653.300000011921]","0.6666666666666666","1","0","stress","","","","","","","","","","","","","","","","","","","","","","","","","","","","","","",""
"2910","","","","instructions","5","569811","0.0-3.0-0.0","220","1","2025-07-23 13:23:34","1f75c3e559b7213887762d5229550c2b","41.122.132.69","Mozilla/5.0 (Windows NT 10.0; Win64; x64) AppleWebKit/537.36 (KHTML, like Gecko) Chrome/138.0.0.0 Safari/537.36","WebKit","Chrome","138.0.0.0","Windows","10.0","https://app.prolific.com/","en-US,en;q=0.9","678bad003d15e6aba1ee5a5d","683dba2a8a9dda3513610c04","6880e071bd263a7c36c29bd9","3","0","678bad003d15e6aba1ee5a5d","3","0","","","","","","","","","","","","","[{""page_index"":0,""viewing_time"":2909}]","","","","","","","","","","","","","","","","","","","","","","","","","","","","","",""
"2176","","<p>Before you start with this game please answer the following three questions yourself. </p>
  <p>Through this game, we measure several aspects of your cognitive performance, such as reaction times, multi-tasking capabilities </p>
  <p>and the ability to assess the situation you are in.</p>
  <p></p>
  <p><b>How good do you usually are in such tasks?</b></p>","67","html-slider-response","6","571991","0.0-4.0-0.0","220","1","2025-07-23 13:23:34","1f75c3e559b7213887762d5229550c2b","41.122.132.69","Mozilla/5.0 (Windows NT 10.0; Win64; x64) AppleWebKit/537.36 (KHTML, like Gecko) Chrome/138.0.0.0 Safari/537.36","WebKit","Chrome","138.0.0.0","Windows","10.0","https://app.prolific.com/","en-US,en;q=0.9","678bad003d15e6aba1ee5a5d","683dba2a8a9dda3513610c04","6880e071bd263a7c36c29bd9","3","0","678bad003d15e6aba1ee5a5d","3","0","2025-07-23T13:33:11.000Z","","","","","","","","","","","PreSkillQ","","50","","","","","","","","","","","","","","","","","","","","","","","","","","","","",""
"29670","","<div style=""width:500px;"">
  <p>How well do you think you will perform in this task compared to other participants?</p>
  </div>","75","html-slider-response","7","601662","0.0-4.0-1.0","220","1","2025-07-23 13:23:34","1f75c3e559b7213887762d5229550c2b","41.122.132.69","Mozilla/5.0 (Windows NT 10.0; Win64; x64) AppleWebKit/537.36 (KHTML, like Gecko) Chrome/138.0.0.0 Safari/537.36","WebKit","Chrome","138.0.0.0","Windows","10.0","https://app.prolific.com/","en-US,en;q=0.9","678bad003d15e6aba1ee5a5d","683dba2a8a9dda3513610c04","6880e071bd263a7c36c29bd9","3","0","678bad003d15e6aba1ee5a5d","3","0","2025-07-23T13:33:40.671Z","","","","","","","","","","","PrePerfQ","","50","","","","","","","","","","","","","","","","","","","","","","","","","","","","",""
"7823","","<div style=""width:500px;"">
  <p>What best describes how you currently feel?</p>
  </div>","63","html-slider-response","8","609486","0.0-4.0-2.0","220","1","2025-07-23 13:23:34","1f75c3e559b7213887762d5229550c2b","41.122.132.69","Mozilla/5.0 (Windows NT 10.0; Win64; x64) AppleWebKit/537.36 (KHTML, like Gecko) Chrome/138.0.0.0 Safari/537.36","WebKit","Chrome","138.0.0.0","Windows","10.0","https://app.prolific.com/","en-US,en;q=0.9","678bad003d15e6aba1ee5a5d","683dba2a8a9dda3513610c04","6880e071bd263a7c36c29bd9","3","0","678bad003d15e6aba1ee5a5d","3","0","2025-07-23T13:33:48.495Z","","","","","","","","","","","PreMotivationQ","","50","","","","","","","","","","","","","","","","","","","","","","","","","","","","",""
"","","","","ctl-task-cpt","9","639611","0.0-5.0-0.0","220","1","2025-07-23 13:23:34","1f75c3e559b7213887762d5229550c2b","41.122.132.69","Mozilla/5.0 (Windows NT 10.0; Win64; x64) AppleWebKit/537.36 (KHTML, like Gecko) Chrome/138.0.0.0 Safari/537.36","WebKit","Chrome","138.0.0.0","Windows","10.0","https://app.prolific.com/","en-US,en;q=0.9","678bad003d15e6aba1ee5a5d","683dba2a8a9dda3513610c04","6880e071bd263a7c36c29bd9","3","0","678bad003d15e6aba1ee5a5d","3","0","2025-07-23T13:34:18.621Z","","","","","","","","","","","","","","win-only","0","g1:NW,g2:SE","1","1","0","613986.6","1212.4","6216.6","27113.2","1","4","4","6","2","4","4","4","0","0.030303030303030304","1480.9","3000","775","[""down"",""right""]","{""num_key_presses"":6,""num_perfect"":6,""num_errors"":0,""num_randdir"":0,""num_randdir_good_moves"":0,""num_whilered"":0,""num_whileblue"":0,""num_blue"":1,""num_good_moves"":6}","[766.4285714285714,786.4285714285714,0.2,766.4285714285714,786.4285714285714,199.4,766.4285714285714,780.1785714285714,304.3,771.4285714285714,762.6785714285714,408.8,777.6785714285714,721.4285714285714,509.3,731.4285714285714,697.6785714285714,613.3,815.1785714285714,858.9285714285714,714.3,943.9285714285714,981.4285714285714,819.8,1041.4285714285713,1093.9285714285713,923.2,1098.9285714285713,1136.4285714285713,1024.1,1182.6785714285713,1198.9285714285713,1124.6,1262.6785714285713,1256.4285714285713,1229.2,1335.1785714285713,1317.6785714285713,1332.2,1363.9285714285713,1333.9285714285713,1435.2,1363.9285714285713,1333.9285714285713,1540.6,1363.9285714285713,1331.4285714285713,1645.1,1370.1785714285713,1326.4285714285713,1748.5,1728.9285714285713,1336.4285714285713,1848.6,2270.1785714285716,1307.6785714285713,1957.1,2270.1785714285716,1491.4285714285713,2059.6,2270.1785714285716,1470.1785714285713,2165.1,2270.1785714285716,1470.1785714285713,2268.8,2270.1785714285716,1470.1785714285713,2373.5,2270.1785714285716,1467.6785714285713,2475,2270.1785714285716,1467.6785714285713,2580.8,2270.1785714285716,1467.6785714285713,2683.7,2270.1785714285716,1467.6785714285713,2784.4,2270.1785714285716,1108.9285714285713,2888.8,2270.1785714285716,1117.6785714285713,2995,2270.1785714285716,1353.9285714285713,3099.4,2270.1785714285716,1488.9285714285713,3203.7,2270.1785714285716,1548.9285714285713,3303.8,2270.1785714285716,1548.9285714285713,3409.5,2270.1785714285716,1548.9285714285713,3513.8,2270.1785714285716,1548.9285714285713,3619.2,2270.1785714285716,1548.9285714285713,3723.7,2270.1785714285716,1548.9285714285713,3823.9,2270.1785714285716,1548.9285714285713,3928.2,2270.1785714285716,1548.9285714285713,4034.6,2270.1785714285716,1548.9285714285713,4139.2,2270.1785714285716,1548.9285714285713,4244.2,2270.1785714285716,1548.9285714285713,4349.8,2270.1785714285716,1548.9285714285713,4450,2270.1785714285716,1548.9285714285713,4553.7,2270.1785714285716,1548.9285714285713,4653.7,2270.1785714285716,1548.9285714285713,4754,2270.1785714285716,1548.9285714285713,4858.7,2270.1785714285716,1548.9285714285713,4958.8]","[4892,4892,2350.6,2009.2,532.2,""smooth"",""right"",""right"",""good_move"",8303.6,3411.1,3022.8,4892.5,388.3,""smooth"",""right"",""right"",""good_move"",12426.1,4122.3,3599.3,8303.8,523,""smooth"",""right"",""right"",""good_move"",15623.4,3196.5,2796.5,12426.9,400,""smooth"",""down"",""down"",""good_move"",18354.8,2730.9,2386.6,15623.9,344.3,""smooth"",""down"",""down"",""good_move"",20798.9,2443.8,2056.8,18355.1,387.1,""smooth"",""down"",""down"",""good_move""]","",""
"79997","","<div style=""width:500px;"">
  <p>What determined the result of this run?</p>
  </div>","85","html-slider-response","10","719610","0.0-5.0-1.0","220","1","2025-07-23 13:23:34","1f75c3e559b7213887762d5229550c2b","41.122.132.69","Mozilla/5.0 (Windows NT 10.0; Win64; x64) AppleWebKit/537.36 (KHTML, like Gecko) Chrome/138.0.0.0 Safari/537.36","WebKit","Chrome","138.0.0.0","Windows","10.0","https://app.prolific.com/","en-US,en;q=0.9","678bad003d15e6aba1ee5a5d","683dba2a8a9dda3513610c04","6880e071bd263a7c36c29bd9","3","0","678bad003d15e6aba1ee5a5d","3","0","2025-07-23T13:35:38.620Z","","","","","","","","","","","AttribQ","","50","","","","","","","","","","","","","","","","","","","","","","","","","","","","",""
"3645","","<div style=""width:500px;"">
  <p>How much control did you have over the ball?</p>
  </div>","69","html-slider-response","11","723256","0.0-5.0-2.0","220","1","2025-07-23 13:23:34","1f75c3e559b7213887762d5229550c2b","41.122.132.69","Mozilla/5.0 (Windows NT 10.0; Win64; x64) AppleWebKit/537.36 (KHTML, like Gecko) Chrome/138.0.0.0 Safari/537.36","WebKit","Chrome","138.0.0.0","Windows","10.0","https://app.prolific.com/","en-US,en;q=0.9","678bad003d15e6aba1ee5a5d","683dba2a8a9dda3513610c04","6880e071bd263a7c36c29bd9","3","0","678bad003d15e6aba1ee5a5d","3","0","2025-07-23T13:35:42.266Z","","","","","","","","","","","ControlQ","","50","","","","","","","","","","","","","","","","","","","","","","","","","","","","",""
"3477","","<div style=""width:500px;"">
  <p>How would you describe your current emotional state?</p>
  </div>","36","html-slider-response","12","726734","0.0-5.0-3.0","220","1","2025-07-23 13:23:34","1f75c3e559b7213887762d5229550c2b","41.122.132.69","Mozilla/5.0 (Windows NT 10.0; Win64; x64) AppleWebKit/537.36 (KHTML, like Gecko) Chrome/138.0.0.0 Safari/537.36","WebKit","Chrome","138.0.0.0","Windows","10.0","https://app.prolific.com/","en-US,en;q=0.9","678bad003d15e6aba1ee5a5d","683dba2a8a9dda3513610c04","6880e071bd263a7c36c29bd9","3","0","678bad003d15e6aba1ee5a5d","3","0","2025-07-23T13:35:45.743Z","","","","","","","","","","","StressQ","","50","","","","","","","","","","","","","","","","","","","","","","","","","","","","",""
"6803","","<div style=""width:500px;"">
  <p>What best describes how you currently feel?</p>
  </div>","58","html-slider-response","13","733538","0.0-5.0-4.0","220","1","2025-07-23 13:23:34","1f75c3e559b7213887762d5229550c2b","41.122.132.69","Mozilla/5.0 (Windows NT 10.0; Win64; x64) AppleWebKit/537.36 (KHTML, like Gecko) Chrome/138.0.0.0 Safari/537.36","WebKit","Chrome","138.0.0.0","Windows","10.0","https://app.prolific.com/","en-US,en;q=0.9","678bad003d15e6aba1ee5a5d","683dba2a8a9dda3513610c04","6880e071bd263a7c36c29bd9","3","0","678bad003d15e6aba1ee5a5d","3","0","2025-07-23T13:35:52.547Z","","","","","","","","","","","MotivationQ","","50","","","","","","","","","","","","","","","","","","","","","","","","","","","","",""
"","","","","ctl-task-cpt","14","760104","0.0-5.0-0.1","220","1","2025-07-23 13:23:34","1f75c3e559b7213887762d5229550c2b","41.122.132.69","Mozilla/5.0 (Windows NT 10.0; Win64; x64) AppleWebKit/537.36 (KHTML, like Gecko) Chrome/138.0.0.0 Safari/537.36","WebKit","Chrome","138.0.0.0","Windows","10.0","https://app.prolific.com/","en-US,en;q=0.9","678bad003d15e6aba1ee5a5d","683dba2a8a9dda3513610c04","6880e071bd263a7c36c29bd9","3","0","678bad003d15e6aba1ee5a5d","3","0","2025-07-23T13:36:19.113Z","","","","","","","","","","","","","","win-only","2","g1:SE,g2:NW","0.9","2","0","738036.3","2035","7036.6","23556.2","1","4","8","6","2","8","8","12","4","0.09090909090909091","1607.8","3000","865","[""left"",""up""]","{""num_key_presses"":6,""num_perfect"":6,""num_errors"":0,""num_randdir"":0,""num_randdir_good_moves"":0,""num_whilered"":0,""num_whileblue"":0,""num_blue"":0,""num_good_moves"":6}","[770.1785714285714,763.9285714285714,0.3,770.1785714285714,763.9285714285714,101.7,772.6785714285714,761.4285714285714,205.6,780.1785714285714,752.6785714285714,306.4,821.4285714285714,642.6785714285714,418.7,838.9285714285714,578.9285714285714,519.2,836.4285714285714,572.6785714285714,621.3,791.4285714285714,648.9285714285714,721.3,800.1785714285714,713.9285714285714,826.5,685.1785714285714,617.6785714285714,935,508.92857142857144,378.92857142857144,1035.6,405.17857142857144,330.17857142857144,1136.5,251.42857142857142,273.92857142857144,1236.5,221.42857142857142,241.42857142857142,1336.9,201.42857142857142,192.67857142857142,1437.4,156.42857142857142,111.42857142857142,1541.7,156.42857142857142,111.42857142857142,1642,156.42857142857142,111.42857142857142,1745.5,186.42857142857142,116.42857142857142,1845.5,455.17857142857144,315.17857142857144,1947.7,1310.1785714285713,960.1785714285714,2051.9,2270.1785714285716,1775.1785714285713,2152,2270.1785714285716,1775.1785714285713,2256,2270.1785714285716,1775.1785714285713,2356.5,2270.1785714285716,1775.1785714285713,2456.7,2270.1785714285716,1775.1785714285713,2570,2270.1785714285716,1775.1785714285713,2670.2,2270.1785714285716,1775.1785714285713,2770.6,2270.1785714285716,1775.1785714285713,2876.7,2270.1785714285716,1775.1785714285713,2981.5,2270.1785714285716,1775.1785714285713,3085.8,2270.1785714285716,1775.1785714285713,3186.4,2270.1785714285716,1775.1785714285713,3291.6,2270.1785714285716,1775.1785714285713,3396.6,2270.1785714285716,1775.1785714285713,3502,2270.1785714285716,1775.1785714285713,3606,2270.1785714285716,1775.1785714285713,3706.4,2270.1785714285716,1775.1785714285713,3819.4,2270.1785714285716,1775.1785714285713,3919.8,2270.1785714285716,1775.1785714285713,4020,2270.1785714285716,1775.1785714285713,4120.9,2270.1785714285716,1775.1785714285713,4226.5,2270.1785714285716,1775.1785714285713,4336.4,2270.1785714285716,1775.1785714285713,4441.2,2270.1785714285716,1775.1785714285713,4541.3,2270.1785714285716,1775.1785714285713,4641.7,2270.1785714285716,1775.1785714285713,4746.8,2270.1785714285716,1775.1785714285713,4853,2270.1785714285716,1775.1785714285713,4953.5]","[1466.6,1466.6,1000,0,466.6,""smooth"",""left"",""left"",""good_move"",4479.6,3012.7,2661.7,1466.9,351,""smooth"",""left"",""left"",""good_move"",6728.4,2248.5,1742.3,4479.9,506.2,""smooth"",""left"",""left"",""good_move"",10094.7,3366,2985,6728.7,381.1,""smooth"",""up"",""up"",""good_move"",13282.2,3186,2772.2,10096.2,413.8,""smooth"",""up"",""up"",""good_move"",16417.8,3135.4,2765.4,13282.4,370,""smooth"",""up"",""up"",""good_move""]","",""
"101454","","<div style=""width:500px;"">
  <p>What determined the result of this run?</p>
  </div>","63","html-slider-response","15","861560","0.0-5.0-1.1","220","1","2025-07-23 13:23:34","1f75c3e559b7213887762d5229550c2b","41.122.132.69","Mozilla/5.0 (Windows NT 10.0; Win64; x64) AppleWebKit/537.36 (KHTML, like Gecko) Chrome/138.0.0.0 Safari/537.36","WebKit","Chrome","138.0.0.0","Windows","10.0","https://app.prolific.com/","en-US,en;q=0.9","678bad003d15e6aba1ee5a5d","683dba2a8a9dda3513610c04","6880e071bd263a7c36c29bd9","3","0","678bad003d15e6aba1ee5a5d","3","0","2025-07-23T13:38:00.569Z","","","","","","","","","","","AttribQ","","50","","","","","","","","","","","","","","","","","","","","","","","","","","","","",""
"3507","","<div style=""width:500px;"">
  <p>How much control did you have over the ball?</p>
  </div>","70","html-slider-response","16","865069","0.0-5.0-2.1","220","1","2025-07-23 13:23:34","1f75c3e559b7213887762d5229550c2b","41.122.132.69","Mozilla/5.0 (Windows NT 10.0; Win64; x64) AppleWebKit/537.36 (KHTML, like Gecko) Chrome/138.0.0.0 Safari/537.36","WebKit","Chrome","138.0.0.0","Windows","10.0","https://app.prolific.com/","en-US,en;q=0.9","678bad003d15e6aba1ee5a5d","683dba2a8a9dda3513610c04","6880e071bd263a7c36c29bd9","3","0","678bad003d15e6aba1ee5a5d","3","0","2025-07-23T13:38:04.078Z","","","","","","","","","","","ControlQ","","50","","","","","","","","","","","","","","","","","","","","","","","","","","","","",""
"2801","","<div style=""width:500px;"">
  <p>How would you describe your current emotional state?</p>
  </div>","31","html-slider-response","17","867871","0.0-5.0-3.1","220","1","2025-07-23 13:23:34","1f75c3e559b7213887762d5229550c2b","41.122.132.69","Mozilla/5.0 (Windows NT 10.0; Win64; x64) AppleWebKit/537.36 (KHTML, like Gecko) Chrome/138.0.0.0 Safari/537.36","WebKit","Chrome","138.0.0.0","Windows","10.0","https://app.prolific.com/","en-US,en;q=0.9","678bad003d15e6aba1ee5a5d","683dba2a8a9dda3513610c04","6880e071bd263a7c36c29bd9","3","0","678bad003d15e6aba1ee5a5d","3","0","2025-07-23T13:38:06.880Z","","","","","","","","","","","StressQ","","50","","","","","","","","","","","","","","","","","","","","","","","","","","","","",""
"2862","","<div style=""width:500px;"">
  <p>What best describes how you currently feel?</p>
  </div>","63","html-slider-response","18","870735","0.0-5.0-4.1","220","1","2025-07-23 13:23:34","1f75c3e559b7213887762d5229550c2b","41.122.132.69","Mozilla/5.0 (Windows NT 10.0; Win64; x64) AppleWebKit/537.36 (KHTML, like Gecko) Chrome/138.0.0.0 Safari/537.36","WebKit","Chrome","138.0.0.0","Windows","10.0","https://app.prolific.com/","en-US,en;q=0.9","678bad003d15e6aba1ee5a5d","683dba2a8a9dda3513610c04","6880e071bd263a7c36c29bd9","3","0","678bad003d15e6aba1ee5a5d","3","0","2025-07-23T13:38:09.744Z","","","","","","","","","","","MotivationQ","","50","","","","","","","","","","","","","","","","","","","","","","","","","","","","",""
"","","","","ctl-task-cpt","19","909576","0.0-5.0-0.2","220","1","2025-07-23 13:23:34","1f75c3e559b7213887762d5229550c2b","41.122.132.69","Mozilla/5.0 (Windows NT 10.0; Win64; x64) AppleWebKit/537.36 (KHTML, like Gecko) Chrome/138.0.0.0 Safari/537.36","WebKit","Chrome","138.0.0.0","Windows","10.0","https://app.prolific.com/","en-US,en;q=0.9","678bad003d15e6aba1ee5a5d","683dba2a8a9dda3513610c04","6880e071bd263a7c36c29bd9","3","0","678bad003d15e6aba1ee5a5d","3","0","2025-07-23T13:38:48.585Z","","","","","","","","","","","","","","win-only","1","g1:NE,g2:SW","0.8","3","0","875233.5","2050.2","7059.7","35810.5","1","4","8","6","2","8","8","20","12","0.15151515151515152","1427.2","3000","355","[""down"",""left""]","{""num_key_presses"":8,""num_perfect"":6,""num_errors"":0,""num_randdir"":2,""num_randdir_good_moves"":1,""num_whilered"":0,""num_whileblue"":0,""num_blue"":2,""num_good_moves"":7}","[761.4285714285714,771.4285714285714,0.1,761.4285714285714,771.4285714285714,100.9,761.4285714285714,771.4285714285714,200.9,761.4285714285714,771.4285714285714,301.2,767.6785714285714,763.9285714285714,405.8,771.4285714285714,752.6785714285714,508.2,611.4285714285714,772.6785714285714,608.8,506.42857142857144,881.4285714285714,708.9,408.92857142857144,1010.1785714285714,811.1,287.67857142857144,1106.4285714285713,911.9,211.42857142857142,1200.1785714285713,1015.7,197.67857142857142,1281.4285714285713,1116,191.42857142857142,1298.9285714285713,1225.8,185.17857142857142,1311.4285714285713,1330.8,185.17857142857142,1321.4285714285713,1437.3,185.17857142857142,1321.4285714285713,1542.5,185.17857142857142,1316.4285714285713,1646.3,187.67857142857142,1311.4285714285713,1746.4,632.6785714285714,1255.1785714285713,1846.4,1575.1785714285713,1317.6785714285713,1959.1,2270.1785714285716,1480.1785714285713,2060.9,2270.1785714285716,1471.4285714285713,2162,2270.1785714285716,1471.4285714285713,2266.5,2270.1785714285716,1471.4285714285713,2373.9,2270.1785714285716,1471.4285714285713,2476.3,2270.1785714285716,1471.4285714285713,2580.8,2270.1785714285716,1471.4285714285713,2685.6,2270.1785714285716,1471.4285714285713,2785.7,2270.1785714285716,1471.4285714285713,2892,2270.1785714285716,1471.4285714285713,2996,2270.1785714285716,1471.4285714285713,3100.8,2270.1785714285716,1471.4285714285713,3208.5,2270.1785714285716,1471.4285714285713,3308.5,2270.1785714285716,1471.4285714285713,3408.9,2270.1785714285716,1471.4285714285713,3512.1,2270.1785714285716,1471.4285714285713,3613.2,2270.1785714285716,1471.4285714285713,3715.7,2270.1785714285716,1471.4285714285713,3815.7,2270.1785714285716,1471.4285714285713,3915.7,2270.1785714285716,1472.6785714285713,4021,2270.1785714285716,1472.6785714285713,4126.9,2270.1785714285716,1472.6785714285713,4229.2,2270.1785714285716,1472.6785714285713,4331.8,2270.1785714285716,1472.6785714285713,4445.1,2270.1785714285716,1472.6785714285713,4545.2,2270.1785714285716,1472.6785714285713,4645.7,2270.1785714285716,1472.6785714285713,4751.8,2270.1785714285716,1472.6785714285713,4858.9,2270.1785714285716,1472.6785714285713,4960.9]","[8830.4,8830.4,2703.5,5597.8,529.1,""smooth"",""left"",""left"",""good_move"",11562.1,2731.3,2226.9,8830.8,504.4,""smooth"",""left"",""left"",""good_move"",15079,3516.5,3106.4,11562.5,410.1,""oops"",""left"",""left"",""good_move"",17630.6,2551.2,2147.9,15079.4,403.3,""smooth"",""down"",""down"",""good_move"",20502.2,2871,2440,17631.2,431,""smooth"",""down"",""down"",""good_move"",22937.2,2434.8,1965.5,20502.4,469.4,""oops"",""down"",""up"",""bad_move"",25962.5,3024.8,2646.9,22937.7,377.9,""smooth"",""down"",""down"",""good_move"",28646,2683.2,2253.3,25962.8,429.9,""smooth"",""down"",""down"",""good_move""]","",""
"67694","","<div style=""width:500px;"">
  <p>What determined the result of this run?</p>
  </div>","72","html-slider-response","20","977272","0.0-5.0-1.2","220","1","2025-07-23 13:23:34","1f75c3e559b7213887762d5229550c2b","41.122.132.69","Mozilla/5.0 (Windows NT 10.0; Win64; x64) AppleWebKit/537.36 (KHTML, like Gecko) Chrome/138.0.0.0 Safari/537.36","WebKit","Chrome","138.0.0.0","Windows","10.0","https://app.prolific.com/","en-US,en;q=0.9","678bad003d15e6aba1ee5a5d","683dba2a8a9dda3513610c04","6880e071bd263a7c36c29bd9","3","0","678bad003d15e6aba1ee5a5d","3","0","2025-07-23T13:39:56.281Z","","","","","","","","","","","AttribQ","","50","","","","","","","","","","","","","","","","","","","","","","","","","","","","",""
"2675","","<div style=""width:500px;"">
  <p>How much control did you have over the ball?</p>
  </div>","58","html-slider-response","21","979949","0.0-5.0-2.2","220","1","2025-07-23 13:23:34","1f75c3e559b7213887762d5229550c2b","41.122.132.69","Mozilla/5.0 (Windows NT 10.0; Win64; x64) AppleWebKit/537.36 (KHTML, like Gecko) Chrome/138.0.0.0 Safari/537.36","WebKit","Chrome","138.0.0.0","Windows","10.0","https://app.prolific.com/","en-US,en;q=0.9","678bad003d15e6aba1ee5a5d","683dba2a8a9dda3513610c04","6880e071bd263a7c36c29bd9","3","0","678bad003d15e6aba1ee5a5d","3","0","2025-07-23T13:39:58.959Z","","","","","","","","","","","ControlQ","","50","","","","","","","","","","","","","","","","","","","","","","","","","","","","",""
"5289","","<div style=""width:500px;"">
  <p>How would you describe your current emotional state?</p>
  </div>","36","html-slider-response","22","985243","0.0-5.0-3.2","220","1","2025-07-23 13:23:34","1f75c3e559b7213887762d5229550c2b","41.122.132.69","Mozilla/5.0 (Windows NT 10.0; Win64; x64) AppleWebKit/537.36 (KHTML, like Gecko) Chrome/138.0.0.0 Safari/537.36","WebKit","Chrome","138.0.0.0","Windows","10.0","https://app.prolific.com/","en-US,en;q=0.9","678bad003d15e6aba1ee5a5d","683dba2a8a9dda3513610c04","6880e071bd263a7c36c29bd9","3","0","678bad003d15e6aba1ee5a5d","3","0","2025-07-23T13:40:04.252Z","","","","","","","","","","","StressQ","","50","","","","","","","","","","","","","","","","","","","","","","","","","","","","",""
"3411","","<div style=""width:500px;"">
  <p>What best describes how you currently feel?</p>
  </div>","63","html-slider-response","23","988657","0.0-5.0-4.2","220","1","2025-07-23 13:23:34","1f75c3e559b7213887762d5229550c2b","41.122.132.69","Mozilla/5.0 (Windows NT 10.0; Win64; x64) AppleWebKit/537.36 (KHTML, like Gecko) Chrome/138.0.0.0 Safari/537.36","WebKit","Chrome","138.0.0.0","Windows","10.0","https://app.prolific.com/","en-US,en;q=0.9","678bad003d15e6aba1ee5a5d","683dba2a8a9dda3513610c04","6880e071bd263a7c36c29bd9","3","0","678bad003d15e6aba1ee5a5d","3","0","2025-07-23T13:40:07.667Z","","","","","","","","","","","MotivationQ","","50","","","","","","","","","","","","","","","","","","","","","","","","","","","","",""
"","","","","ctl-task-cpt","24","1043991","0.0-5.0-0.3","220","1","2025-07-23 13:23:34","1f75c3e559b7213887762d5229550c2b","41.122.132.69","Mozilla/5.0 (Windows NT 10.0; Win64; x64) AppleWebKit/537.36 (KHTML, like Gecko) Chrome/138.0.0.0 Safari/537.36","WebKit","Chrome","138.0.0.0","Windows","10.0","https://app.prolific.com/","en-US,en;q=0.9","678bad003d15e6aba1ee5a5d","683dba2a8a9dda3513610c04","6880e071bd263a7c36c29bd9","3","0","678bad003d15e6aba1ee5a5d","3","0","2025-07-23T13:41:03.000Z","","","","","","","","","","","","","","win-only","2","g1:SE,g2:NW","0.7","4","0","993160.3","2477.5","7481.2","52304.8","1","4","4","6","2","-4","-7","13","20","0.09848484848484848","1480.2","3000","-1835","[""left"",""up""]","{""num_key_presses"":13,""num_perfect"":7,""num_errors"":3,""num_randdir"":3,""num_randdir_good_moves"":1,""num_whilered"":0,""num_whileblue"":3,""num_blue"":5,""num_good_moves"":8}","[761.4285714285714,777.6785714285714,0.5,761.4285714285714,777.6785714285714,121.8,761.4285714285714,777.6785714285714,234.4,751.4285714285714,792.6785714285714,338.6,601.4285714285714,906.4285714285714,441.3,331.42857142857144,980.1785714285714,547.4,61.428571428571416,872.6785714285714,661.8,231.42857142857142,646.4285714285714,764.1,271.42857142857144,561.4285714285714,881.3,160.17857142857142,433.92857142857144,982.7,130.17857142857142,375.17857142857144,1084.5,161.42857142857142,245.17857142857142,1206.7,163.92857142857142,181.42857142857142,1317.6,163.92857142857142,171.42857142857142,1433.3,163.92857142857142,171.42857142857142,1536.2,163.92857142857142,171.42857142857142,1640.3,163.92857142857142,180.17857142857142,1754.7,148.92857142857142,261.42857142857144,1859.9,-44.821428571428584,457.67857142857144,1971.5,-417.32142857142856,552.6785714285714,2079.7,-532.3214285714286,622.6785714285714,2183.9,-532.3214285714286,622.6785714285714,2297.6,-531.0714285714286,622.6785714285714,2398.7,-531.0714285714286,622.6785714285714,2512.9,-531.0714285714286,622.6785714285714,2619.2,-531.0714285714286,622.6785714285714,2727.9,-531.0714285714286,622.6785714285714,2828.4,-516.0714285714286,626.4285714285714,2930.4,-444.82142857142856,661.4285714285714,3033.8,-169.82142857142858,781.4285714285714,3147.7,111.42857142857142,866.4285714285714,3248.8,337.67857142857144,912.6785714285714,3350.8,533.9285714285714,911.4285714285714,3453.6,660.1785714285714,921.4285714285714,3559.3,660.1785714285714,921.4285714285714,3663.8,660.1785714285714,921.4285714285714,3764.2,660.1785714285714,921.4285714285714,3864.2,660.1785714285714,921.4285714285714,3964.2,660.1785714285714,921.4285714285714,4068.6,660.1785714285714,921.4285714285714,4169,660.1785714285714,921.4285714285714,4278.6,660.1785714285714,921.4285714285714,4383.9,660.1785714285714,921.4285714285714,4496.3,660.1785714285714,921.4285714285714,4598.6,660.1785714285714,921.4285714285714,4699.1,660.1785714285714,921.4285714285714,4799.2,671.4285714285714,921.4285714285714,4903.1]","[1764.2,1764.2,1000,0,764.2,""smooth"",""right"",""right"",""bad_move"",5042.2,3277,2942.8,1765.3,334.2,""while_blue"",""left"",""down"",""bad_move"",8457.3,3413.9,3029.3,5043.6,384.5,""while_blue"",""left"",""left"",""good_move"",18105.8,9648,2401.4,15285,419.4,""oops"",""left"",""down"",""bad_move"",21233.8,3127.8,2711,18106,416.8,""smooth"",""left"",""left"",""good_move"",23761.8,2527.7,2078.4,21234.1,449.3,""smooth"",""up"",""up"",""good_move"",26525.1,2762.8,2293.6,23762.3,469.2,""oops"",""left"",""up"",""good_move"",29379.4,2854.1,2414.6,26525.3,439.5,""smooth"",""left"",""left"",""good_move"",32489.6,3109.9,2694.2,29379.7,415.7,""smooth"",""up"",""up"",""good_move"",34713.5,2223.8,1770.5,32489.7,453.3,""smooth"",""up"",""up"",""good_move"",36721.6,2007.7,1631.8,34713.9,375.9,""while_blue"",""up"",""right"",""bad_move"",39281.9,2560,2066.8,36721.9,493.2,""smooth"",""up"",""up"",""good_move"",41866.1,2584,2252.2,39282.1,331.8,""oops"",""left"",""right"",""bad_move""]","",""
"115803","","<div style=""width:500px;"">
  <p>What determined the result of this run?</p>
  </div>","31","html-slider-response","25","1159796","0.0-5.0-1.3","220","1","2025-07-23 13:23:34","1f75c3e559b7213887762d5229550c2b","41.122.132.69","Mozilla/5.0 (Windows NT 10.0; Win64; x64) AppleWebKit/537.36 (KHTML, like Gecko) Chrome/138.0.0.0 Safari/537.36","WebKit","Chrome","138.0.0.0","Windows","10.0","https://app.prolific.com/","en-US,en;q=0.9","678bad003d15e6aba1ee5a5d","683dba2a8a9dda3513610c04","6880e071bd263a7c36c29bd9","3","0","678bad003d15e6aba1ee5a5d","3","0","2025-07-23T13:42:58.805Z","","","","","","","","","","","AttribQ","","50","","","","","","","","","","","","","","","","","","","","","","","","","","","","",""
"3090","","<div style=""width:500px;"">
  <p>How much control did you have over the ball?</p>
  </div>","36","html-slider-response","26","1162887","0.0-5.0-2.3","220","1","2025-07-23 13:23:34","1f75c3e559b7213887762d5229550c2b","41.122.132.69","Mozilla/5.0 (Windows NT 10.0; Win64; x64) AppleWebKit/537.36 (KHTML, like Gecko) Chrome/138.0.0.0 Safari/537.36","WebKit","Chrome","138.0.0.0","Windows","10.0","https://app.prolific.com/","en-US,en;q=0.9","678bad003d15e6aba1ee5a5d","683dba2a8a9dda3513610c04","6880e071bd263a7c36c29bd9","3","0","678bad003d15e6aba1ee5a5d","3","0","2025-07-23T13:43:01.897Z","","","","","","","","","","","ControlQ","","50","","","","","","","","","","","","","","","","","","","","","","","","","","","","",""
"6735","","<div style=""width:500px;"">
  <p>How would you describe your current emotional state?</p>
  </div>","32","html-slider-response","27","1169625","0.0-5.0-3.3","220","1","2025-07-23 13:23:34","1f75c3e559b7213887762d5229550c2b","41.122.132.69","Mozilla/5.0 (Windows NT 10.0; Win64; x64) AppleWebKit/537.36 (KHTML, like Gecko) Chrome/138.0.0.0 Safari/537.36","WebKit","Chrome","138.0.0.0","Windows","10.0","https://app.prolific.com/","en-US,en;q=0.9","678bad003d15e6aba1ee5a5d","683dba2a8a9dda3513610c04","6880e071bd263a7c36c29bd9","3","0","678bad003d15e6aba1ee5a5d","3","0","2025-07-23T13:43:08.634Z","","","","","","","","","","","StressQ","","50","","","","","","","","","","","","","","","","","","","","","","","","","","","","",""
"2926","","<div style=""width:500px;"">
  <p>What best describes how you currently feel?</p>
  </div>","64","html-slider-response","28","1172552","0.0-5.0-4.3","220","1","2025-07-23 13:23:34","1f75c3e559b7213887762d5229550c2b","41.122.132.69","Mozilla/5.0 (Windows NT 10.0; Win64; x64) AppleWebKit/537.36 (KHTML, like Gecko) Chrome/138.0.0.0 Safari/537.36","WebKit","Chrome","138.0.0.0","Windows","10.0","https://app.prolific.com/","en-US,en;q=0.9","678bad003d15e6aba1ee5a5d","683dba2a8a9dda3513610c04","6880e071bd263a7c36c29bd9","3","0","678bad003d15e6aba1ee5a5d","3","0","2025-07-23T13:43:11.561Z","","","","","","","","","","","MotivationQ","","50","","","","","","","","","","","","","","","","","","","","","","","","","","","","",""
"","","","","ctl-task-cpt","29","1209212","0.0-5.0-0.4","220","1","2025-07-23 13:23:34","1f75c3e559b7213887762d5229550c2b","41.122.132.69","Mozilla/5.0 (Windows NT 10.0; Win64; x64) AppleWebKit/537.36 (KHTML, like Gecko) Chrome/138.0.0.0 Safari/537.36","WebKit","Chrome","138.0.0.0","Windows","10.0","https://app.prolific.com/","en-US,en;q=0.9","678bad003d15e6aba1ee5a5d","683dba2a8a9dda3513610c04","6880e071bd263a7c36c29bd9","3","0","678bad003d15e6aba1ee5a5d","3","0","2025-07-23T13:43:48.221Z","","","","","","","","","","","","","","win-only","3","g1:SW,g2:NE","0.6","5","0","1177051.2","1379.5","6381.5","33625.9","1","4","4","6","2","4","4","17","13","0.12878787878787878","1286","3000","1160","[""up"",""right""]","{""num_key_presses"":6,""num_perfect"":6,""num_errors"":0,""num_randdir"":0,""num_randdir_good_moves"":0,""num_whilered"":0,""num_whileblue"":0,""num_blue"":3,""num_good_moves"":6}","[758.9285714285714,775.1785714285714,1.2,758.9285714285714,775.1785714285714,101.8,758.9285714285714,775.1785714285714,214.9,758.9285714285714,775.1785714285714,316,746.4285714285714,790.1785714285714,420,645.1785714285714,906.4285714285714,521,551.4285714285714,995.1785714285714,632.3,507.67857142857144,1027.6785714285713,733.9,658.9285714285714,761.4285714285714,836.2,1246.4285714285713,276.42857142857144,937,1431.4285714285713,176.42857142857142,1045.7,1417.6785714285713,160.17857142857142,1153.8,1415.1785714285713,160.17857142857142,1258,1411.4285714285713,160.17857142857142,1370.3,1408.9285714285713,160.17857142857142,1470.9,1247.6785714285713,262.67857142857144,1572.3,808.9285714285714,496.42857142857144,1677.4,680.1785714285714,527.6785714285714,1784.3,632.6785714285714,527.6785714285714,1886.8,1037.6785714285713,525.1785714285714,1991.1,1176.4285714285713,537.6785714285714,2096.2,1173.9285714285713,540.1785714285714,2200,1173.9285714285713,540.1785714285714,2313.5,1173.9285714285713,540.1785714285714,2417.2,1173.9285714285713,540.1785714285714,2520.9,1173.9285714285713,540.1785714285714,2622,1173.9285714285713,540.1785714285714,2735,1173.9285714285713,540.1785714285714,2837.1,1173.9285714285713,540.1785714285714,2941.4,1293.9285714285713,573.9285714285714,3049.6,1771.4285714285713,735.1785714285714,3151.1,1950.1785714285713,765.1785714285714,3252.1,1955.1785714285713,766.4285714285714,3358.2,2011.4285714285713,768.9285714285714,3466,2065.1785714285716,772.6785714285714,3567,2065.1785714285716,772.6785714285714,3667.3,2065.1785714285716,772.6785714285714,3768.1,2121.4285714285716,687.6785714285714,3873.3,2137.6785714285716,652.6785714285714,3980.4,2137.6785714285716,652.6785714285714,4082.5,2137.6785714285716,652.6785714285714,4185.4,2137.6785714285716,652.6785714285714,4287.5,2137.6785714285716,652.6785714285714,4391.5,2137.6785714285716,652.6785714285714,4499.2,2137.6785714285716,652.6785714285714,4600.8,2137.6785714285716,652.6785714285714,4701,2142.6785714285716,652.6785714285714,4801.9,2142.6785714285716,652.6785714285714,4906.9]","[1565.1,1565.1,1000,0,565.1,""smooth"",""right"",""right"",""good_move"",7833.9,6268.5,2068.8,5354.2,410.9,""smooth"",""right"",""right"",""good_move"",10863,3028.9,2537.5,7834.1,491.4,""smooth"",""right"",""right"",""good_move"",12923.5,2060.2,1593.8,10863.3,466.4,""smooth"",""up"",""up"",""good_move"",19882.6,6958.6,2783.9,16670.4,428.3,""smooth"",""up"",""up"",""good_move"",27107,7224.1,2911.4,23722.4,473.2,""smooth"",""up"",""up"",""good_move""]","",""
"79674","","<div style=""width:500px;"">
  <p>What determined the result of this run?</p>
  </div>","23","html-slider-response","30","1288889","0.0-5.0-1.4","220","1","2025-07-23 13:23:34","1f75c3e559b7213887762d5229550c2b","41.122.132.69","Mozilla/5.0 (Windows NT 10.0; Win64; x64) AppleWebKit/537.36 (KHTML, like Gecko) Chrome/138.0.0.0 Safari/537.36","WebKit","Chrome","138.0.0.0","Windows","10.0","https://app.prolific.com/","en-US,en;q=0.9","678bad003d15e6aba1ee5a5d","683dba2a8a9dda3513610c04","6880e071bd263a7c36c29bd9","3","0","678bad003d15e6aba1ee5a5d","3","0","2025-07-23T13:45:07.898Z","","","","","","","","","","","AttribQ","","50","","","","","","","","","","","","","","","","","","","","","","","","","","","","",""
"3193","","<div style=""width:500px;"">
  <p>How much control did you have over the ball?</p>
  </div>","33","html-slider-response","31","1292085","0.0-5.0-2.4","220","1","2025-07-23 13:23:34","1f75c3e559b7213887762d5229550c2b","41.122.132.69","Mozilla/5.0 (Windows NT 10.0; Win64; x64) AppleWebKit/537.36 (KHTML, like Gecko) Chrome/138.0.0.0 Safari/537.36","WebKit","Chrome","138.0.0.0","Windows","10.0","https://app.prolific.com/","en-US,en;q=0.9","678bad003d15e6aba1ee5a5d","683dba2a8a9dda3513610c04","6880e071bd263a7c36c29bd9","3","0","678bad003d15e6aba1ee5a5d","3","0","2025-07-23T13:45:11.094Z","","","","","","","","","","","ControlQ","","50","","","","","","","","","","","","","","","","","","","","","","","","","","","","",""
"3805","","<div style=""width:500px;"">
  <p>How would you describe your current emotional state?</p>
  </div>","37","html-slider-response","32","1295893","0.0-5.0-3.4","220","1","2025-07-23 13:23:34","1f75c3e559b7213887762d5229550c2b","41.122.132.69","Mozilla/5.0 (Windows NT 10.0; Win64; x64) AppleWebKit/537.36 (KHTML, like Gecko) Chrome/138.0.0.0 Safari/537.36","WebKit","Chrome","138.0.0.0","Windows","10.0","https://app.prolific.com/","en-US,en;q=0.9","678bad003d15e6aba1ee5a5d","683dba2a8a9dda3513610c04","6880e071bd263a7c36c29bd9","3","0","678bad003d15e6aba1ee5a5d","3","0","2025-07-23T13:45:14.902Z","","","","","","","","","","","StressQ","","50","","","","","","","","","","","","","","","","","","","","","","","","","","","","",""
"2166","","<div style=""width:500px;"">
  <p>What best describes how you currently feel?</p>
  </div>","57","html-slider-response","33","1298062","0.0-5.0-4.4","220","1","2025-07-23 13:23:34","1f75c3e559b7213887762d5229550c2b","41.122.132.69","Mozilla/5.0 (Windows NT 10.0; Win64; x64) AppleWebKit/537.36 (KHTML, like Gecko) Chrome/138.0.0.0 Safari/537.36","WebKit","Chrome","138.0.0.0","Windows","10.0","https://app.prolific.com/","en-US,en;q=0.9","678bad003d15e6aba1ee5a5d","683dba2a8a9dda3513610c04","6880e071bd263a7c36c29bd9","3","0","678bad003d15e6aba1ee5a5d","3","0","2025-07-23T13:45:17.071Z","","","","","","","","","","","MotivationQ","","50","","","","","","","","","","","","","","","","","","","","","","","","","","","","",""
"","","","","ctl-task-cpt","34","1351585","0.0-5.0-0.5","220","1","2025-07-23 13:23:34","1f75c3e559b7213887762d5229550c2b","41.122.132.69","Mozilla/5.0 (Windows NT 10.0; Win64; x64) AppleWebKit/537.36 (KHTML, like Gecko) Chrome/138.0.0.0 Safari/537.36","WebKit","Chrome","138.0.0.0","Windows","10.0","https://app.prolific.com/","en-US,en;q=0.9","678bad003d15e6aba1ee5a5d","683dba2a8a9dda3513610c04","6880e071bd263a7c36c29bd9","3","0","678bad003d15e6aba1ee5a5d","3","0","2025-07-23T13:46:10.594Z","","","","","","","","","","","","","","win-only","0","g1:NW,g2:SE","0.5","6","0","1302564.2","1104.4","6108.3","50496.3","1","4","8","6","2","8","8","25","17","0.1893939393939394","1133.9","3000","50","[""down"",""right""]","{""num_key_presses"":12,""num_perfect"":7,""num_errors"":0,""num_randdir"":5,""num_randdir_good_moves"":2,""num_whilered"":0,""num_whileblue"":0,""num_blue"":3,""num_good_moves"":9}","[766.4285714285714,781.4285714285714,0.2,766.4285714285714,781.4285714285714,101.6,766.4285714285714,781.4285714285714,213.6,766.4285714285714,781.4285714285714,314.2,696.4285714285714,823.9285714285714,416.3,836.4285714285714,920.1785714285714,520.3,1091.4285714285713,1027.6785714285713,621.7,1181.4285714285713,1096.4285714285713,722,1207.6785714285713,1165.1785714285713,833.3,1258.9285714285713,1252.6785714285713,935.3,1361.4285714285713,1312.6785714285713,1039.9,1362.6785714285713,1313.9285714285713,1141.2,1363.9285714285713,1313.9285714285713,1243.9,1363.9285714285713,1308.9285714285713,1360.1,1306.4285714285713,1287.6785714285713,1469.1,658.9285714285714,1071.4285714285713,1582.7,76.42857142857142,907.6785714285714,1686.5,-533.5714285714286,992.6785714285714,1789.4,-522.3214285714286,1013.9285714285714,1906.2,-383.57142857142856,1055.1785714285713,2007.4,-383.57142857142856,1055.1785714285713,2115.7,-544.8214285714286,980.1785714285714,2216,-548.5714285714286,978.9285714285714,2326.9,-548.5714285714286,978.9285714285714,2430.9,-548.5714285714286,978.9285714285714,2531.7,-548.5714285714286,978.9285714285714,2636.9,-548.5714285714286,978.9285714285714,2742.3,-548.5714285714286,978.9285714285714,2859.6,-548.5714285714286,978.9285714285714,2960.9,-548.5714285714286,978.9285714285714,3061.6,221.42857142857142,1272.6785714285713,3168,862.6785714285714,1497.6785714285713,3276.7,1430.1785714285713,1492.6785714285713,3377,1441.4285714285713,1491.4285714285713,3482,1441.4285714285713,1491.4285714285713,3582.2,1441.4285714285713,1491.4285714285713,3685.6,1441.4285714285713,1491.4285714285713,3790.7,1441.4285714285713,1491.4285714285713,3904.9,1441.4285714285713,1491.4285714285713,4006.9,1441.4285714285713,1491.4285714285713,4124.8,2270.1785714285716,1736.4285714285713,4225.7,2270.1785714285716,1601.4285714285713,4328,2187.6785714285716,1207.6785714285713,4442.8,1716.4285714285713,567.6785714285714,4542.8,1621.4285714285713,442.67857142857144,4644.4,1851.4285714285713,546.4285714285714,4761.9,1851.4285714285713,547.6785714285714,4878,1851.4285714285713,547.6785714285714,4988.8]","[1603.1,1603.1,1000,0,603.1,""oops"",""right"",""left"",""bad_move"",7691.4,6087.3,2234.7,4822.5,634.2,""smooth"",""down"",""down"",""good_move"",11309.3,3617.4,3155,7691.9,462.4,""smooth"",""down"",""down"",""good_move"",14426.3,3116.8,2648.5,11309.6,468.2,""oops"",""down"",""down"",""good_move"",17624.2,3197.6,2788.7,14426.6,409,""oops"",""right"",""right"",""good_move"",20011.6,2386.8,1940.8,17624.8,446,""oops"",""right"",""left"",""bad_move"",22404.6,2392.4,2011.2,20012.2,381.2,""oops"",""right"",""left"",""bad_move"",25430.1,3025.3,2668.1,22404.9,357.2,""smooth"",""right"",""right"",""good_move"",35236.9,9806.2,2761.4,32053.4,422.1,""smooth"",""right"",""right"",""good_move"",38051.2,2814.1,2179.6,35237.1,634.5,""smooth"",""right"",""right"",""good_move"",40965.7,2914.4,2516.2,38051.3,398.2,""smooth"",""right"",""right"",""good_move"",44211.3,3245.3,2834.5,40966,410.8,""smooth"",""right"",""right"",""good_move""]","",""
"67712","","<div style=""width:500px;"">
  <p>What determined the result of this run?</p>
  </div>","36","html-slider-response","35","1419300","0.0-5.0-1.5","220","1","2025-07-23 13:23:34","1f75c3e559b7213887762d5229550c2b","41.122.132.69","Mozilla/5.0 (Windows NT 10.0; Win64; x64) AppleWebKit/537.36 (KHTML, like Gecko) Chrome/138.0.0.0 Safari/537.36","WebKit","Chrome","138.0.0.0","Windows","10.0","https://app.prolific.com/","en-US,en;q=0.9","678bad003d15e6aba1ee5a5d","683dba2a8a9dda3513610c04","6880e071bd263a7c36c29bd9","3","0","678bad003d15e6aba1ee5a5d","3","0","2025-07-23T13:47:18.309Z","","","","","","","","","","","AttribQ","","50","","","","","","","","","","","","","","","","","","","","","","","","","","","","",""
"2108","","<div style=""width:500px;"">
  <p>How much control did you have over the ball?</p>
  </div>","62","html-slider-response","36","1421413","0.0-5.0-2.5","220","1","2025-07-23 13:23:34","1f75c3e559b7213887762d5229550c2b","41.122.132.69","Mozilla/5.0 (Windows NT 10.0; Win64; x64) AppleWebKit/537.36 (KHTML, like Gecko) Chrome/138.0.0.0 Safari/537.36","WebKit","Chrome","138.0.0.0","Windows","10.0","https://app.prolific.com/","en-US,en;q=0.9","678bad003d15e6aba1ee5a5d","683dba2a8a9dda3513610c04","6880e071bd263a7c36c29bd9","3","0","678bad003d15e6aba1ee5a5d","3","0","2025-07-23T13:47:20.422Z","","","","","","","","","","","ControlQ","","50","","","","","","","","","","","","","","","","","","","","","","","","","","","","",""
"3248","","<div style=""width:500px;"">
  <p>How would you describe your current emotional state?</p>
  </div>","36","html-slider-response","37","1424665","0.0-5.0-3.5","220","1","2025-07-23 13:23:34","1f75c3e559b7213887762d5229550c2b","41.122.132.69","Mozilla/5.0 (Windows NT 10.0; Win64; x64) AppleWebKit/537.36 (KHTML, like Gecko) Chrome/138.0.0.0 Safari/537.36","WebKit","Chrome","138.0.0.0","Windows","10.0","https://app.prolific.com/","en-US,en;q=0.9","678bad003d15e6aba1ee5a5d","683dba2a8a9dda3513610c04","6880e071bd263a7c36c29bd9","3","0","678bad003d15e6aba1ee5a5d","3","0","2025-07-23T13:47:23.674Z","","","","","","","","","","","StressQ","","50","","","","","","","","","","","","","","","","","","","","","","","","","","","","",""
"3218","","<div style=""width:500px;"">
  <p>What best describes how you currently feel?</p>
  </div>","59","html-slider-response","38","1427885","0.0-5.0-4.5","220","1","2025-07-23 13:23:34","1f75c3e559b7213887762d5229550c2b","41.122.132.69","Mozilla/5.0 (Windows NT 10.0; Win64; x64) AppleWebKit/537.36 (KHTML, like Gecko) Chrome/138.0.0.0 Safari/537.36","WebKit","Chrome","138.0.0.0","Windows","10.0","https://app.prolific.com/","en-US,en;q=0.9","678bad003d15e6aba1ee5a5d","683dba2a8a9dda3513610c04","6880e071bd263a7c36c29bd9","3","0","678bad003d15e6aba1ee5a5d","3","0","2025-07-23T13:47:26.895Z","","","","","","","","","","","MotivationQ","","50","","","","","","","","","","","","","","","","","","","","","","","","","","","","",""
"","","","","ctl-task-cpt","39","1475536","0.0-5.0-0.6","220","1","2025-07-23 13:23:34","1f75c3e559b7213887762d5229550c2b","41.122.132.69","Mozilla/5.0 (Windows NT 10.0; Win64; x64) AppleWebKit/537.36 (KHTML, like Gecko) Chrome/138.0.0.0 Safari/537.36","WebKit","Chrome","138.0.0.0","Windows","10.0","https://app.prolific.com/","en-US,en;q=0.9","678bad003d15e6aba1ee5a5d","683dba2a8a9dda3513610c04","6880e071bd263a7c36c29bd9","3","0","678bad003d15e6aba1ee5a5d","3","0","2025-07-23T13:48:14.545Z","","","","","","","","","","","","","","win-only","0","g1:NW,g2:SE","0.4","7","0","1432386.6","1435.7","6442.6","44627.6","1","4","8","6","2","-8","-8","17","25","0.12878787878787878","1202.7","3000","-1555","[""down"",""right""]","{""num_key_presses"":13,""num_perfect"":6,""num_errors"":0,""num_randdir"":7,""num_randdir_good_moves"":3,""num_whilered"":0,""num_whileblue"":0,""num_blue"":0,""num_good_moves"":9}","[785.1785714285714,766.4285714285714,0.2,785.1785714285714,766.4285714285714,107.5,785.1785714285714,766.4285714285714,214.6,788.9285714285714,787.6785714285714,318.4,818.9285714285714,896.4285714285714,423,872.6785714285714,1006.4285714285714,523.2,1103.9285714285713,1175.1785714285713,628,1191.4285714285713,1266.4285714285713,750.7,1250.1785714285713,1335.1785714285713,853.6,1287.6785714285713,1345.1785714285713,957.5,1341.4285714285713,1355.1785714285713,1057.5,1421.4285714285713,1373.9285714285713,1158.1,1421.4285714285713,1373.9285714285713,1277.8,1427.6785714285713,1372.6785714285713,1383.5,1547.6785714285713,1316.4285714285713,1488.1,1547.6785714285713,1316.4285714285713,1588.4,1547.6785714285713,1316.4285714285713,1695.5,1547.6785714285713,1316.4285714285713,1798.2,1547.6785714285713,1316.4285714285713,1912.2,1547.6785714285713,1316.4285714285713,2013.9,1547.6785714285713,1316.4285714285713,2115.3,1547.6785714285713,1316.4285714285713,2221.4,1547.6785714285713,1316.4285714285713,2323.7,1547.6785714285713,1316.4285714285713,2429.8,1547.6785714285713,1316.4285714285713,2531.4,1547.6785714285713,1316.4285714285713,2636.2,1547.6785714285713,1316.4285714285713,2736.6,1547.6785714285713,1316.4285714285713,2841.4,1547.6785714285713,1316.4285714285713,2950.3,1547.6785714285713,1316.4285714285713,3051.2,1601.4285714285713,1282.6785714285713,3160,1680.1785714285713,1232.6785714285713,3267.8,1680.1785714285713,1232.6785714285713,3376.8,1682.6785714285713,1231.4285714285713,3482.4,1690.1785714285713,1225.1785714285713,3599.9,1690.1785714285713,1225.1785714285713,3714.6,1691.4285714285713,1225.1785714285713,3817.7,1701.4285714285713,1225.1785714285713,3922.2,1701.4285714285713,1225.1785714285713,4040.7,1703.9285714285713,1225.1785714285713,4142.3,1712.6785714285713,1225.1785714285713,4247.3,1715.1785714285713,1225.1785714285713,4355.6,1722.6785714285713,1220.1785714285713,4456.2,1731.4285714285713,1217.6785714285713,4570.1,1735.1785714285713,1217.6785714285713,4679.7,1735.1785714285713,1217.6785714285713,4781.1,1736.4285714285713,1217.6785714285713,4901.6]","[1519.2,1519.3,1000,0,519.3,""smooth"",""right"",""right"",""good_move"",4057.1,2537.1,2073.2,1520,463.9,""oops"",""right"",""left"",""bad_move"",7047.3,2989.6,2644,4057.7,345.6,""oops"",""right"",""right"",""good_move"",10326.3,3278.7,2837.1,7047.6,441.6,""oops"",""right"",""left"",""bad_move"",13335.7,3009.3,2544.3,10326.6,464.9,""oops"",""down"",""left"",""bad_move"",16174.2,2838,2446.4,13336.2,391.6,""oops"",""right"",""right"",""good_move"",18855,2680.4,2288.6,16174.6,391.8,""smooth"",""right"",""right"",""good_move"",21822.4,2967.1,2602.9,18855.3,364.2,""smooth"",""right"",""right"",""good_move"",24671.5,2849,2453.9,21822.6,395.1,""smooth"",""right"",""right"",""good_move"",27433.4,2761.3,2228.3,24672.2,532.9,""oops"",""down"",""up"",""bad_move"",30002.4,2567.9,2039,27434.5,528.9,""oops"",""down"",""down"",""good_move"",33419.9,3416.2,3032.4,30003.7,383.8,""smooth"",""down"",""down"",""good_move"",35873.7,2452.9,2017.8,33420.9,435,""smooth"",""down"",""down"",""good_move""]","",""
"758264","","<div style=""width:500px;"">
  <p>What determined the result of this run?</p>
  </div>","74","html-slider-response","40","2233804","0.0-5.0-1.6","220","1","2025-07-23 13:23:34","1f75c3e559b7213887762d5229550c2b","41.122.132.69","Mozilla/5.0 (Windows NT 10.0; Win64; x64) AppleWebKit/537.36 (KHTML, like Gecko) Chrome/138.0.0.0 Safari/537.36","WebKit","Chrome","138.0.0.0","Windows","10.0","https://app.prolific.com/","en-US,en;q=0.9","678bad003d15e6aba1ee5a5d","683dba2a8a9dda3513610c04","6880e071bd263a7c36c29bd9","3","0","678bad003d15e6aba1ee5a5d","3","0","2025-07-23T14:00:52.813Z","","","","","","","","","","","AttribQ","","50","","","","","","","","","","","","","","","","","","","","","","","","","","","","",""
"1551","","<div style=""width:500px;"">
  <p>How much control did you have over the ball?</p>
  </div>","60","html-slider-response","41","2235358","0.0-5.0-2.6","220","1","2025-07-23 13:23:34","1f75c3e559b7213887762d5229550c2b","41.122.132.69","Mozilla/5.0 (Windows NT 10.0; Win64; x64) AppleWebKit/537.36 (KHTML, like Gecko) Chrome/138.0.0.0 Safari/537.36","WebKit","Chrome","138.0.0.0","Windows","10.0","https://app.prolific.com/","en-US,en;q=0.9","678bad003d15e6aba1ee5a5d","683dba2a8a9dda3513610c04","6880e071bd263a7c36c29bd9","3","0","678bad003d15e6aba1ee5a5d","3","0","2025-07-23T14:00:54.368Z","","","","","","","","","","","ControlQ","","50","","","","","","","","","","","","","","","","","","","","","","","","","","","","",""
"5143","","<div style=""width:500px;"">
  <p>How would you describe your current emotional state?</p>
  </div>","35","html-slider-response","42","2240505","0.0-5.0-3.6","220","1","2025-07-23 13:23:34","1f75c3e559b7213887762d5229550c2b","41.122.132.69","Mozilla/5.0 (Windows NT 10.0; Win64; x64) AppleWebKit/537.36 (KHTML, like Gecko) Chrome/138.0.0.0 Safari/537.36","WebKit","Chrome","138.0.0.0","Windows","10.0","https://app.prolific.com/","en-US,en;q=0.9","678bad003d15e6aba1ee5a5d","683dba2a8a9dda3513610c04","6880e071bd263a7c36c29bd9","3","0","678bad003d15e6aba1ee5a5d","3","0","2025-07-23T14:00:59.514Z","","","","","","","","","","","StressQ","","50","","","","","","","","","","","","","","","","","","","","","","","","","","","","",""
"3336","","<div style=""width:500px;"">
  <p>What best describes how you currently feel?</p>
  </div>","66","html-slider-response","43","2243843","0.0-5.0-4.6","220","1","2025-07-23 13:23:34","1f75c3e559b7213887762d5229550c2b","41.122.132.69","Mozilla/5.0 (Windows NT 10.0; Win64; x64) AppleWebKit/537.36 (KHTML, like Gecko) Chrome/138.0.0.0 Safari/537.36","WebKit","Chrome","138.0.0.0","Windows","10.0","https://app.prolific.com/","en-US,en;q=0.9","678bad003d15e6aba1ee5a5d","683dba2a8a9dda3513610c04","6880e071bd263a7c36c29bd9","3","0","678bad003d15e6aba1ee5a5d","3","0","2025-07-23T14:01:02.853Z","","","","","","","","","","","MotivationQ","","50","","","","","","","","","","","","","","","","","","","","","","","","","","","","",""
"","","","","ctl-task-cpt","44","2275174","0.0-5.0-0.7","220","1","2025-07-23 13:23:34","1f75c3e559b7213887762d5229550c2b","41.122.132.69","Mozilla/5.0 (Windows NT 10.0; Win64; x64) AppleWebKit/537.36 (KHTML, like Gecko) Chrome/138.0.0.0 Safari/537.36","WebKit","Chrome","138.0.0.0","Windows","10.0","https://app.prolific.com/","en-US,en;q=0.9","678bad003d15e6aba1ee5a5d","683dba2a8a9dda3513610c04","6880e071bd263a7c36c29bd9","3","0","678bad003d15e6aba1ee5a5d","3","0","2025-07-23T14:01:34.183Z","","","","","","","","","","","","","","win-only","3","g1:SW,g2:NE","0.3","8","0","2248343.6","1386.8","6397.2","28275.4","1","4","4","6","2","-4","-4","13","17","0.09848484848484848","1418.9","3000","-1335","[""up"",""right""]","{""num_key_presses"":6,""num_perfect"":1,""num_errors"":0,""num_randdir"":5,""num_randdir_good_moves"":4,""num_whilered"":0,""num_whileblue"":0,""num_blue"":0,""num_good_moves"":5}","[781.4285714285714,772.6785714285714,0.3,781.4285714285714,772.6785714285714,109,783.9285714285714,772.6785714285714,233,786.4285714285714,792.6785714285714,334.6,675.1785714285714,891.4285714285714,439.1,666.4285714285714,953.9285714285714,553.9,796.4285714285714,922.6785714285714,657.2,1042.6785714285713,510.17857142857144,763.2,1086.4285714285713,446.42857142857144,872.3,1203.9285714285713,376.42857142857144,981.7,1320.1785714285713,283.92857142857144,1089.3,1347.6785714285713,213.92857142857142,1203.5,1367.6785714285713,188.92857142857142,1304.1,1393.9285714285713,157.67857142857142,1404.1,1393.9285714285713,157.67857142857142,1512.1,1395.1785714285713,168.92857142857142,1617.4,1392.6785714285713,178.92857142857142,1724.4,1392.6785714285713,178.92857142857142,1825,1392.6785714285713,178.92857142857142,1925.7,1392.6785714285713,178.92857142857142,2028.7,1392.6785714285713,178.92857142857142,2129.5,1392.6785714285713,178.92857142857142,2230.7,1392.6785714285713,178.92857142857142,2342,1392.6785714285713,178.92857142857142,2459,1392.6785714285713,178.92857142857142,2561.5,1392.6785714285713,178.92857142857142,2662.7,1392.6785714285713,178.92857142857142,2763.7,1392.6785714285713,178.92857142857142,2880.4,1392.6785714285713,178.92857142857142,2987.2,1392.6785714285713,178.92857142857142,3088.1,1392.6785714285713,178.92857142857142,3189.7,1392.6785714285713,178.92857142857142,3291.3,1392.6785714285713,178.92857142857142,3394.2,1392.6785714285713,178.92857142857142,3495.2,1392.6785714285713,178.92857142857142,3596.6,1392.6785714285713,178.92857142857142,3699.2,1392.6785714285713,178.92857142857142,3803.9,1392.6785714285713,178.92857142857142,3908.2,1392.6785714285713,178.92857142857142,4028.5,1392.6785714285713,178.92857142857142,4129.5,1392.6785714285713,178.92857142857142,4231.8,1392.6785714285713,178.92857142857142,4335,1392.6785714285713,178.92857142857142,4437.6,1392.6785714285713,178.92857142857142,4543.3,1392.6785714285713,178.92857142857142,4658.4,1392.6785714285713,178.92857142857142,4761,1392.6785714285713,178.92857142857142,4869.9,1392.6785714285713,178.92857142857142,4981.6]","[4075.8,4075.8,1000,0,3075.8,""oops"",""right"",""up"",""good_move"",7858.4,3782.1,3108.8,4076.3,673.3,""oops"",""right"",""left"",""bad_move"",10943,3083.8,2643.8,7859.2,440,""smooth"",""up"",""up"",""good_move"",14208,3264.7,2943.8,10943.3,320.9,""oops"",""right"",""right"",""good_move"",16721,2512.6,2131.5,14208.4,381.1,""oops"",""right"",""right"",""good_move"",19631.6,2910.1,2522.4,16721.5,387.7,""oops"",""right"",""up"",""good_move""]","",""
"28824","","<div style=""width:500px;"">
  <p>What determined the result of this run?</p>
  </div>","68","html-slider-response","45","2304002","0.0-5.0-1.7","220","1","2025-07-23 13:23:34","1f75c3e559b7213887762d5229550c2b","41.122.132.69","Mozilla/5.0 (Windows NT 10.0; Win64; x64) AppleWebKit/537.36 (KHTML, like Gecko) Chrome/138.0.0.0 Safari/537.36","WebKit","Chrome","138.0.0.0","Windows","10.0","https://app.prolific.com/","en-US,en;q=0.9","678bad003d15e6aba1ee5a5d","683dba2a8a9dda3513610c04","6880e071bd263a7c36c29bd9","3","0","678bad003d15e6aba1ee5a5d","3","0","2025-07-23T14:02:03.011Z","","","","","","","","","","","AttribQ","","50","","","","","","","","","","","","","","","","","","","","","","","","","","","","",""
"1560","","<div style=""width:500px;"">
  <p>How much control did you have over the ball?</p>
  </div>","42","html-slider-response","46","2305567","0.0-5.0-2.7","220","1","2025-07-23 13:23:34","1f75c3e559b7213887762d5229550c2b","41.122.132.69","Mozilla/5.0 (Windows NT 10.0; Win64; x64) AppleWebKit/537.36 (KHTML, like Gecko) Chrome/138.0.0.0 Safari/537.36","WebKit","Chrome","138.0.0.0","Windows","10.0","https://app.prolific.com/","en-US,en;q=0.9","678bad003d15e6aba1ee5a5d","683dba2a8a9dda3513610c04","6880e071bd263a7c36c29bd9","3","0","678bad003d15e6aba1ee5a5d","3","0","2025-07-23T14:02:04.576Z","","","","","","","","","","","ControlQ","","50","","","","","","","","","","","","","","","","","","","","","","","","","","","","",""
"3616","","<div style=""width:500px;"">
  <p>How would you describe your current emotional state?</p>
  </div>","38","html-slider-response","47","2309185","0.0-5.0-3.7","220","1","2025-07-23 13:23:34","1f75c3e559b7213887762d5229550c2b","41.122.132.69","Mozilla/5.0 (Windows NT 10.0; Win64; x64) AppleWebKit/537.36 (KHTML, like Gecko) Chrome/138.0.0.0 Safari/537.36","WebKit","Chrome","138.0.0.0","Windows","10.0","https://app.prolific.com/","en-US,en;q=0.9","678bad003d15e6aba1ee5a5d","683dba2a8a9dda3513610c04","6880e071bd263a7c36c29bd9","3","0","678bad003d15e6aba1ee5a5d","3","0","2025-07-23T14:02:08.194Z","","","","","","","","","","","StressQ","","50","","","","","","","","","","","","","","","","","","","","","","","","","","","","",""
"3495","","<div style=""width:500px;"">
  <p>What best describes how you currently feel?</p>
  </div>","62","html-slider-response","48","2312682","0.0-5.0-4.7","220","1","2025-07-23 13:23:34","1f75c3e559b7213887762d5229550c2b","41.122.132.69","Mozilla/5.0 (Windows NT 10.0; Win64; x64) AppleWebKit/537.36 (KHTML, like Gecko) Chrome/138.0.0.0 Safari/537.36","WebKit","Chrome","138.0.0.0","Windows","10.0","https://app.prolific.com/","en-US,en;q=0.9","678bad003d15e6aba1ee5a5d","683dba2a8a9dda3513610c04","6880e071bd263a7c36c29bd9","3","0","678bad003d15e6aba1ee5a5d","3","0","2025-07-23T14:02:11.691Z","","","","","","","","","","","MotivationQ","","50","","","","","","","","","","","","","","","","","","","","","","","","","","","","",""
"","","","","ctl-task-cpt","49","2376834","0.0-5.0-0.8","220","1","2025-07-23 13:23:34","1f75c3e559b7213887762d5229550c2b","41.122.132.69","Mozilla/5.0 (Windows NT 10.0; Win64; x64) AppleWebKit/537.36 (KHTML, like Gecko) Chrome/138.0.0.0 Safari/537.36","WebKit","Chrome","138.0.0.0","Windows","10.0","https://app.prolific.com/","en-US,en;q=0.9","678bad003d15e6aba1ee5a5d","683dba2a8a9dda3513610c04","6880e071bd263a7c36c29bd9","3","0","678bad003d15e6aba1ee5a5d","3","0","2025-07-23T14:03:15.844Z","","","","","","","","","","","","","","win-only","0","g1:NW,g2:SE","0.2","9","0","2317182.4","828.4","5834","61118.6","1","4","4","6","2","-4","-6","7","13","0.05303030303030303","1889.9","3000","-1690","[""down"",""right""]","{""num_key_presses"":13,""num_perfect"":3,""num_errors"":2,""num_randdir"":8,""num_randdir_good_moves"":4,""num_whilered"":0,""num_whileblue"":1,""num_blue"":5,""num_good_moves"":7}","[765.1785714285714,783.9285714285714,0.4,765.1785714285714,783.9285714285714,100.9,765.1785714285714,783.9285714285714,203.1,765.1785714285714,783.9285714285714,325.3,732.6785714285714,725.1785714285714,440.2,676.4285714285714,646.4285714285714,563.9,671.4285714285714,628.9285714285714,670.9,668.9285714285714,661.4285714285714,774.3,632.6785714285714,685.1785714285714,878.5,551.4285714285714,587.6785714285714,979.7,583.9285714285714,576.4285714285714,1084,862.6785714285714,778.9285714285714,1194.3,1202.6785714285713,1093.9285714285713,1309.6,1242.6785714285713,1136.4285714285713,1412.1,1332.6785714285713,1266.4285714285713,1513.6,1328.9285714285713,1276.4285714285713,1623.2,1343.9285714285713,1283.9285714285713,1730,1368.9285714285713,1307.6785714285713,1835,1382.6785714285713,1317.6785714285713,1935.2,1383.9285714285713,1318.9285714285713,2046.2,1383.9285714285713,1318.9285714285713,2155.4,1392.6785714285713,1316.4285714285713,2266.4,1455.1785714285713,1297.6785714285713,2366.5,1475.1785714285713,1252.6785714285713,2469.7,1475.1785714285713,1252.6785714285713,2575.7,1475.1785714285713,1252.6785714285713,2677.6,1475.1785714285713,1252.6785714285713,2781.6,1475.1785714285713,1252.6785714285713,2883,1475.1785714285713,1252.6785714285713,2993.8,1475.1785714285713,1252.6785714285713,3094.2,1475.1785714285713,1252.6785714285713,3204.6,1475.1785714285713,1252.6785714285713,3314.4,1475.1785714285713,1252.6785714285713,3415.5,1475.1785714285713,1252.6785714285713,3519,1475.1785714285713,1252.6785714285713,3619.5,1475.1785714285713,1252.6785714285713,3729.3,1475.1785714285713,1252.6785714285713,3833.7,1475.1785714285713,1252.6785714285713,3940.2,1475.1785714285713,1252.6785714285713,4042.9,1475.1785714285713,1252.6785714285713,4143.4,1475.1785714285713,1252.6785714285713,4247.3,1475.1785714285713,1252.6785714285713,4373.2,1475.1785714285713,1252.6785714285713,4475.9,1475.1785714285713,1252.6785714285713,4579.2,1475.1785714285713,1252.6785714285713,4682.8,1475.1785714285713,1252.6785714285713,4789.7,1475.1785714285713,1252.6785714285713,4895.8]","[1573.5,1573.5,1000,0,573.5,""smooth"",""right"",""right"",""good_move"",4832.1,3257.9,2492.4,1574.2,765.5,""oops"",""right"",""right"",""good_move"",7687,2854.5,2426.3,4832.5,428.2,""oops"",""right"",""up"",""bad_move"",10765.9,3078.5,2661.8,7687.4,416.7,""oops"",""right"",""up"",""bad_move"",13981.5,3215.1,2742.8,10766.4,472.3,""smooth"",""down"",""down"",""good_move"",17093,3110.9,2645.5,13982.3,465.3,""oops"",""down"",""down"",""good_move"",20094.3,3000.8,2360.6,17093.5,640.3,""oops"",""down"",""left"",""bad_move"",22974.1,2879,2423.1,20095.1,455.9,""oops"",""down"",""right"",""good_move"",26524.8,3549.5,3140.1,22975.3,409.4,""while_blue"",""right"",""left"",""bad_move"",31590.6,5065.6,2244.2,29952.4,-605.9,""error"",""-"",""-"",""no_move"",36094.1,4503,2846.3,32591.6,656.2,""oops"",""down"",""down"",""good_move"",49279.8,13185.2,2615.2,46148.7,515.9,""oops"",""down"",""up"",""bad_move"",53055,3775,3180.9,49280.1,594.1,""smooth"",""down"",""down"",""good_move""]","",""
"262045","","<div style=""width:500px;"">
  <p>What determined the result of this run?</p>
  </div>","78","html-slider-response","50","2638883","0.0-5.0-1.8","220","1","2025-07-23 13:23:34","1f75c3e559b7213887762d5229550c2b","41.122.132.69","Mozilla/5.0 (Windows NT 10.0; Win64; x64) AppleWebKit/537.36 (KHTML, like Gecko) Chrome/138.0.0.0 Safari/537.36","WebKit","Chrome","138.0.0.0","Windows","10.0","https://app.prolific.com/","en-US,en;q=0.9","678bad003d15e6aba1ee5a5d","683dba2a8a9dda3513610c04","6880e071bd263a7c36c29bd9","3","0","678bad003d15e6aba1ee5a5d","3","0","2025-07-23T14:07:37.892Z","","","","","","","","","","","AttribQ","","50","","","","","","","","","","","","","","","","","","","","","","","","","","","","",""
"1550","","<div style=""width:500px;"">
  <p>How much control did you have over the ball?</p>
  </div>","37","html-slider-response","51","2640438","0.0-5.0-2.8","220","1","2025-07-23 13:23:34","1f75c3e559b7213887762d5229550c2b","41.122.132.69","Mozilla/5.0 (Windows NT 10.0; Win64; x64) AppleWebKit/537.36 (KHTML, like Gecko) Chrome/138.0.0.0 Safari/537.36","WebKit","Chrome","138.0.0.0","Windows","10.0","https://app.prolific.com/","en-US,en;q=0.9","678bad003d15e6aba1ee5a5d","683dba2a8a9dda3513610c04","6880e071bd263a7c36c29bd9","3","0","678bad003d15e6aba1ee5a5d","3","0","2025-07-23T14:07:39.447Z","","","","","","","","","","","ControlQ","","50","","","","","","","","","","","","","","","","","","","","","","","","","","","","",""
"4989","","<div style=""width:500px;"">
  <p>How would you describe your current emotional state?</p>
  </div>","36","html-slider-response","52","2645433","0.0-5.0-3.8","220","1","2025-07-23 13:23:34","1f75c3e559b7213887762d5229550c2b","41.122.132.69","Mozilla/5.0 (Windows NT 10.0; Win64; x64) AppleWebKit/537.36 (KHTML, like Gecko) Chrome/138.0.0.0 Safari/537.36","WebKit","Chrome","138.0.0.0","Windows","10.0","https://app.prolific.com/","en-US,en;q=0.9","678bad003d15e6aba1ee5a5d","683dba2a8a9dda3513610c04","6880e071bd263a7c36c29bd9","3","0","678bad003d15e6aba1ee5a5d","3","0","2025-07-23T14:07:44.442Z","","","","","","","","","","","StressQ","","50","","","","","","","","","","","","","","","","","","","","","","","","","","","","",""
"1727","","<div style=""width:500px;"">
  <p>What best describes how you currently feel?</p>
  </div>","35","html-slider-response","53","2647163","0.0-5.0-4.8","220","1","2025-07-23 13:23:34","1f75c3e559b7213887762d5229550c2b","41.122.132.69","Mozilla/5.0 (Windows NT 10.0; Win64; x64) AppleWebKit/537.36 (KHTML, like Gecko) Chrome/138.0.0.0 Safari/537.36","WebKit","Chrome","138.0.0.0","Windows","10.0","https://app.prolific.com/","en-US,en;q=0.9","678bad003d15e6aba1ee5a5d","683dba2a8a9dda3513610c04","6880e071bd263a7c36c29bd9","3","0","678bad003d15e6aba1ee5a5d","3","0","2025-07-23T14:07:46.172Z","","","","","","","","","","","MotivationQ","","50","","","","","","","","","","","","","","","","","","","","","","","","","","","","",""
"","","","","ctl-task-cpt","54","2683714","0.0-5.0-0.9","220","1","2025-07-23 13:23:34","1f75c3e559b7213887762d5229550c2b","41.122.132.69","Mozilla/5.0 (Windows NT 10.0; Win64; x64) AppleWebKit/537.36 (KHTML, like Gecko) Chrome/138.0.0.0 Safari/537.36","WebKit","Chrome","138.0.0.0","Windows","10.0","https://app.prolific.com/","en-US,en;q=0.9","678bad003d15e6aba1ee5a5d","683dba2a8a9dda3513610c04","6880e071bd263a7c36c29bd9","3","0","678bad003d15e6aba1ee5a5d","3","0","2025-07-23T14:08:22.723Z","","","","","","","","","","","","","","win-only","2","g1:SE,g2:NW","0.4","10","0","2651664.9","884.9","5888.8","33520.2","1","4","8","6","2","-8","-10","0","7","0","1556.3","3000","-1370","[""left"",""up""]","{""num_key_presses"":9,""num_perfect"":2,""num_errors"":2,""num_randdir"":5,""num_randdir_good_moves"":2,""num_whilered"":0,""num_whileblue"":1,""num_blue"":1,""num_good_moves"":5}","[752.6785714285714,772.6785714285714,0.6,753.9285714285714,772.6785714285714,105.9,753.9285714285714,772.6785714285714,209.9,753.9285714285714,772.6785714285714,314,755.1785714285714,701.4285714285714,417,856.4285714285714,456.42857142857144,524.1,896.4285714285714,391.42857142857144,630.3,778.9285714285714,430.17857142857144,737,762.6785714285714,506.42857142857144,846.5,861.4285714285714,732.6785714285714,948,747.6785714285714,758.9285714285714,1060.8,243.92857142857142,292.67857142857144,1171.8,182.67857142857142,212.67857142857142,1278.3,200.17857142857142,212.67857142857142,1383.3,191.42857142857142,196.42857142857142,1514.2,190.17857142857142,195.17857142857142,1620.6,188.92857142857142,195.17857142857142,1729.5,231.42857142857142,247.67857142857142,1834.9,423.92857142857144,503.92857142857144,1935.7,590.1785714285714,720.1785714285714,2041.3,723.9285714285714,773.9285714285714,2146.7,765.1785714285714,781.4285714285714,2255.4,765.1785714285714,781.4285714285714,2359.1,765.1785714285714,781.4285714285714,2463.2,765.1785714285714,781.4285714285714,2571.8,765.1785714285714,781.4285714285714,2678.9,765.1785714285714,781.4285714285714,2787.3,765.1785714285714,781.4285714285714,2897.1,765.1785714285714,781.4285714285714,3007,765.1785714285714,781.4285714285714,3114.5,765.1785714285714,781.4285714285714,3226.4,765.1785714285714,781.4285714285714,3343.7,765.1785714285714,781.4285714285714,3452.8,765.1785714285714,781.4285714285714,3562.4,765.1785714285714,781.4285714285714,3671.8,765.1785714285714,781.4285714285714,3781.1,765.1785714285714,781.4285714285714,3885.1,765.1785714285714,781.4285714285714,4008.7,765.1785714285714,781.4285714285714,4135.3,765.1785714285714,781.4285714285714,4240,765.1785714285714,781.4285714285714,4341,765.1785714285714,781.4285714285714,4447.9,765.1785714285714,781.4285714285714,4554.6,765.1785714285714,781.4285714285714,4662.6,765.1785714285714,781.4285714285714,4773.4,765.1785714285714,781.4285714285714,4877,765.1785714285714,781.4285714285714,4982.9]","[1573,1573,1000,0,573,""oops"",""right"",""right"",""bad_move"",4364.9,2791.4,2158,1573.5,633.4,""oops"",""left"",""right"",""bad_move"",7462.1,3096.7,2702.3,4365.5,394.4,""while_blue"",""left"",""left"",""good_move"",10677.9,3215.3,2465.3,7462.6,750,""smooth"",""left"",""left"",""good_move"",13421.6,2743.3,2071.1,10678.3,672.2,""oops"",""left"",""left"",""good_move"",13670.7,248.4,2234.9,13422.3,-1986.5,""error"",""-"",""-"",""no_move"",19643.9,5972.8,3381.1,14672.9,1589.9,""smooth"",""left"",""left"",""good_move"",22077.5,2433.6,1769,19644,664.6,""oops"",""left"",""up"",""good_move"",24578.8,2500.6,1781.6,22078.2,719,""oops"",""left"",""right"",""bad_move""]","",""
"60167","","<div style=""width:500px;"">
  <p>What determined the result of this run?</p>
  </div>","67","html-slider-response","55","2743884","0.0-5.0-1.9","220","1","2025-07-23 13:23:34","1f75c3e559b7213887762d5229550c2b","41.122.132.69","Mozilla/5.0 (Windows NT 10.0; Win64; x64) AppleWebKit/537.36 (KHTML, like Gecko) Chrome/138.0.0.0 Safari/537.36","WebKit","Chrome","138.0.0.0","Windows","10.0","https://app.prolific.com/","en-US,en;q=0.9","678bad003d15e6aba1ee5a5d","683dba2a8a9dda3513610c04","6880e071bd263a7c36c29bd9","3","0","678bad003d15e6aba1ee5a5d","3","0","2025-07-23T14:09:22.894Z","","","","","","","","","","","AttribQ","","50","","","","","","","","","","","","","","","","","","","","","","","","","","","","",""
"3045","","<div style=""width:500px;"">
  <p>How much control did you have over the ball?</p>
  </div>","69","html-slider-response","56","2746932","0.0-5.0-2.9","220","1","2025-07-23 13:23:34","1f75c3e559b7213887762d5229550c2b","41.122.132.69","Mozilla/5.0 (Windows NT 10.0; Win64; x64) AppleWebKit/537.36 (KHTML, like Gecko) Chrome/138.0.0.0 Safari/537.36","WebKit","Chrome","138.0.0.0","Windows","10.0","https://app.prolific.com/","en-US,en;q=0.9","678bad003d15e6aba1ee5a5d","683dba2a8a9dda3513610c04","6880e071bd263a7c36c29bd9","3","0","678bad003d15e6aba1ee5a5d","3","0","2025-07-23T14:09:25.941Z","","","","","","","","","","","ControlQ","","50","","","","","","","","","","","","","","","","","","","","","","","","","","","","",""
"2014","","<div style=""width:500px;"">
  <p>How would you describe your current emotional state?</p>
  </div>","41","html-slider-response","57","2748949","0.0-5.0-3.9","220","1","2025-07-23 13:23:34","1f75c3e559b7213887762d5229550c2b","41.122.132.69","Mozilla/5.0 (Windows NT 10.0; Win64; x64) AppleWebKit/537.36 (KHTML, like Gecko) Chrome/138.0.0.0 Safari/537.36","WebKit","Chrome","138.0.0.0","Windows","10.0","https://app.prolific.com/","en-US,en;q=0.9","678bad003d15e6aba1ee5a5d","683dba2a8a9dda3513610c04","6880e071bd263a7c36c29bd9","3","0","678bad003d15e6aba1ee5a5d","3","0","2025-07-23T14:09:27.958Z","","","","","","","","","","","StressQ","","50","","","","","","","","","","","","","","","","","","","","","","","","","","","","",""
"1612","","<div style=""width:500px;"">
  <p>What best describes how you currently feel?</p>
  </div>","58","html-slider-response","58","2750564","0.0-5.0-4.9","220","1","2025-07-23 13:23:34","1f75c3e559b7213887762d5229550c2b","41.122.132.69","Mozilla/5.0 (Windows NT 10.0; Win64; x64) AppleWebKit/537.36 (KHTML, like Gecko) Chrome/138.0.0.0 Safari/537.36","WebKit","Chrome","138.0.0.0","Windows","10.0","https://app.prolific.com/","en-US,en;q=0.9","678bad003d15e6aba1ee5a5d","683dba2a8a9dda3513610c04","6880e071bd263a7c36c29bd9","3","0","678bad003d15e6aba1ee5a5d","3","0","2025-07-23T14:09:29.574Z","","","","","","","","","","","MotivationQ","","50","","","","","","","","","","","","","","","","","","","","","","","","","","","","",""
"","","","","ctl-task-cpt","59","2888111","0.0-5.0-0.10","220","1","2025-07-23 13:23:34","1f75c3e559b7213887762d5229550c2b","41.122.132.69","Mozilla/5.0 (Windows NT 10.0; Win64; x64) AppleWebKit/537.36 (KHTML, like Gecko) Chrome/138.0.0.0 Safari/537.36","WebKit","Chrome","138.0.0.0","Windows","10.0","https://app.prolific.com/","en-US,en;q=0.9","678bad003d15e6aba1ee5a5d","683dba2a8a9dda3513610c04","6880e071bd263a7c36c29bd9","3","0","678bad003d15e6aba1ee5a5d","3","0","2025-07-23T14:11:47.120Z","","","","","","","","","","","","","","win-only","2","g1:SE,g2:NW","0.5","11","0","2755065.1","954.1","5958.4","134495.5","1","4","8","6","2","8","7","7","0","0.05303030303030303","1084.6","3000","345","[""left"",""up""]","{""num_key_presses"":19,""num_perfect"":10,""num_errors"":1,""num_randdir"":8,""num_randdir_good_moves"":2,""num_whilered"":0,""num_whileblue"":0,""num_blue"":14,""num_good_moves"":12}","[781.4285714285714,782.6785714285714,0.3,781.4285714285714,782.6785714285714,151.1,781.4285714285714,782.6785714285714,262.8,756.4285714285714,751.4285714285714,372.1,695.1785714285714,668.9285714285714,476,521.4285714285714,428.92857142857144,584.8,485.17857142857144,371.42857142857144,688.5,285.17857142857144,286.42857142857144,793.3,210.17857142857142,235.17857142857142,911,171.42857142857142,201.42857142857142,1016,170.17857142857142,200.17857142857142,1121.6,228.92857142857142,233.92857142857142,1230.1,798.9285714285714,501.42857142857144,1338.1,1406.4285714285713,811.4285714285714,1450.6,1920.1785714285713,963.9285714285714,1556.8,1991.4285714285713,962.6785714285714,1657,1991.4285714285713,962.6785714285714,1763.7,1991.4285714285713,962.6785714285714,1867.7,1991.4285714285713,962.6785714285714,1976.1,1991.4285714285713,962.6785714285714,2082.6,1991.4285714285713,962.6785714285714,2187.9,1991.4285714285713,962.6785714285714,2288.1,1991.4285714285713,962.6785714285714,2393.2,1991.4285714285713,962.6785714285714,2498,1991.4285714285713,962.6785714285714,2603.9,1991.4285714285713,962.6785714285714,2706.2,1991.4285714285713,962.6785714285714,2812.3,1991.4285714285713,962.6785714285714,2918.6,1991.4285714285713,962.6785714285714,3019.1,1991.4285714285713,962.6785714285714,3120.4,1991.4285714285713,962.6785714285714,3229.2,1991.4285714285713,962.6785714285714,3342,1991.4285714285713,962.6785714285714,3452.9,1991.4285714285713,962.6785714285714,3553.6,1991.4285714285713,962.6785714285714,3656.4,1991.4285714285713,962.6785714285714,3765.2,1991.4285714285713,962.6785714285714,3872.7,1991.4285714285713,962.6785714285714,3976,1991.4285714285713,962.6785714285714,4084.2,1991.4285714285713,962.6785714285714,4184.5,1991.4285714285713,962.6785714285714,4285.8,1991.4285714285713,962.6785714285714,4395.4,1991.4285714285713,962.6785714285714,4496.5,1991.4285714285713,962.6785714285714,4600.7,1991.4285714285713,962.6785714285714,4700.7,1991.4285714285713,962.6785714285714,4806.5,1991.4285714285713,962.6785714285714,4911.7]","[9360.8,9360.8,3458.3,5376.7,525.8,""oops"",""left"",""right"",""bad_move"",13036.3,3674.7,3168.2,9361.6,506.5,""oops"",""left"",""up"",""good_move"",20504.6,7467.3,2861.5,17240.2,402.9,""smooth"",""left"",""left"",""good_move"",31252,10746.7,2534.4,28248.5,469.2,""oops"",""left"",""right"",""bad_move"",41248.9,9995.8,2465.3,38326.8,456.9,""smooth"",""left"",""left"",""good_move"",48345.2,7095.2,2907.1,44778,660.2,""smooth"",""left"",""left"",""good_move"",54670.3,6324.3,2273.8,51958.2,438.3,""smooth"",""left"",""left"",""good_move"",61105,6434.5,2193.7,58406.1,505.2,""oops"",""left"",""right"",""bad_move"",62048,942.6,2099.3,61105.4,-1156.7,""error"",""-"",""-"",""no_move"",67430.5,5381.9,3036.9,63057.2,1336.5,""smooth"",""left"",""left"",""good_move"",72631.2,5200.3,2933.2,67430.9,2267.1,""oops"",""left"",""up"",""good_move"",78502.7,5870.7,2379.9,72632,3490.8,""oops"",""left"",""down"",""bad_move"",88414.9,9911.6,2967.5,84824.7,622.7,""oops"",""left"",""down"",""bad_move"",95774.6,7359.4,2985.5,91916.4,872.7,""smooth"",""left"",""left"",""good_move"",100911.2,5136.3,2911.7,95774.9,2224.6,""smooth"",""up"",""up"",""good_move"",106087.5,5176,3178,100911.5,1998,""oops"",""up"",""right"",""bad_move"",109849,3761.2,2869,106087.8,892.2,""smooth"",""up"",""up"",""good_move"",120425.1,10575.7,2417.4,117427.8,579.9,""smooth"",""up"",""up"",""good_move"",127886.3,7460.9,2706,120425.4,4754.9,""smooth"",""left"",""left"",""good_move""]","",""
"14654","","<div style=""width:500px;"">
  <p>What determined the result of this run?</p>
  </div>","68","html-slider-response","60","2902770","0.0-5.0-1.10","220","1","2025-07-23 13:23:34","1f75c3e559b7213887762d5229550c2b","41.122.132.69","Mozilla/5.0 (Windows NT 10.0; Win64; x64) AppleWebKit/537.36 (KHTML, like Gecko) Chrome/138.0.0.0 Safari/537.36","WebKit","Chrome","138.0.0.0","Windows","10.0","https://app.prolific.com/","en-US,en;q=0.9","678bad003d15e6aba1ee5a5d","683dba2a8a9dda3513610c04","6880e071bd263a7c36c29bd9","3","0","678bad003d15e6aba1ee5a5d","3","0","2025-07-23T14:12:01.779Z","","","","","","","","","","","AttribQ","","50","","","","","","","","","","","","","","","","","","","","","","","","","","","","",""
"2042","","<div style=""width:500px;"">
  <p>How much control did you have over the ball?</p>
  </div>","44","html-slider-response","61","2904816","0.0-5.0-2.10","220","1","2025-07-23 13:23:34","1f75c3e559b7213887762d5229550c2b","41.122.132.69","Mozilla/5.0 (Windows NT 10.0; Win64; x64) AppleWebKit/537.36 (KHTML, like Gecko) Chrome/138.0.0.0 Safari/537.36","WebKit","Chrome","138.0.0.0","Windows","10.0","https://app.prolific.com/","en-US,en;q=0.9","678bad003d15e6aba1ee5a5d","683dba2a8a9dda3513610c04","6880e071bd263a7c36c29bd9","3","0","678bad003d15e6aba1ee5a5d","3","0","2025-07-23T14:12:03.825Z","","","","","","","","","","","ControlQ","","50","","","","","","","","","","","","","","","","","","","","","","","","","","","","",""
"1681","","<div style=""width:500px;"">
  <p>How would you describe your current emotional state?</p>
  </div>","57","html-slider-response","62","2906500","0.0-5.0-3.10","220","1","2025-07-23 13:23:34","1f75c3e559b7213887762d5229550c2b","41.122.132.69","Mozilla/5.0 (Windows NT 10.0; Win64; x64) AppleWebKit/537.36 (KHTML, like Gecko) Chrome/138.0.0.0 Safari/537.36","WebKit","Chrome","138.0.0.0","Windows","10.0","https://app.prolific.com/","en-US,en;q=0.9","678bad003d15e6aba1ee5a5d","683dba2a8a9dda3513610c04","6880e071bd263a7c36c29bd9","3","0","678bad003d15e6aba1ee5a5d","3","0","2025-07-23T14:12:05.509Z","","","","","","","","","","","StressQ","","50","","","","","","","","","","","","","","","","","","","","","","","","","","","","",""
"1618","","<div style=""width:500px;"">
  <p>What best describes how you currently feel?</p>
  </div>","63","html-slider-response","63","2908120","0.0-5.0-4.10","220","1","2025-07-23 13:23:34","1f75c3e559b7213887762d5229550c2b","41.122.132.69","Mozilla/5.0 (Windows NT 10.0; Win64; x64) AppleWebKit/537.36 (KHTML, like Gecko) Chrome/138.0.0.0 Safari/537.36","WebKit","Chrome","138.0.0.0","Windows","10.0","https://app.prolific.com/","en-US,en;q=0.9","678bad003d15e6aba1ee5a5d","683dba2a8a9dda3513610c04","6880e071bd263a7c36c29bd9","3","0","678bad003d15e6aba1ee5a5d","3","0","2025-07-23T14:12:07.130Z","","","","","","","","","","","MotivationQ","","50","","","","","","","","","","","","","","","","","","","","","","","","","","","","",""
"","","","","ctl-task-cpt","64","2963477","0.0-5.0-0.11","220","1","2025-07-23 13:23:34","1f75c3e559b7213887762d5229550c2b","41.122.132.69","Mozilla/5.0 (Windows NT 10.0; Win64; x64) AppleWebKit/537.36 (KHTML, like Gecko) Chrome/138.0.0.0 Safari/537.36","WebKit","Chrome","138.0.0.0","Windows","10.0","https://app.prolific.com/","en-US,en;q=0.9","678bad003d15e6aba1ee5a5d","683dba2a8a9dda3513610c04","6880e071bd263a7c36c29bd9","3","0","678bad003d15e6aba1ee5a5d","3","0","2025-07-23T14:13:02.486Z","","","","","","","","","","","","","","win-only","0","g1:NW,g2:SE","0.6","12","0","2912621.5","1856","6857","52328.3","1","4","4","6","2","4","2","9","7","0.06818181818181818","1184.6","3000","1165","[""down"",""right""]","{""num_key_presses"":14,""num_perfect"":7,""num_errors"":2,""num_randdir"":5,""num_randdir_good_moves"":1,""num_whilered"":0,""num_whileblue"":2,""num_blue"":3,""num_good_moves"":10}","[776.4285714285714,772.6785714285714,0.4,776.4285714285714,772.6785714285714,104.6,776.4285714285714,771.4285714285714,211.1,743.9285714285714,723.9285714285714,320.1,695.1785714285714,750.1785714285714,429.2,987.6785714285714,983.9285714285714,542.4,1101.4285714285713,1092.6785714285713,649.1,1146.4285714285713,1176.4285714285713,765.9,1197.6785714285713,1233.9285714285713,869.5,1308.9285714285713,1332.6785714285713,977.3,1398.9285714285713,1360.1785714285713,1084.3,1395.1785714285713,1356.4285714285713,1212.3,1392.6785714285713,1353.9285714285713,1332.3,1391.4285714285713,1353.9285714285713,1442,1391.4285714285713,1353.9285714285713,1550.7,1426.4285714285713,1346.4285714285713,1660.7,1438.9285714285713,1326.4285714285713,1774.5,1438.9285714285713,1326.4285714285713,1880.9,1438.9285714285713,1326.4285714285713,1983.7,1438.9285714285713,1326.4285714285713,2087.8,1438.9285714285713,1326.4285714285713,2196.3,1438.9285714285713,1326.4285714285713,2309.2,1438.9285714285713,1326.4285714285713,2414.3,1438.9285714285713,1326.4285714285713,2514.9,1438.9285714285713,1326.4285714285713,2623.3,1438.9285714285713,1326.4285714285713,2731.2,1438.9285714285713,1326.4285714285713,2840.6,1438.9285714285713,1326.4285714285713,2942.7,1438.9285714285713,1326.4285714285713,3049.1,1438.9285714285713,1326.4285714285713,3154.8,1438.9285714285713,1326.4285714285713,3259.5,1438.9285714285713,1326.4285714285713,3376.8,1438.9285714285713,1326.4285714285713,3480.2,1438.9285714285713,1326.4285714285713,3580.6,1438.9285714285713,1326.4285714285713,3682.2,1438.9285714285713,1326.4285714285713,3783.8,1438.9285714285713,1326.4285714285713,3896.2,1438.9285714285713,1326.4285714285713,4000.2,1438.9285714285713,1326.4285714285713,4101.7,1438.9285714285713,1326.4285714285713,4208.4,1438.9285714285713,1326.4285714285713,4320.9,1438.9285714285713,1326.4285714285713,4427.8,1438.9285714285713,1326.4285714285713,4540,1438.9285714285713,1326.4285714285713,4642.7,1438.9285714285713,1326.4285714285713,4745.2,1438.9285714285713,1326.4285714285713,4851,1438.9285714285713,1326.4285714285713,4958.4]","[1489.4,1489.4,1000,0,489.4,""smooth"",""right"",""right"",""good_move"",4265.6,2775.4,2311.5,1490.3,463.8,""oops"",""right"",""up"",""bad_move"",6873.9,2607.5,2189.6,4266.4,417.9,""smooth"",""right"",""right"",""good_move"",10166,3291.4,2919.6,6874.7,371.7,""while_blue"",""right"",""right"",""good_move"",13777,3610.5,3200.3,10166.5,410.2,""oops"",""down"",""up"",""bad_move"",16664.5,2887.1,2516.8,13777.4,370.3,""oops"",""down"",""left"",""bad_move"",19401.7,2736.4,2330.4,16665.3,406,""smooth"",""down"",""down"",""good_move"",22088.2,2685.7,2275.3,19402.6,410.3,""smooth"",""down"",""down"",""good_move"",25024.2,2935.8,2622.1,22088.4,313.7,""smooth"",""down"",""down"",""good_move"",27693.4,2668.8,2277.3,25024.6,391.5,""oops"",""down"",""left"",""bad_move"",30968.6,3274.3,2932.8,27694.3,341.5,""while_blue"",""down"",""right"",""good_move"",34265,3295.9,2818.2,30969.1,477.7,""smooth"",""down"",""down"",""good_move"",37793.3,3527.8,3081.1,34265.5,446.7,""smooth"",""down"",""down"",""good_move"",45225.1,7431.1,3423.5,41367.3,434.3,""oops"",""right"",""right"",""good_move""]","",""
"3701","","<div style=""width:500px;"">
  <p>What determined the result of this run?</p>
  </div>","30","html-slider-response","65","2967181","0.0-5.0-1.11","220","1","2025-07-23 13:23:34","1f75c3e559b7213887762d5229550c2b","41.122.132.69","Mozilla/5.0 (Windows NT 10.0; Win64; x64) AppleWebKit/537.36 (KHTML, like Gecko) Chrome/138.0.0.0 Safari/537.36","WebKit","Chrome","138.0.0.0","Windows","10.0","https://app.prolific.com/","en-US,en;q=0.9","678bad003d15e6aba1ee5a5d","683dba2a8a9dda3513610c04","6880e071bd263a7c36c29bd9","3","0","678bad003d15e6aba1ee5a5d","3","0","2025-07-23T14:13:06.190Z","","","","","","","","","","","AttribQ","","50","","","","","","","","","","","","","","","","","","","","","","","","","","","","",""
"2592","","<div style=""width:500px;"">
  <p>How much control did you have over the ball?</p>
  </div>","33","html-slider-response","66","2969777","0.0-5.0-2.11","220","1","2025-07-23 13:23:34","1f75c3e559b7213887762d5229550c2b","41.122.132.69","Mozilla/5.0 (Windows NT 10.0; Win64; x64) AppleWebKit/537.36 (KHTML, like Gecko) Chrome/138.0.0.0 Safari/537.36","WebKit","Chrome","138.0.0.0","Windows","10.0","https://app.prolific.com/","en-US,en;q=0.9","678bad003d15e6aba1ee5a5d","683dba2a8a9dda3513610c04","6880e071bd263a7c36c29bd9","3","0","678bad003d15e6aba1ee5a5d","3","0","2025-07-23T14:13:08.786Z","","","","","","","","","","","ControlQ","","50","","","","","","","","","","","","","","","","","","","","","","","","","","","","",""
"2013","","<div style=""width:500px;"">
  <p>How would you describe your current emotional state?</p>
  </div>","61","html-slider-response","67","2971794","0.0-5.0-3.11","220","1","2025-07-23 13:23:34","1f75c3e559b7213887762d5229550c2b","41.122.132.69","Mozilla/5.0 (Windows NT 10.0; Win64; x64) AppleWebKit/537.36 (KHTML, like Gecko) Chrome/138.0.0.0 Safari/537.36","WebKit","Chrome","138.0.0.0","Windows","10.0","https://app.prolific.com/","en-US,en;q=0.9","678bad003d15e6aba1ee5a5d","683dba2a8a9dda3513610c04","6880e071bd263a7c36c29bd9","3","0","678bad003d15e6aba1ee5a5d","3","0","2025-07-23T14:13:10.803Z","","","","","","","","","","","StressQ","","50","","","","","","","","","","","","","","","","","","","","","","","","","","","","",""
"3100","","<div style=""width:500px;"">
  <p>What best describes how you currently feel?</p>
  </div>","34","html-slider-response","68","2974897","0.0-5.0-4.11","220","1","2025-07-23 13:23:34","1f75c3e559b7213887762d5229550c2b","41.122.132.69","Mozilla/5.0 (Windows NT 10.0; Win64; x64) AppleWebKit/537.36 (KHTML, like Gecko) Chrome/138.0.0.0 Safari/537.36","WebKit","Chrome","138.0.0.0","Windows","10.0","https://app.prolific.com/","en-US,en;q=0.9","678bad003d15e6aba1ee5a5d","683dba2a8a9dda3513610c04","6880e071bd263a7c36c29bd9","3","0","678bad003d15e6aba1ee5a5d","3","0","2025-07-23T14:13:13.906Z","","","","","","","","","","","MotivationQ","","50","","","","","","","","","","","","","","","","","","","","","","","","","","","","",""
"","","","","ctl-task-cpt","69","3010121","0.0-5.0-0.12","220","1","2025-07-23 13:23:34","1f75c3e559b7213887762d5229550c2b","41.122.132.69","Mozilla/5.0 (Windows NT 10.0; Win64; x64) AppleWebKit/537.36 (KHTML, like Gecko) Chrome/138.0.0.0 Safari/537.36","WebKit","Chrome","138.0.0.0","Windows","10.0","https://app.prolific.com/","en-US,en;q=0.9","678bad003d15e6aba1ee5a5d","683dba2a8a9dda3513610c04","6880e071bd263a7c36c29bd9","3","0","678bad003d15e6aba1ee5a5d","3","0","2025-07-23T14:13:49.130Z","","","","","","","","","","","","","","win-only","3","g1:SW,g2:NE","0.7","13","0","2979397.9","946.4","5958.1","32194.9","1","4","4","6","2","4","4","13","9","0.09848484848484848","1264.4","3000","2115","[""up"",""right""]","{""num_key_presses"":8,""num_perfect"":6,""num_errors"":0,""num_randdir"":2,""num_randdir_good_moves"":1,""num_whilered"":0,""num_whileblue"":0,""num_blue"":1,""num_good_moves"":7}","[751.4285714285714,778.9285714285714,0.3,751.4285714285714,778.9285714285714,112.2,751.4285714285714,778.9285714285714,213.1,751.4285714285714,778.9285714285714,322.6,598.9285714285714,850.1785714285714,435.6,531.4285714285714,986.4285714285714,540.1,508.92857142857144,1026.4285714285713,649.2,1255.1785714285713,432.67857142857144,767.8,1378.9285714285713,298.92857142857144,889,1361.4285714285713,285.17857142857144,998.8,1372.6785714285713,217.67857142857142,1101.5,1411.4285714285713,133.92857142857142,1212.5,1411.4285714285713,133.92857142857142,1325.8,1411.4285714285713,146.42857142857142,1437.2,1536.4285714285713,346.42857142857144,1554.1,1721.4285714285713,651.4285714285714,1668,2058.9285714285716,813.9285714285714,1774.3,2058.9285714285716,813.9285714285714,1875.8,2058.9285714285716,813.9285714285714,1981.6,2058.9285714285716,813.9285714285714,2114.5,2058.9285714285716,813.9285714285714,2230.2,2058.9285714285716,813.9285714285714,2344.6,2058.9285714285716,813.9285714285714,2458.4,2058.9285714285716,813.9285714285714,2575.5,2058.9285714285716,813.9285714285714,2702.8,2058.9285714285716,813.9285714285714,2817.5,2058.9285714285716,813.9285714285714,2922.6,2058.9285714285716,813.9285714285714,3033.3,2058.9285714285716,813.9285714285714,3142.9,2058.9285714285716,813.9285714285714,3253.9,2058.9285714285716,813.9285714285714,3358.1,2058.9285714285716,813.9285714285714,3460.8,2058.9285714285716,813.9285714285714,3580,2058.9285714285716,813.9285714285714,3680.3,2058.9285714285716,813.9285714285714,3786.5,2058.9285714285716,813.9285714285714,3902.4,2058.9285714285716,813.9285714285714,4004.4,2058.9285714285716,813.9285714285714,4104.9,2058.9285714285716,813.9285714285714,4225.1,2058.9285714285716,813.9285714285714,4335.2,2058.9285714285716,813.9285714285714,4441.2,2058.9285714285716,813.9285714285714,4545.9,2058.9285714285716,813.9285714285714,4652.6,2058.9285714285716,813.9285714285714,4755.4,2058.9285714285716,813.9285714285714,4865.7,2058.9285714285716,813.9285714285714,4969.2]","[1452.8,1452.8,1000,0,452.8,""smooth"",""right"",""right"",""good_move"",4292.1,2838.8,2354.6,1453.3,484.2,""smooth"",""right"",""right"",""good_move"",10274.4,5981.9,2040.4,7698.1,535.9,""oops"",""up"",""right"",""good_move"",13204.3,2929.8,2451.4,10274.6,478.4,""smooth"",""up"",""up"",""good_move"",16339.8,3134.6,2227.5,13205.2,907.1,""oops"",""up"",""down"",""bad_move"",19020.8,2680,2153.6,16340.9,526.3,""smooth"",""up"",""up"",""good_move"",22410.2,3388.9,2327.8,19021.3,1061.1,""smooth"",""up"",""up"",""good_move"",25908.5,3498.2,2169.6,22410.3,1328.6,""smooth"",""up"",""up"",""good_move""]","",""
"3971","","<div style=""width:500px;"">
  <p>What determined the result of this run?</p>
  </div>","74","html-slider-response","70","3014096","0.0-5.0-1.12","220","1","2025-07-23 13:23:34","1f75c3e559b7213887762d5229550c2b","41.122.132.69","Mozilla/5.0 (Windows NT 10.0; Win64; x64) AppleWebKit/537.36 (KHTML, like Gecko) Chrome/138.0.0.0 Safari/537.36","WebKit","Chrome","138.0.0.0","Windows","10.0","https://app.prolific.com/","en-US,en;q=0.9","678bad003d15e6aba1ee5a5d","683dba2a8a9dda3513610c04","6880e071bd263a7c36c29bd9","3","0","678bad003d15e6aba1ee5a5d","3","0","2025-07-23T14:13:53.105Z","","","","","","","","","","","AttribQ","","50","","","","","","","","","","","","","","","","","","","","","","","","","","","","",""
"5536","","<div style=""width:500px;"">
  <p>How much control did you have over the ball?</p>
  </div>","63","html-slider-response","71","3019636","0.0-5.0-2.12","220","1","2025-07-23 13:23:34","1f75c3e559b7213887762d5229550c2b","41.122.132.69","Mozilla/5.0 (Windows NT 10.0; Win64; x64) AppleWebKit/537.36 (KHTML, like Gecko) Chrome/138.0.0.0 Safari/537.36","WebKit","Chrome","138.0.0.0","Windows","10.0","https://app.prolific.com/","en-US,en;q=0.9","678bad003d15e6aba1ee5a5d","683dba2a8a9dda3513610c04","6880e071bd263a7c36c29bd9","3","0","678bad003d15e6aba1ee5a5d","3","0","2025-07-23T14:13:58.645Z","","","","","","","","","","","ControlQ","","50","","","","","","","","","","","","","","","","","","","","","","","","","","","","",""
"3470","","<div style=""width:500px;"">
  <p>How would you describe your current emotional state?</p>
  </div>","41","html-slider-response","72","3023108","0.0-5.0-3.12","220","1","2025-07-23 13:23:34","1f75c3e559b7213887762d5229550c2b","41.122.132.69","Mozilla/5.0 (Windows NT 10.0; Win64; x64) AppleWebKit/537.36 (KHTML, like Gecko) Chrome/138.0.0.0 Safari/537.36","WebKit","Chrome","138.0.0.0","Windows","10.0","https://app.prolific.com/","en-US,en;q=0.9","678bad003d15e6aba1ee5a5d","683dba2a8a9dda3513610c04","6880e071bd263a7c36c29bd9","3","0","678bad003d15e6aba1ee5a5d","3","0","2025-07-23T14:14:02.117Z","","","","","","","","","","","StressQ","","50","","","","","","","","","","","","","","","","","","","","","","","","","","","","",""
"1781","","<div style=""width:500px;"">
  <p>What best describes how you currently feel?</p>
  </div>","79","html-slider-response","73","3024893","0.0-5.0-4.12","220","1","2025-07-23 13:23:34","1f75c3e559b7213887762d5229550c2b","41.122.132.69","Mozilla/5.0 (Windows NT 10.0; Win64; x64) AppleWebKit/537.36 (KHTML, like Gecko) Chrome/138.0.0.0 Safari/537.36","WebKit","Chrome","138.0.0.0","Windows","10.0","https://app.prolific.com/","en-US,en;q=0.9","678bad003d15e6aba1ee5a5d","683dba2a8a9dda3513610c04","6880e071bd263a7c36c29bd9","3","0","678bad003d15e6aba1ee5a5d","3","0","2025-07-23T14:14:03.902Z","","","","","","","","","","","MotivationQ","","50","","","","","","","","","","","","","","","","","","","","","","","","","","","","",""
