"rt","response_timestamp","stimulus","response","trial_type","trial_index","time_elapsed","internal_node_id","run_id","condition","recorded_at","source_code_version","ip","user_agent","device","browser","browser_version","platform","platform_version","referer","accept_language","PROLIFIC_PID","STUDY_ID","SESSION_ID","WEEK","BATCH","prolific_id","week","batch","realtime","success","responses","item_order","radio_event_ids","radio_event_times","key_event_times","mouse_event_times","straightlining","zigzagging","honeypot","eventType","view_history","slider_start","which_type","canvas_config","goals_layout","control_level","trial_number","tutorial_trial_number","trial_start_time","phase1_start_time","phase2_start_time","phase3_start_time","goal_1_value","goal_1_distance","goal_2_value","goal_2_distance","goal_selected","outcome","outcome_total","participant_final_score","participant_initial_score","participant_final_score_prop","goal_choice_rt","allocated_time","allocated_time_remaining","goal_direction","counts","mouse_movements","key_presses","question_order","question_id"
"56715","1752656067795","<p style='font-size:40px;line-height:1.25'><strong>Welcome to the experiment!</strong></p><p style='font-size:1.1em;line-height:1.25'>Thank you for participanting in our experiment again! You will be asked to play the Dysfunctional Ball Game again. We will briefly recap the rules before we start.</p><p style='font-size:1.1em;line-height:1.25'>Press <strong>Next</strong> to continue.</p>","0","custom-html-button-response","0","56720","0.0-0.0","82","1","2025-07-16 08:53:26","1f75c3e559b7213887762d5229550c2b","62.164.249.91","Mozilla/5.0 (Windows NT 10.0; Win64; x64) AppleWebKit/537.36 (KHTML, like Gecko) Chrome/132.0.0.0 Safari/537.36","WebKit","Chrome","132.0.0.0","Windows","10.0","https://app.prolific.com/","en-US,en;q=0.9","6792a60bf1238ae52e645ecb","686e379bc37a29ffa5cdc956","687767ae4db0c4ca3c7def43","1","1","6792a60bf1238ae52e645ecb","1","1","2025-07-16T08:54:27.799Z","","","","","","","","","","","","","","","","","","","","","","","","","","","","","","","","","","","","","","","","","",""
"6461","","","","fullscreen","1","64201","0.0-1.0","82","1","2025-07-16 08:53:26","1f75c3e559b7213887762d5229550c2b","62.164.249.91","Mozilla/5.0 (Windows NT 10.0; Win64; x64) AppleWebKit/537.36 (KHTML, like Gecko) Chrome/132.0.0.0 Safari/537.36","WebKit","Chrome","132.0.0.0","Windows","10.0","https://app.prolific.com/","en-US,en;q=0.9","6792a60bf1238ae52e645ecb","686e379bc37a29ffa5cdc956","687767ae4db0c4ca3c7def43","1","1","6792a60bf1238ae52e645ecb","1","1","","true","","","","","","","","","","","","","","","","","","","","","","","","","","","","","","","","","","","","","","","","",""
"3034","1752656078315","<p style='font-size:1.1em;line-height:1.25'>In the following, we will ask you a few questions relating to your feelings in the last 24 hours.<br></p><p style='font-size:1.1em;line-height:1.25'>Press the <strong>Next</strong> button to continue.</p>","0","custom-html-button-response","2","67238","0.0-2.0-0.0","82","1","2025-07-16 08:53:26","1f75c3e559b7213887762d5229550c2b","62.164.249.91","Mozilla/5.0 (Windows NT 10.0; Win64; x64) AppleWebKit/537.36 (KHTML, like Gecko) Chrome/132.0.0.0 Safari/537.36","WebKit","Chrome","132.0.0.0","Windows","10.0","https://app.prolific.com/","en-US,en;q=0.9","6792a60bf1238ae52e645ecb","686e379bc37a29ffa5cdc956","687767ae4db0c4ca3c7def43","1","1","6792a60bf1238ae52e645ecb","1","1","2025-07-16T08:54:38.316Z","","","","","","","","","","","","","","","","","","","","","","","","","","","","","","","","","","","","","","","","","",""
"72428.79999995232","","","","survey-template","3","139673","0.0-2.0-1.0","82","1","2025-07-16 08:53:26","1f75c3e559b7213887762d5229550c2b","62.164.249.91","Mozilla/5.0 (Windows NT 10.0; Win64; x64) AppleWebKit/537.36 (KHTML, like Gecko) Chrome/132.0.0.0 Safari/537.36","WebKit","Chrome","132.0.0.0","Windows","10.0","https://app.prolific.com/","en-US,en;q=0.9","6792a60bf1238ae52e645ecb","686e379bc37a29ffa5cdc956","687767ae4db0c4ca3c7def43","1","1","6792a60bf1238ae52e645ecb","1","1","2025-07-16T08:55:50.752Z","","{""Q01"":""2"",""Q02"":""1"",""Q03"":""0"",""Q04"":""2"",""Q05"":""3"",""Q06"":""2"",""Q07"":""1"",""Q08"":""2"",""Q09"":""1"",""Q10"":""1"",""Q11"":""1"",""Q12"":""3"",""Q13"":""5"",""Q14"":""4"",""Q15"":""2"",""Q16"":""2"",""Q17"":""1"",""Q18"":""1"",""Q19"":""1"",""Q20"":""3"",""Q21"":""3"",""Q22"":""3""}","[0,1,2,3,4,5,6,7,8,9,10,11,12,13,14,15,16,17,18,19,20,21]","[""Q01"",""Q02"",""Q03"",""Q04"",""Q05"",""Q06"",""Q07"",""Q08"",""Q09"",""Q10"",""Q11"",""Q12"",""Q13"",""Q14"",""Q15"",""Q16"",""Q17"",""Q19"",""Q18"",""Q20"",""Q21"",""Q22""]","[6473.700000047684,8802.200000047684,10067.099999904633,12018.099999904633,14082.099999904633,17318.200000047684,19192.89999985695,21301.799999952316,24099.200000047684,25737.799999952316,28567.39999985695,33428.200000047684,37766.89999985695,41765.89999985695,44597.700000047684,48145.59999990463,50216.39999985695,55849.299999952316,57129.299999952316,63690.799999952316,66862.79999995232,71412.79999995232]","[]","[0.09999990463256836,5348,6473.700000047684,7651.299999952316,8802.200000047684,10067.099999904633,12018.099999904633,14082.099999904633,17318.200000047684,19192.89999985695,21301.799999952316,24099.200000047684,25737.799999952316,28567.39999985695,33428.200000047684,37766.89999985695,41765.89999985695,44597.700000047684,48145.59999990463,50216.39999985695,52551.09999990463,55849.299999952316,57129.299999952316,63690.799999952316,66862.79999995232,70175.5,71412.79999995232,72425.5]","0.36363636363636365","0.42857142857142855","0","drsp","","","","","","","","","","","","","","","","","","","","","","","","","","","","","","",""
"13213.900000095367","","","","survey-template","4","152889","0.0-2.0-2.0","82","1","2025-07-16 08:53:26","1f75c3e559b7213887762d5229550c2b","62.164.249.91","Mozilla/5.0 (Windows NT 10.0; Win64; x64) AppleWebKit/537.36 (KHTML, like Gecko) Chrome/132.0.0.0 Safari/537.36","WebKit","Chrome","132.0.0.0","Windows","10.0","https://app.prolific.com/","en-US,en;q=0.9","6792a60bf1238ae52e645ecb","686e379bc37a29ffa5cdc956","687767ae4db0c4ca3c7def43","1","1","6792a60bf1238ae52e645ecb","1","1","2025-07-16T08:56:03.967Z","","{""Q01"":""2"",""Q02"":""2"",""Q03"":""2""}","[0,1,2]","[""Q01"",""Q02"",""Q03""]","[7524.599999904633,8680.5,12166.200000047684]","[]","[4977.700000047684,7524.599999904633,8680.5,12166.200000047684,13213.200000047684]","0.6666666666666666","1","0","stress","","","","","","","","","","","","","","","","","","","","","","","","","","","","","","",""
"20436","","","","instructions","5","173327","0.0-3.0-0.0","82","1","2025-07-16 08:53:26","1f75c3e559b7213887762d5229550c2b","62.164.249.91","Mozilla/5.0 (Windows NT 10.0; Win64; x64) AppleWebKit/537.36 (KHTML, like Gecko) Chrome/132.0.0.0 Safari/537.36","WebKit","Chrome","132.0.0.0","Windows","10.0","https://app.prolific.com/","en-US,en;q=0.9","6792a60bf1238ae52e645ecb","686e379bc37a29ffa5cdc956","687767ae4db0c4ca3c7def43","1","1","6792a60bf1238ae52e645ecb","1","1","","","","","","","","","","","","","[{""page_index"":0,""viewing_time"":20436}]","","","","","","","","","","","","","","","","","","","","","","","","","","","","","",""
"15308","","<p>Before you start with this game please answer the following three questions yourself. </p>
  <p>Through this game, we measure several aspects of your cognitive performance, such as reaction times, multi-tasking capabilities </p>
  <p>and the ability to assess the situation you are in.</p>
  <p></p>
  <p><b>How good do you usually are in such tasks?</b></p>","74","html-slider-response","6","188639","0.0-4.0-0.0","82","1","2025-07-16 08:53:26","1f75c3e559b7213887762d5229550c2b","62.164.249.91","Mozilla/5.0 (Windows NT 10.0; Win64; x64) AppleWebKit/537.36 (KHTML, like Gecko) Chrome/132.0.0.0 Safari/537.36","WebKit","Chrome","132.0.0.0","Windows","10.0","https://app.prolific.com/","en-US,en;q=0.9","6792a60bf1238ae52e645ecb","686e379bc37a29ffa5cdc956","687767ae4db0c4ca3c7def43","1","1","6792a60bf1238ae52e645ecb","1","1","2025-07-16T08:56:39.717Z","","","","","","","","","","","PreSkillQ","","50","","","","","","","","","","","","","","","","","","","","","","","","","","","","",""
"3389","","<div style=""width:500px;"">
  <p>How well do you think you will perform in this task compared to other participants?</p>
  </div>","69","html-slider-response","7","192031","0.0-4.0-1.0","82","1","2025-07-16 08:53:26","1f75c3e559b7213887762d5229550c2b","62.164.249.91","Mozilla/5.0 (Windows NT 10.0; Win64; x64) AppleWebKit/537.36 (KHTML, like Gecko) Chrome/132.0.0.0 Safari/537.36","WebKit","Chrome","132.0.0.0","Windows","10.0","https://app.prolific.com/","en-US,en;q=0.9","6792a60bf1238ae52e645ecb","686e379bc37a29ffa5cdc956","687767ae4db0c4ca3c7def43","1","1","6792a60bf1238ae52e645ecb","1","1","2025-07-16T08:56:43.110Z","","","","","","","","","","","PrePerfQ","","50","","","","","","","","","","","","","","","","","","","","","","","","","","","","",""
"4215","","<div style=""width:500px;"">
  <p>What best describes how you currently feel?</p>
  </div>","99","html-slider-response","8","196249","0.0-4.0-2.0","82","1","2025-07-16 08:53:26","1f75c3e559b7213887762d5229550c2b","62.164.249.91","Mozilla/5.0 (Windows NT 10.0; Win64; x64) AppleWebKit/537.36 (KHTML, like Gecko) Chrome/132.0.0.0 Safari/537.36","WebKit","Chrome","132.0.0.0","Windows","10.0","https://app.prolific.com/","en-US,en;q=0.9","6792a60bf1238ae52e645ecb","686e379bc37a29ffa5cdc956","687767ae4db0c4ca3c7def43","1","1","6792a60bf1238ae52e645ecb","1","1","2025-07-16T08:56:47.327Z","","","","","","","","","","","PreMotivationQ","","50","","","","","","","","","","","","","","","","","","","","","","","","","","","","",""
"","","","","ctl-task-cpt","9","223130","0.0-5.0-0.0","82","1","2025-07-16 08:53:26","1f75c3e559b7213887762d5229550c2b","62.164.249.91","Mozilla/5.0 (Windows NT 10.0; Win64; x64) AppleWebKit/537.36 (KHTML, like Gecko) Chrome/132.0.0.0 Safari/537.36","WebKit","Chrome","132.0.0.0","Windows","10.0","https://app.prolific.com/","en-US,en;q=0.9","6792a60bf1238ae52e645ecb","686e379bc37a29ffa5cdc956","687767ae4db0c4ca3c7def43","1","1","6792a60bf1238ae52e645ecb","1","1","2025-07-16T08:57:14.208Z","","","","","","","","","","","","","","win-only","3","g1:SW,g2:NE","1","1","0","202064.4","2094.2","7096.6","23875.1","1","4","4","6","1","1","0","0","0","0","1598","3000","1600","[""down"",""left""]","{""num_key_presses"":5,""num_perfect"":4,""num_errors"":1,""num_randdir"":0,""num_randdir_good_moves"":0,""num_whilered"":0,""num_whileblue"":0,""num_blue"":1,""num_good_moves"":4}","[291.22232142857143,299.12857142857143,0.2,291.22232142857143,299.12857142857143,102,291.22232142857143,299.12857142857143,202.7,291.22232142857143,299.12857142857143,302.7,291.22232142857143,299.12857142857143,406.3,291.22232142857143,299.12857142857143,506.5,291.22232142857143,299.12857142857143,607.2,291.22232142857143,299.12857142857143,715,291.22232142857143,299.12857142857143,816.2,291.22232142857143,299.12857142857143,916.3,291.22232142857143,299.12857142857143,1016.4,170.22232142857143,458.12857142857143,1116.6,100.22232142857143,518.1285714285714,1217.1,87.22232142857143,524.1285714285714,1317.3,62.222321428571426,528.1285714285714,1421.4,60.222321428571426,528.1285714285714,1531.4,60.222321428571426,528.1285714285714,1631.9,60.222321428571426,528.1285714285714,1736.4,60.222321428571426,528.1285714285714,1837.2,60.222321428571426,528.1285714285714,1937.4,60.222321428571426,528.1285714285714,2038.1,114.22232142857143,497.12857142857143,2141.7,171.22232142857143,471.12857142857143,2242.5,211.22232142857143,429.12857142857143,2348.6,230.22232142857143,405.12857142857143,2452.2,236.22232142857143,394.12857142857143,2556.5,250.22232142857143,369.12857142857143,2656.5,251.22232142857143,366.12857142857143,2756.9,231.22232142857143,379.12857142857143,2864.9,185.22232142857143,428.12857142857143,2965.1,183.22232142857143,430.12857142857143,3066.7,183.22232142857143,430.12857142857143,3168,183.22232142857143,430.12857142857143,3271.7,183.22232142857143,430.12857142857143,3371.9,183.22232142857143,430.12857142857143,3481.5,183.22232142857143,430.12857142857143,3586.9,183.22232142857143,430.12857142857143,3687,183.22232142857143,430.12857142857143,3791.4,183.22232142857143,430.12857142857143,3897.7,183.22232142857143,430.12857142857143,4001.7,183.22232142857143,430.12857142857143,4106.8,183.22232142857143,430.12857142857143,4214.3,183.22232142857143,430.12857142857143,4314.3,183.22232142857143,430.12857142857143,4414.3,183.22232142857143,430.12857142857143,4514.4,183.22232142857143,430.12857142857143,4618,183.22232142857143,430.12857142857143,4721.8,183.22232142857143,430.12857142857143,4822.6,183.22232142857143,430.12857142857143,4931]","[329,329,1000,0,-671,""error"",""-"",""-"",""no_move"",7570,7240.9,2849.7,4328.9,391.4,""smooth"",""down"",""down"",""good_move"",10663.9,3093.3,2629,7570.6,464.3,""smooth"",""left"",""left"",""good_move"",13593.7,2929.4,2554.8,10664.3,374.6,""smooth"",""down"",""down"",""good_move"",16662.3,3068.3,2714.1,13594,354.2,""smooth"",""left"",""left"",""good_move""]","",""
"5014","","<div style=""width:500px;"">
  <p>What determined the result of this run?</p>
  </div>","96","html-slider-response","10","228145","0.0-5.0-1.0","82","1","2025-07-16 08:53:26","1f75c3e559b7213887762d5229550c2b","62.164.249.91","Mozilla/5.0 (Windows NT 10.0; Win64; x64) AppleWebKit/537.36 (KHTML, like Gecko) Chrome/132.0.0.0 Safari/537.36","WebKit","Chrome","132.0.0.0","Windows","10.0","https://app.prolific.com/","en-US,en;q=0.9","6792a60bf1238ae52e645ecb","686e379bc37a29ffa5cdc956","687767ae4db0c4ca3c7def43","1","1","6792a60bf1238ae52e645ecb","1","1","2025-07-16T08:57:19.223Z","","","","","","","","","","","AttribQ","","50","","","","","","","","","","","","","","","","","","","","","","","","","","","","",""
"3226","","<div style=""width:500px;"">
  <p>How much control did you have over the ball?</p>
  </div>","95","html-slider-response","11","231372","0.0-5.0-2.0","82","1","2025-07-16 08:53:26","1f75c3e559b7213887762d5229550c2b","62.164.249.91","Mozilla/5.0 (Windows NT 10.0; Win64; x64) AppleWebKit/537.36 (KHTML, like Gecko) Chrome/132.0.0.0 Safari/537.36","WebKit","Chrome","132.0.0.0","Windows","10.0","https://app.prolific.com/","en-US,en;q=0.9","6792a60bf1238ae52e645ecb","686e379bc37a29ffa5cdc956","687767ae4db0c4ca3c7def43","1","1","6792a60bf1238ae52e645ecb","1","1","2025-07-16T08:57:22.450Z","","","","","","","","","","","ControlQ","","50","","","","","","","","","","","","","","","","","","","","","","","","","","","","",""
"3668","","<div style=""width:500px;"">
  <p>How would you describe your current emotional state?</p>
  </div>","4","html-slider-response","12","235041","0.0-5.0-3.0","82","1","2025-07-16 08:53:26","1f75c3e559b7213887762d5229550c2b","62.164.249.91","Mozilla/5.0 (Windows NT 10.0; Win64; x64) AppleWebKit/537.36 (KHTML, like Gecko) Chrome/132.0.0.0 Safari/537.36","WebKit","Chrome","132.0.0.0","Windows","10.0","https://app.prolific.com/","en-US,en;q=0.9","6792a60bf1238ae52e645ecb","686e379bc37a29ffa5cdc956","687767ae4db0c4ca3c7def43","1","1","6792a60bf1238ae52e645ecb","1","1","2025-07-16T08:57:26.120Z","","","","","","","","","","","StressQ","","50","","","","","","","","","","","","","","","","","","","","","","","","","","","","",""
"3765","","<div style=""width:500px;"">
  <p>What best describes how you currently feel?</p>
  </div>","97","html-slider-response","13","238809","0.0-5.0-4.0","82","1","2025-07-16 08:53:26","1f75c3e559b7213887762d5229550c2b","62.164.249.91","Mozilla/5.0 (Windows NT 10.0; Win64; x64) AppleWebKit/537.36 (KHTML, like Gecko) Chrome/132.0.0.0 Safari/537.36","WebKit","Chrome","132.0.0.0","Windows","10.0","https://app.prolific.com/","en-US,en;q=0.9","6792a60bf1238ae52e645ecb","686e379bc37a29ffa5cdc956","687767ae4db0c4ca3c7def43","1","1","6792a60bf1238ae52e645ecb","1","1","2025-07-16T08:57:29.887Z","","","","","","","","","","","MotivationQ","","50","","","","","","","","","","","","","","","","","","","","","","","","","","","","",""
"","","","","ctl-task-cpt","14","264306","0.0-5.0-0.1","82","1","2025-07-16 08:53:26","1f75c3e559b7213887762d5229550c2b","62.164.249.91","Mozilla/5.0 (Windows NT 10.0; Win64; x64) AppleWebKit/537.36 (KHTML, like Gecko) Chrome/132.0.0.0 Safari/537.36","WebKit","Chrome","132.0.0.0","Windows","10.0","https://app.prolific.com/","en-US,en;q=0.9","6792a60bf1238ae52e645ecb","686e379bc37a29ffa5cdc956","687767ae4db0c4ca3c7def43","1","1","6792a60bf1238ae52e645ecb","1","1","2025-07-16T08:57:55.384Z","","","","","","","","","","","","","","win-only","1","g1:NE,g2:SW","0.9","2","0","244621.4","1436.2","6441","22481.7","1","4","8","6","1","1","1","1","0","0.007575757575757576","1720.6","3000","1295","[""up"",""right""]","{""num_key_presses"":4,""num_perfect"":4,""num_errors"":0,""num_randdir"":0,""num_randdir_good_moves"":0,""num_whilered"":0,""num_whileblue"":0,""num_blue"":2,""num_good_moves"":4}","[295.22232142857143,292.12857142857143,0.3,295.22232142857143,292.12857142857143,104.9,295.22232142857143,292.12857142857143,210.3,295.22232142857143,292.12857142857143,314.4,295.22232142857143,292.12857142857143,421,295.22232142857143,292.12857142857143,525.1,231.22232142857143,368.12857142857143,629.5,201.22232142857143,394.12857142857143,734.6,173.22232142857143,416.12857142857143,835.2,177.22232142857143,410.12857142857143,935.4,489.22232142857143,193.12857142857143,1039,588.2223214285714,111.12857142857143,1139.4,594.2223214285714,105.12857142857143,1239.5,568.2223214285714,83.12857142857143,1339.8,544.2223214285714,71.12857142857143,1440,544.2223214285714,69.12857142857143,1544.5,544.2223214285714,69.12857142857143,1649.2,544.2223214285714,69.12857142857143,1749.3,544.2223214285714,69.12857142857143,1849.7,544.2223214285714,69.12857142857143,1961.4,544.2223214285714,69.12857142857143,2064.2,544.2223214285714,69.12857142857143,2164.3,544.2223214285714,69.12857142857143,2264.6,544.2223214285714,69.12857142857143,2365.1,544.2223214285714,69.12857142857143,2470,544.2223214285714,69.12857142857143,2574.5,544.2223214285714,69.12857142857143,2674.8,544.2223214285714,69.12857142857143,2774.8,544.2223214285714,69.12857142857143,2875.1,544.2223214285714,69.12857142857143,2975.6,544.2223214285714,69.12857142857143,3079.9,544.2223214285714,69.12857142857143,3179.9,544.2223214285714,69.12857142857143,3280.1,544.2223214285714,69.12857142857143,3384.4,544.2223214285714,69.12857142857143,3484.8,544.2223214285714,69.12857142857143,3585.3,544.2223214285714,69.12857142857143,3689.7,544.2223214285714,69.12857142857143,3794.2,544.2223214285714,69.12857142857143,3894.3,544.2223214285714,69.12857142857143,4000.2,544.2223214285714,69.12857142857143,4104.8,544.2223214285714,69.12857142857143,4204.8,544.2223214285714,69.12857142857143,4309.7,544.2223214285714,69.12857142857143,4410,544.2223214285714,69.12857142857143,4514.5,544.2223214285714,69.12857142857143,4620.2,544.2223214285714,69.12857142857143,4724.6,544.2223214285714,69.12857142857143,4829.7,544.2223214285714,69.12857142857143,4930.1]","[5593.6,5593.6,3157.8,2009.6,426.3,""smooth"",""up"",""up"",""good_move"",11232.7,5638.4,2240.7,8685.2,306.8,""smooth"",""right"",""right"",""good_move"",13240,2006.9,1320.1,11233.1,686.8,""smooth"",""right"",""right"",""good_move"",15945.1,2704.9,2396.1,13240.2,308.8,""smooth"",""up"",""up"",""good_move""]","",""
"3860","","<div style=""width:500px;"">
  <p>What determined the result of this run?</p>
  </div>","97","html-slider-response","15","268166","0.0-5.0-1.1","82","1","2025-07-16 08:53:26","1f75c3e559b7213887762d5229550c2b","62.164.249.91","Mozilla/5.0 (Windows NT 10.0; Win64; x64) AppleWebKit/537.36 (KHTML, like Gecko) Chrome/132.0.0.0 Safari/537.36","WebKit","Chrome","132.0.0.0","Windows","10.0","https://app.prolific.com/","en-US,en;q=0.9","6792a60bf1238ae52e645ecb","686e379bc37a29ffa5cdc956","687767ae4db0c4ca3c7def43","1","1","6792a60bf1238ae52e645ecb","1","1","2025-07-16T08:57:59.245Z","","","","","","","","","","","AttribQ","","50","","","","","","","","","","","","","","","","","","","","","","","","","","","","",""
"2762","","<div style=""width:500px;"">
  <p>How much control did you have over the ball?</p>
  </div>","94","html-slider-response","16","270930","0.0-5.0-2.1","82","1","2025-07-16 08:53:26","1f75c3e559b7213887762d5229550c2b","62.164.249.91","Mozilla/5.0 (Windows NT 10.0; Win64; x64) AppleWebKit/537.36 (KHTML, like Gecko) Chrome/132.0.0.0 Safari/537.36","WebKit","Chrome","132.0.0.0","Windows","10.0","https://app.prolific.com/","en-US,en;q=0.9","6792a60bf1238ae52e645ecb","686e379bc37a29ffa5cdc956","687767ae4db0c4ca3c7def43","1","1","6792a60bf1238ae52e645ecb","1","1","2025-07-16T08:58:02.008Z","","","","","","","","","","","ControlQ","","50","","","","","","","","","","","","","","","","","","","","","","","","","","","","",""
"4115","","<div style=""width:500px;"">
  <p>How would you describe your current emotional state?</p>
  </div>","0","html-slider-response","17","275045","0.0-5.0-3.1","82","1","2025-07-16 08:53:26","1f75c3e559b7213887762d5229550c2b","62.164.249.91","Mozilla/5.0 (Windows NT 10.0; Win64; x64) AppleWebKit/537.36 (KHTML, like Gecko) Chrome/132.0.0.0 Safari/537.36","WebKit","Chrome","132.0.0.0","Windows","10.0","https://app.prolific.com/","en-US,en;q=0.9","6792a60bf1238ae52e645ecb","686e379bc37a29ffa5cdc956","687767ae4db0c4ca3c7def43","1","1","6792a60bf1238ae52e645ecb","1","1","2025-07-16T08:58:06.124Z","","","","","","","","","","","StressQ","","50","","","","","","","","","","","","","","","","","","","","","","","","","","","","",""
"2878","","<div style=""width:500px;"">
  <p>What best describes how you currently feel?</p>
  </div>","100","html-slider-response","18","277925","0.0-5.0-4.1","82","1","2025-07-16 08:53:26","1f75c3e559b7213887762d5229550c2b","62.164.249.91","Mozilla/5.0 (Windows NT 10.0; Win64; x64) AppleWebKit/537.36 (KHTML, like Gecko) Chrome/132.0.0.0 Safari/537.36","WebKit","Chrome","132.0.0.0","Windows","10.0","https://app.prolific.com/","en-US,en;q=0.9","6792a60bf1238ae52e645ecb","686e379bc37a29ffa5cdc956","687767ae4db0c4ca3c7def43","1","1","6792a60bf1238ae52e645ecb","1","1","2025-07-16T08:58:09.003Z","","","","","","","","","","","MotivationQ","","50","","","","","","","","","","","","","","","","","","","","","","","","","","","","",""
"","","","","ctl-task-cpt","19","303019","0.0-5.0-0.2","82","1","2025-07-16 08:53:26","1f75c3e559b7213887762d5229550c2b","62.164.249.91","Mozilla/5.0 (Windows NT 10.0; Win64; x64) AppleWebKit/537.36 (KHTML, like Gecko) Chrome/132.0.0.0 Safari/537.36","WebKit","Chrome","132.0.0.0","Windows","10.0","https://app.prolific.com/","en-US,en;q=0.9","6792a60bf1238ae52e645ecb","686e379bc37a29ffa5cdc956","687767ae4db0c4ca3c7def43","1","1","6792a60bf1238ae52e645ecb","1","1","2025-07-16T08:58:34.097Z","","","","","","","","","","","","","","win-only","1","g1:NE,g2:SW","0.8","3","0","283739","1552.6","6556.2","22076","1","4","4","6","1","1","1","2","1","0.015151515151515152","3058.7","3000","905","[""up"",""right""]","{""num_key_presses"":6,""num_perfect"":5,""num_errors"":0,""num_randdir"":1,""num_randdir_good_moves"":0,""num_whilered"":0,""num_whileblue"":0,""num_blue"":0,""num_good_moves"":5}","[297.22232142857143,295.12857142857143,0.2,297.22232142857143,295.12857142857143,103.5,297.22232142857143,295.12857142857143,209.8,297.22232142857143,295.12857142857143,313.9,297.22232142857143,295.12857142857143,414,297.22232142857143,295.12857142857143,518.1,297.22232142857143,295.12857142857143,618.8,297.22232142857143,295.12857142857143,724.5,297.22232142857143,296.12857142857143,828.2,295.22232142857143,300.12857142857143,928.7,354.22232142857143,255.12857142857143,1033.2,433.22232142857143,205.12857142857143,1134,439.22232142857143,202.12857142857143,1239.6,439.22232142857143,202.12857142857143,1343.8,439.22232142857143,202.12857142857143,1447.8,403.22232142857143,224.12857142857143,1548.3,299.22232142857143,292.12857142857143,1649,218.22232142857143,353.12857142857143,1754.1,145.22232142857143,428.12857142857143,1859.4,94.22232142857143,495.12857142857143,1963.7,79.22232142857143,524.1285714285714,2064,79.22232142857143,525.1285714285714,2168.9,80.22232142857143,519.1285714285714,2273.2,343.22232142857143,290.12857142857143,2373.9,493.22232142857143,166.12857142857143,2474.5,512.2223214285714,147.12857142857143,2574.8,541.2223214285714,105.12857142857143,2675,559.2223214285714,79.12857142857143,2778.3,560.2223214285714,75.12857142857143,2884.9,560.2223214285714,75.12857142857143,2988.5,560.2223214285714,75.12857142857143,3094,560.2223214285714,75.12857142857143,3194.7,560.2223214285714,75.12857142857143,3298.3,560.2223214285714,75.12857142857143,3403.5,560.2223214285714,75.12857142857143,3503.8,560.2223214285714,75.12857142857143,3609.3,560.2223214285714,75.12857142857143,3713.3,560.2223214285714,75.12857142857143,3818.1,560.2223214285714,75.12857142857143,3923.1,560.2223214285714,75.12857142857143,4025.6,560.2223214285714,75.12857142857143,4128.2,560.2223214285714,75.12857142857143,4234.1,560.2223214285714,75.12857142857143,4337.9,560.2223214285714,75.12857142857143,4439.2,560.2223214285714,75.12857142857143,4543.8,560.2223214285714,75.12857142857143,4648.6,560.2223214285714,75.12857142857143,4754,560.2223214285714,75.12857142857143,4854,560.2223214285714,75.12857142857143,4961.3]","[1393.4,1393.4,1000,0,393.4,""smooth"",""up"",""up"",""good_move"",4342.3,2948.3,2617.2,1394,331.1,""smooth"",""right"",""right"",""good_move"",7488.4,3145.6,2826.2,4342.8,319.4,""oops"",""right"",""down"",""bad_move"",10183.1,2694,2424.9,7489.1,269.1,""smooth"",""up"",""up"",""good_move"",12502.7,2319.3,1782.1,10183.4,537.2,""smooth"",""up"",""up"",""good_move"",15428.4,2925.3,2636.8,12503.1,288.5,""smooth"",""right"",""right"",""good_move""]","",""
"3515","","<div style=""width:500px;"">
  <p>What determined the result of this run?</p>
  </div>","97","html-slider-response","20","306536","0.0-5.0-1.2","82","1","2025-07-16 08:53:26","1f75c3e559b7213887762d5229550c2b","62.164.249.91","Mozilla/5.0 (Windows NT 10.0; Win64; x64) AppleWebKit/537.36 (KHTML, like Gecko) Chrome/132.0.0.0 Safari/537.36","WebKit","Chrome","132.0.0.0","Windows","10.0","https://app.prolific.com/","en-US,en;q=0.9","6792a60bf1238ae52e645ecb","686e379bc37a29ffa5cdc956","687767ae4db0c4ca3c7def43","1","1","6792a60bf1238ae52e645ecb","1","1","2025-07-16T08:58:37.614Z","","","","","","","","","","","AttribQ","","50","","","","","","","","","","","","","","","","","","","","","","","","","","","","",""
"3484","","<div style=""width:500px;"">
  <p>How much control did you have over the ball?</p>
  </div>","96","html-slider-response","21","310021","0.0-5.0-2.2","82","1","2025-07-16 08:53:26","1f75c3e559b7213887762d5229550c2b","62.164.249.91","Mozilla/5.0 (Windows NT 10.0; Win64; x64) AppleWebKit/537.36 (KHTML, like Gecko) Chrome/132.0.0.0 Safari/537.36","WebKit","Chrome","132.0.0.0","Windows","10.0","https://app.prolific.com/","en-US,en;q=0.9","6792a60bf1238ae52e645ecb","686e379bc37a29ffa5cdc956","687767ae4db0c4ca3c7def43","1","1","6792a60bf1238ae52e645ecb","1","1","2025-07-16T08:58:41.099Z","","","","","","","","","","","ControlQ","","50","","","","","","","","","","","","","","","","","","","","","","","","","","","","",""
"2964","","<div style=""width:500px;"">
  <p>How would you describe your current emotional state?</p>
  </div>","2","html-slider-response","22","312986","0.0-5.0-3.2","82","1","2025-07-16 08:53:26","1f75c3e559b7213887762d5229550c2b","62.164.249.91","Mozilla/5.0 (Windows NT 10.0; Win64; x64) AppleWebKit/537.36 (KHTML, like Gecko) Chrome/132.0.0.0 Safari/537.36","WebKit","Chrome","132.0.0.0","Windows","10.0","https://app.prolific.com/","en-US,en;q=0.9","6792a60bf1238ae52e645ecb","686e379bc37a29ffa5cdc956","687767ae4db0c4ca3c7def43","1","1","6792a60bf1238ae52e645ecb","1","1","2025-07-16T08:58:44.064Z","","","","","","","","","","","StressQ","","50","","","","","","","","","","","","","","","","","","","","","","","","","","","","",""
"3154","","<div style=""width:500px;"">
  <p>What best describes how you currently feel?</p>
  </div>","97","html-slider-response","23","316141","0.0-5.0-4.2","82","1","2025-07-16 08:53:26","1f75c3e559b7213887762d5229550c2b","62.164.249.91","Mozilla/5.0 (Windows NT 10.0; Win64; x64) AppleWebKit/537.36 (KHTML, like Gecko) Chrome/132.0.0.0 Safari/537.36","WebKit","Chrome","132.0.0.0","Windows","10.0","https://app.prolific.com/","en-US,en;q=0.9","6792a60bf1238ae52e645ecb","686e379bc37a29ffa5cdc956","687767ae4db0c4ca3c7def43","1","1","6792a60bf1238ae52e645ecb","1","1","2025-07-16T08:58:47.219Z","","","","","","","","","","","MotivationQ","","50","","","","","","","","","","","","","","","","","","","","","","","","","","","","",""
"","","","","ctl-task-cpt","24","339586","0.0-5.0-0.3","82","1","2025-07-16 08:53:26","1f75c3e559b7213887762d5229550c2b","62.164.249.91","Mozilla/5.0 (Windows NT 10.0; Win64; x64) AppleWebKit/537.36 (KHTML, like Gecko) Chrome/132.0.0.0 Safari/537.36","WebKit","Chrome","132.0.0.0","Windows","10.0","https://app.prolific.com/","en-US,en;q=0.9","6792a60bf1238ae52e645ecb","686e379bc37a29ffa5cdc956","687767ae4db0c4ca3c7def43","1","1","6792a60bf1238ae52e645ecb","1","1","2025-07-16T08:59:10.664Z","","","","","","","","","","","","","","win-only","2","g1:SE,g2:NW","0.7","4","0","321954.5","1509","6512","20428.3","1","4","8","6","1","1","1","3","2","0.022727272727272728","1299.8","3000","1560","[""down"",""right""]","{""num_key_presses"":4,""num_perfect"":2,""num_errors"":0,""num_randdir"":2,""num_randdir_good_moves"":2,""num_whilered"":0,""num_whileblue"":0,""num_blue"":1,""num_good_moves"":4}","[294.22232142857143,299.12857142857143,0.5,294.22232142857143,299.12857142857143,101.8,294.22232142857143,299.12857142857143,202.7,294.22232142857143,299.12857142857143,302.7,294.22232142857143,299.12857142857143,403.1,297.22232142857143,300.12857142857143,504.2,342.22232142857143,330.12857142857143,606.7,432.22232142857143,406.12857142857143,707.2,464.22232142857143,463.12857142857143,812.4,464.22232142857143,487.12857142857143,912.7,541.2223214285714,519.1285714285714,1018.9,572.2223214285714,539.1285714285714,1121.6,572.2223214285714,539.1285714285714,1222.9,572.2223214285714,539.1285714285714,1323.1,572.2223214285714,539.1285714285714,1426.3,572.2223214285714,539.1285714285714,1527.9,572.2223214285714,539.1285714285714,1632.7,572.2223214285714,539.1285714285714,1733.5,572.2223214285714,539.1285714285714,1836.4,572.2223214285714,539.1285714285714,1937,488.22232142857143,508.12857142857143,2038.1,371.22232142857143,468.12857142857143,2143,370.22232142857143,445.12857142857143,2246.3,402.22232142857143,400.12857142857143,2347.1,404.22232142857143,396.12857142857143,2453.7,404.22232142857143,396.12857142857143,2554.7,404.22232142857143,396.12857142857143,2657,404.22232142857143,396.12857142857143,2761.6,404.22232142857143,396.12857142857143,2862.3,404.22232142857143,396.12857142857143,2962.5,404.22232142857143,396.12857142857143,3062.8,404.22232142857143,396.12857142857143,3163.1,404.22232142857143,396.12857142857143,3268.2,404.22232142857143,396.12857142857143,3372.8,404.22232142857143,396.12857142857143,3476.8,404.22232142857143,396.12857142857143,3582.7,404.22232142857143,396.12857142857143,3683,404.22232142857143,396.12857142857143,3787,404.22232142857143,396.12857142857143,3892.3,404.22232142857143,396.12857142857143,3992.9,404.22232142857143,396.12857142857143,4097.8,404.22232142857143,396.12857142857143,4201.4,404.22232142857143,396.12857142857143,4301.4,404.22232142857143,396.12857142857143,4403.6,404.22232142857143,396.12857142857143,4506.4,404.22232142857143,396.12857142857143,4606.5,404.22232142857143,396.12857142857143,4706.8,404.22232142857143,396.12857142857143,4812.7,404.22232142857143,396.12857142857143,4918]","[5037,5037,2661.6,2003.6,371.8,""oops"",""down"",""right"",""good_move"",7739.8,2701.9,2310.4,5037.9,391.5,""smooth"",""down"",""down"",""good_move"",10600.9,2860.8,2520.8,7740.1,340,""oops"",""down"",""down"",""good_move"",13814.6,3213.3,2861,10601.3,352.3,""smooth"",""right"",""right"",""good_move""]","",""
"2821","","<div style=""width:500px;"">
  <p>What determined the result of this run?</p>
  </div>","98","html-slider-response","25","342409","0.0-5.0-1.3","82","1","2025-07-16 08:53:26","1f75c3e559b7213887762d5229550c2b","62.164.249.91","Mozilla/5.0 (Windows NT 10.0; Win64; x64) AppleWebKit/537.36 (KHTML, like Gecko) Chrome/132.0.0.0 Safari/537.36","WebKit","Chrome","132.0.0.0","Windows","10.0","https://app.prolific.com/","en-US,en;q=0.9","6792a60bf1238ae52e645ecb","686e379bc37a29ffa5cdc956","687767ae4db0c4ca3c7def43","1","1","6792a60bf1238ae52e645ecb","1","1","2025-07-16T08:59:13.487Z","","","","","","","","","","","AttribQ","","50","","","","","","","","","","","","","","","","","","","","","","","","","","","","",""
"3126","","<div style=""width:500px;"">
  <p>How much control did you have over the ball?</p>
  </div>","97","html-slider-response","26","345536","0.0-5.0-2.3","82","1","2025-07-16 08:53:26","1f75c3e559b7213887762d5229550c2b","62.164.249.91","Mozilla/5.0 (Windows NT 10.0; Win64; x64) AppleWebKit/537.36 (KHTML, like Gecko) Chrome/132.0.0.0 Safari/537.36","WebKit","Chrome","132.0.0.0","Windows","10.0","https://app.prolific.com/","en-US,en;q=0.9","6792a60bf1238ae52e645ecb","686e379bc37a29ffa5cdc956","687767ae4db0c4ca3c7def43","1","1","6792a60bf1238ae52e645ecb","1","1","2025-07-16T08:59:16.614Z","","","","","","","","","","","ControlQ","","50","","","","","","","","","","","","","","","","","","","","","","","","","","","","",""
"3880","","<div style=""width:500px;"">
  <p>How would you describe your current emotional state?</p>
  </div>","5","html-slider-response","27","349417","0.0-5.0-3.3","82","1","2025-07-16 08:53:26","1f75c3e559b7213887762d5229550c2b","62.164.249.91","Mozilla/5.0 (Windows NT 10.0; Win64; x64) AppleWebKit/537.36 (KHTML, like Gecko) Chrome/132.0.0.0 Safari/537.36","WebKit","Chrome","132.0.0.0","Windows","10.0","https://app.prolific.com/","en-US,en;q=0.9","6792a60bf1238ae52e645ecb","686e379bc37a29ffa5cdc956","687767ae4db0c4ca3c7def43","1","1","6792a60bf1238ae52e645ecb","1","1","2025-07-16T08:59:20.495Z","","","","","","","","","","","StressQ","","50","","","","","","","","","","","","","","","","","","","","","","","","","","","","",""
"5100","","<div style=""width:500px;"">
  <p>What best describes how you currently feel?</p>
  </div>","98","html-slider-response","28","354517","0.0-5.0-4.3","82","1","2025-07-16 08:53:26","1f75c3e559b7213887762d5229550c2b","62.164.249.91","Mozilla/5.0 (Windows NT 10.0; Win64; x64) AppleWebKit/537.36 (KHTML, like Gecko) Chrome/132.0.0.0 Safari/537.36","WebKit","Chrome","132.0.0.0","Windows","10.0","https://app.prolific.com/","en-US,en;q=0.9","6792a60bf1238ae52e645ecb","686e379bc37a29ffa5cdc956","687767ae4db0c4ca3c7def43","1","1","6792a60bf1238ae52e645ecb","1","1","2025-07-16T08:59:25.595Z","","","","","","","","","","","MotivationQ","","50","","","","","","","","","","","","","","","","","","","","","","","","","","","","",""
"","","","","ctl-task-cpt","29","394130","0.0-5.0-0.4","82","1","2025-07-16 08:53:26","1f75c3e559b7213887762d5229550c2b","62.164.249.91","Mozilla/5.0 (Windows NT 10.0; Win64; x64) AppleWebKit/537.36 (KHTML, like Gecko) Chrome/132.0.0.0 Safari/537.36","WebKit","Chrome","132.0.0.0","Windows","10.0","https://app.prolific.com/","en-US,en;q=0.9","6792a60bf1238ae52e645ecb","686e379bc37a29ffa5cdc956","687767ae4db0c4ca3c7def43","1","1","6792a60bf1238ae52e645ecb","1","1","2025-07-16T09:00:05.208Z","","","","","","","","","","","","","","win-only","3","g1:SW,g2:NE","0.6","5","0","360330.4","1402.6","6410.4","36591.5","1","4","8","6","2","-8","-8","0","3","0","1963.9","3000","-2980","[""up"",""right""]","{""num_key_presses"":9,""num_perfect"":6,""num_errors"":0,""num_randdir"":3,""num_randdir_good_moves"":1,""num_whilered"":0,""num_whileblue"":0,""num_blue"":1,""num_good_moves"":7}","[301.22232142857143,293.12857142857143,0.2,301.22232142857143,293.12857142857143,103.7,301.22232142857143,293.12857142857143,207.6,301.22232142857143,293.12857142857143,308.2,301.22232142857143,293.12857142857143,408.3,301.22232142857143,293.12857142857143,514.5,301.22232142857143,293.12857142857143,618.5,301.22232142857143,293.12857142857143,723.5,301.22232142857143,293.12857142857143,829.9,301.22232142857143,293.12857142857143,930.7,304.22232142857143,292.12857142857143,1030.9,325.22232142857143,277.12857142857143,1133,374.22232142857143,240.12857142857143,1233,562.2223214285714,80.12857142857143,1333.1,602.2223214285714,53.128571428571426,1433.4,603.2223214285714,51.128571428571426,1533.5,576.2223214285714,58.128571428571426,1633.7,562.2223214285714,61.128571428571426,1738.5,562.2223214285714,61.128571428571426,1839.5,562.2223214285714,61.128571428571426,1943.8,562.2223214285714,61.128571428571426,2045.8,562.2223214285714,61.128571428571426,2146.5,562.2223214285714,61.128571428571426,2246.7,562.2223214285714,61.128571428571426,2347.3,562.2223214285714,61.128571428571426,2448.6,562.2223214285714,61.128571428571426,2552.7,562.2223214285714,61.128571428571426,2653.1,562.2223214285714,61.128571428571426,2753.4,562.2223214285714,61.128571428571426,2854.5,562.2223214285714,61.128571428571426,2960.9,562.2223214285714,61.128571428571426,3063.6,562.2223214285714,61.128571428571426,3167.6,562.2223214285714,61.128571428571426,3268.5,562.2223214285714,61.128571428571426,3372.6,562.2223214285714,61.128571428571426,3473.2,562.2223214285714,61.128571428571426,3573.4,562.2223214285714,61.128571428571426,3681,562.2223214285714,61.128571428571426,3782.9,562.2223214285714,61.128571428571426,3883.4,562.2223214285714,61.128571428571426,3989.3,562.2223214285714,61.128571428571426,4094.8,562.2223214285714,61.128571428571426,4196.1,562.2223214285714,61.128571428571426,4298.2,562.2223214285714,61.128571428571426,4398.6,562.2223214285714,61.128571428571426,4504.4,562.2223214285714,61.128571428571426,4610.2,562.2223214285714,61.128571428571426,4710.9,562.2223214285714,61.128571428571426,4813.5,562.2223214285714,61.128571428571426,4918.6]","[1371,1371,1000,0,371,""smooth"",""right"",""right"",""good_move"",4269.3,2897.7,2587.1,1371.6,310.6,""smooth"",""right"",""right"",""good_move"",7735.2,3465.6,3163.7,4269.6,301.9,""smooth"",""right"",""right"",""good_move"",10642.3,2906.9,2632.6,7735.5,274.2,""oops"",""up"",""up"",""good_move"",13098,2455.4,2142.6,10642.6,312.8,""smooth"",""up"",""up"",""good_move"",19024.8,5926.5,1941.2,16781.3,302.3,""oops"",""up"",""left"",""bad_move"",21971.8,2946.5,2609.4,19025.3,337.1,""smooth"",""up"",""up"",""good_move"",24435.3,2463.2,2161.1,21972.1,302.1,""oops"",""right"",""left"",""bad_move"",26826.6,2391,2098.6,24435.6,292.4,""smooth"",""right"",""right"",""good_move""]","",""
"4552","","<div style=""width:500px;"">
  <p>What determined the result of this run?</p>
  </div>","85","html-slider-response","30","398684","0.0-5.0-1.4","82","1","2025-07-16 08:53:26","1f75c3e559b7213887762d5229550c2b","62.164.249.91","Mozilla/5.0 (Windows NT 10.0; Win64; x64) AppleWebKit/537.36 (KHTML, like Gecko) Chrome/132.0.0.0 Safari/537.36","WebKit","Chrome","132.0.0.0","Windows","10.0","https://app.prolific.com/","en-US,en;q=0.9","6792a60bf1238ae52e645ecb","686e379bc37a29ffa5cdc956","687767ae4db0c4ca3c7def43","1","1","6792a60bf1238ae52e645ecb","1","1","2025-07-16T09:00:09.762Z","","","","","","","","","","","AttribQ","","50","","","","","","","","","","","","","","","","","","","","","","","","","","","","",""
"2850","","<div style=""width:500px;"">
  <p>How much control did you have over the ball?</p>
  </div>","95","html-slider-response","31","401535","0.0-5.0-2.4","82","1","2025-07-16 08:53:26","1f75c3e559b7213887762d5229550c2b","62.164.249.91","Mozilla/5.0 (Windows NT 10.0; Win64; x64) AppleWebKit/537.36 (KHTML, like Gecko) Chrome/132.0.0.0 Safari/537.36","WebKit","Chrome","132.0.0.0","Windows","10.0","https://app.prolific.com/","en-US,en;q=0.9","6792a60bf1238ae52e645ecb","686e379bc37a29ffa5cdc956","687767ae4db0c4ca3c7def43","1","1","6792a60bf1238ae52e645ecb","1","1","2025-07-16T09:00:12.613Z","","","","","","","","","","","ControlQ","","50","","","","","","","","","","","","","","","","","","","","","","","","","","","","",""
"2432","","<div style=""width:500px;"">
  <p>How would you describe your current emotional state?</p>
  </div>","92","html-slider-response","32","403968","0.0-5.0-3.4","82","1","2025-07-16 08:53:26","1f75c3e559b7213887762d5229550c2b","62.164.249.91","Mozilla/5.0 (Windows NT 10.0; Win64; x64) AppleWebKit/537.36 (KHTML, like Gecko) Chrome/132.0.0.0 Safari/537.36","WebKit","Chrome","132.0.0.0","Windows","10.0","https://app.prolific.com/","en-US,en;q=0.9","6792a60bf1238ae52e645ecb","686e379bc37a29ffa5cdc956","687767ae4db0c4ca3c7def43","1","1","6792a60bf1238ae52e645ecb","1","1","2025-07-16T09:00:15.046Z","","","","","","","","","","","StressQ","","50","","","","","","","","","","","","","","","","","","","","","","","","","","","","",""
"2461","","<div style=""width:500px;"">
  <p>What best describes how you currently feel?</p>
  </div>","99","html-slider-response","33","406430","0.0-5.0-4.4","82","1","2025-07-16 08:53:26","1f75c3e559b7213887762d5229550c2b","62.164.249.91","Mozilla/5.0 (Windows NT 10.0; Win64; x64) AppleWebKit/537.36 (KHTML, like Gecko) Chrome/132.0.0.0 Safari/537.36","WebKit","Chrome","132.0.0.0","Windows","10.0","https://app.prolific.com/","en-US,en;q=0.9","6792a60bf1238ae52e645ecb","686e379bc37a29ffa5cdc956","687767ae4db0c4ca3c7def43","1","1","6792a60bf1238ae52e645ecb","1","1","2025-07-16T09:00:17.508Z","","","","","","","","","","","MotivationQ","","50","","","","","","","","","","","","","","","","","","","","","","","","","","","","",""
"","","","","ctl-task-cpt","34","429413","0.0-5.0-0.5","82","1","2025-07-16 08:53:26","1f75c3e559b7213887762d5229550c2b","62.164.249.91","Mozilla/5.0 (Windows NT 10.0; Win64; x64) AppleWebKit/537.36 (KHTML, like Gecko) Chrome/132.0.0.0 Safari/537.36","WebKit","Chrome","132.0.0.0","Windows","10.0","https://app.prolific.com/","en-US,en;q=0.9","6792a60bf1238ae52e645ecb","686e379bc37a29ffa5cdc956","687767ae4db0c4ca3c7def43","1","1","6792a60bf1238ae52e645ecb","1","1","2025-07-16T09:00:40.491Z","","","","","","","","","","","","","","win-only","0","g1:NW,g2:SE","0.5","6","0","412243.1","1419.1","6420.5","19965.5","1","4","4","6","1","1","1","1","0","0.007575757575757576","2061.6","3000","1780","[""left"",""up""]","{""num_key_presses"":4,""num_perfect"":2,""num_errors"":0,""num_randdir"":2,""num_randdir_good_moves"":2,""num_whilered"":0,""num_whileblue"":0,""num_blue"":1,""num_good_moves"":4}","[300.22232142857143,302.12857142857143,0.2,300.22232142857143,302.12857142857143,101.1,300.22232142857143,302.12857142857143,201.8,300.22232142857143,302.12857142857143,304,300.22232142857143,302.12857142857143,407,300.22232142857143,302.12857142857143,507.3,300.22232142857143,302.12857142857143,607.4,304.22232142857143,307.12857142857143,708.9,374.22232142857143,403.12857142857143,809.3,412.22232142857143,467.12857142857143,918.3,416.22232142857143,473.12857142857143,1022.5,416.22232142857143,474.12857142857143,1129.7,416.22232142857143,474.12857142857143,1229.9,217.22232142857143,289.12857142857143,1331.2,104.22232142857143,120.12857142857143,1431.3,95.22232142857143,93.12857142857143,1535.8,82.22232142857143,61.128571428571426,1637.5,75.22232142857143,53.128571428571426,1748.6,74.22232142857143,50.128571428571426,1851.9,74.22232142857143,50.128571428571426,1956.4,74.22232142857143,50.128571428571426,2064.5,74.22232142857143,50.128571428571426,2164.5,74.22232142857143,50.128571428571426,2267.9,74.22232142857143,50.128571428571426,2371.7,74.22232142857143,50.128571428571426,2472.6,74.22232142857143,50.128571428571426,2580.1,74.22232142857143,50.128571428571426,2681.4,74.22232142857143,50.128571428571426,2781.5,74.22232142857143,50.128571428571426,2882.1,74.22232142857143,50.128571428571426,2986.3,74.22232142857143,50.128571428571426,3086.7,74.22232142857143,50.128571428571426,3187.1,74.22232142857143,50.128571428571426,3297.9,74.22232142857143,50.128571428571426,3401.1,74.22232142857143,50.128571428571426,3502.5,74.22232142857143,50.128571428571426,3613.9,74.22232142857143,50.128571428571426,3714,74.22232142857143,50.128571428571426,3817.1,74.22232142857143,50.128571428571426,3919.1,74.22232142857143,50.128571428571426,4021.4,74.22232142857143,50.128571428571426,4122.3,74.22232142857143,50.128571428571426,4222.3,74.22232142857143,50.128571428571426,4322.3,74.22232142857143,50.128571428571426,4430.7,74.22232142857143,50.128571428571426,4531,74.22232142857143,50.128571428571426,4632.6,74.22232142857143,50.128571428571426,4736.6,74.22232142857143,50.128571428571426,4836.9,74.22232142857143,50.128571428571426,4947.1]","[1346.5,1346.5,1000,0,346.5,""oops"",""left"",""left"",""good_move"",7628.7,6281.7,2672.6,4535.5,420.6,""smooth"",""left"",""left"",""good_move"",11025.3,3396.3,3068.8,7629,327.5,""smooth"",""up"",""up"",""good_move"",13442.4,2416.8,2105.1,11025.6,311.7,""oops"",""up"",""up"",""good_move""]","",""
"3981","","<div style=""width:500px;"">
  <p>What determined the result of this run?</p>
  </div>","95","html-slider-response","35","433395","0.0-5.0-1.5","82","1","2025-07-16 08:53:26","1f75c3e559b7213887762d5229550c2b","62.164.249.91","Mozilla/5.0 (Windows NT 10.0; Win64; x64) AppleWebKit/537.36 (KHTML, like Gecko) Chrome/132.0.0.0 Safari/537.36","WebKit","Chrome","132.0.0.0","Windows","10.0","https://app.prolific.com/","en-US,en;q=0.9","6792a60bf1238ae52e645ecb","686e379bc37a29ffa5cdc956","687767ae4db0c4ca3c7def43","1","1","6792a60bf1238ae52e645ecb","1","1","2025-07-16T09:00:44.473Z","","","","","","","","","","","AttribQ","","50","","","","","","","","","","","","","","","","","","","","","","","","","","","","",""
"7617","","<div style=""width:500px;"">
  <p>How much control did you have over the ball?</p>
  </div>","99","html-slider-response","36","441012","0.0-5.0-2.5","82","1","2025-07-16 08:53:26","1f75c3e559b7213887762d5229550c2b","62.164.249.91","Mozilla/5.0 (Windows NT 10.0; Win64; x64) AppleWebKit/537.36 (KHTML, like Gecko) Chrome/132.0.0.0 Safari/537.36","WebKit","Chrome","132.0.0.0","Windows","10.0","https://app.prolific.com/","en-US,en;q=0.9","6792a60bf1238ae52e645ecb","686e379bc37a29ffa5cdc956","687767ae4db0c4ca3c7def43","1","1","6792a60bf1238ae52e645ecb","1","1","2025-07-16T09:00:52.090Z","","","","","","","","","","","ControlQ","","50","","","","","","","","","","","","","","","","","","","","","","","","","","","","",""
"2684","","<div style=""width:500px;"">
  <p>How would you describe your current emotional state?</p>
  </div>","95","html-slider-response","37","443697","0.0-5.0-3.5","82","1","2025-07-16 08:53:26","1f75c3e559b7213887762d5229550c2b","62.164.249.91","Mozilla/5.0 (Windows NT 10.0; Win64; x64) AppleWebKit/537.36 (KHTML, like Gecko) Chrome/132.0.0.0 Safari/537.36","WebKit","Chrome","132.0.0.0","Windows","10.0","https://app.prolific.com/","en-US,en;q=0.9","6792a60bf1238ae52e645ecb","686e379bc37a29ffa5cdc956","687767ae4db0c4ca3c7def43","1","1","6792a60bf1238ae52e645ecb","1","1","2025-07-16T09:00:54.776Z","","","","","","","","","","","StressQ","","50","","","","","","","","","","","","","","","","","","","","","","","","","","","","",""
"4542","","<div style=""width:500px;"">
  <p>What best describes how you currently feel?</p>
  </div>","97","html-slider-response","38","448240","0.0-5.0-4.5","82","1","2025-07-16 08:53:26","1f75c3e559b7213887762d5229550c2b","62.164.249.91","Mozilla/5.0 (Windows NT 10.0; Win64; x64) AppleWebKit/537.36 (KHTML, like Gecko) Chrome/132.0.0.0 Safari/537.36","WebKit","Chrome","132.0.0.0","Windows","10.0","https://app.prolific.com/","en-US,en;q=0.9","6792a60bf1238ae52e645ecb","686e379bc37a29ffa5cdc956","687767ae4db0c4ca3c7def43","1","1","6792a60bf1238ae52e645ecb","1","1","2025-07-16T09:00:59.319Z","","","","","","","","","","","MotivationQ","","50","","","","","","","","","","","","","","","","","","","","","","","","","","","","",""
"","","","","ctl-task-cpt","39","486656","0.0-5.0-0.6","82","1","2025-07-16 08:53:26","1f75c3e559b7213887762d5229550c2b","62.164.249.91","Mozilla/5.0 (Windows NT 10.0; Win64; x64) AppleWebKit/537.36 (KHTML, like Gecko) Chrome/132.0.0.0 Safari/537.36","WebKit","Chrome","132.0.0.0","Windows","10.0","https://app.prolific.com/","en-US,en;q=0.9","6792a60bf1238ae52e645ecb","686e379bc37a29ffa5cdc956","687767ae4db0c4ca3c7def43","1","1","6792a60bf1238ae52e645ecb","1","1","2025-07-16T09:01:37.734Z","","","","","","","","","","","","","","win-only","2","g1:SE,g2:NW","0.4","7","0","454053.9","1387.9","6390.6","35391.4","1","4","4","6","1","-1","-2","0","1","0","4394.7","3000","-2935","[""down"",""right""]","{""num_key_presses"":7,""num_perfect"":1,""num_errors"":1,""num_randdir"":5,""num_randdir_good_moves"":3,""num_whilered"":0,""num_whileblue"":0,""num_blue"":2,""num_good_moves"":4}","[295.22232142857143,300.12857142857143,0.3,295.22232142857143,300.12857142857143,103.2,295.22232142857143,300.12857142857143,207.5,295.22232142857143,300.12857142857143,311.2,295.22232142857143,300.12857142857143,413.1,295.22232142857143,300.12857142857143,517.4,295.22232142857143,300.12857142857143,617.6,295.22232142857143,300.12857142857143,717.6,295.22232142857143,300.12857142857143,818.3,295.22232142857143,300.12857142857143,922.7,295.22232142857143,300.12857142857143,1022.8,295.22232142857143,300.12857142857143,1130.6,295.22232142857143,300.12857142857143,1230.7,295.22232142857143,300.12857142857143,1332.1,295.22232142857143,300.12857142857143,1433.4,295.22232142857143,300.12857142857143,1538.8,295.22232142857143,300.12857142857143,1642.4,295.22232142857143,300.12857142857143,1745.2,295.22232142857143,300.12857142857143,1846.1,295.22232142857143,300.12857142857143,1947.7,295.22232142857143,300.12857142857143,2048.1,295.22232142857143,300.12857142857143,2152.3,295.22232142857143,300.12857142857143,2252.9,295.22232142857143,300.12857142857143,2359.2,295.22232142857143,300.12857142857143,2466.1,295.22232142857143,300.12857142857143,2567.7,295.22232142857143,300.12857142857143,2667.7,295.22232142857143,300.12857142857143,2767.7,306.22232142857143,309.12857142857143,2868.4,343.22232142857143,338.12857142857143,2976.1,353.22232142857143,357.12857142857143,3076.2,353.22232142857143,360.12857142857143,3178.4,353.22232142857143,360.12857142857143,3281.2,353.22232142857143,360.12857142857143,3382.7,353.22232142857143,360.12857142857143,3482.7,353.22232142857143,360.12857142857143,3582.7,469.22232142857143,468.12857142857143,3687.7,471.22232142857143,470.12857142857143,3787.7,471.22232142857143,470.12857142857143,3893.5,477.22232142857143,473.12857142857143,3996.7,503.22232142857143,491.12857142857143,4098.6,536.2223214285714,525.1285714285714,4202.6,539.2223214285714,528.1285714285714,4304.2,539.2223214285714,528.1285714285714,4411,539.2223214285714,528.1285714285714,4511.3,539.2223214285714,528.1285714285714,4613.5,539.2223214285714,528.1285714285714,4717.6,539.2223214285714,528.1285714285714,4817.9,539.2223214285714,528.1285714285714,4918.3]","[1983.8,1983.8,1000,0,983.8,""oops"",""down"",""left"",""bad_move"",8426.8,6442.4,2260.6,5715.8,450.4,""oops"",""right"",""right"",""good_move"",11379,2951.6,2518.6,8427.4,433,""smooth"",""right"",""right"",""good_move"",14376,2996.7,2625.6,11379.4,371,""oops"",""right"",""right"",""good_move"",21561.4,7184.9,2020.9,19165.3,375.2,""oops"",""down"",""down"",""good_move"",24186.6,2625,2269.8,21561.6,355.2,""oops"",""down"",""up"",""bad_move"",24976,788.7,2910.6,24187.3,-2121.9,""error"",""-"",""-"",""no_move""]","",""
"5291","","<div style=""width:500px;"">
  <p>What determined the result of this run?</p>
  </div>","100","html-slider-response","40","491948","0.0-5.0-1.6","82","1","2025-07-16 08:53:26","1f75c3e559b7213887762d5229550c2b","62.164.249.91","Mozilla/5.0 (Windows NT 10.0; Win64; x64) AppleWebKit/537.36 (KHTML, like Gecko) Chrome/132.0.0.0 Safari/537.36","WebKit","Chrome","132.0.0.0","Windows","10.0","https://app.prolific.com/","en-US,en;q=0.9","6792a60bf1238ae52e645ecb","686e379bc37a29ffa5cdc956","687767ae4db0c4ca3c7def43","1","1","6792a60bf1238ae52e645ecb","1","1","2025-07-16T09:01:43.026Z","","","","","","","","","","","AttribQ","","50","","","","","","","","","","","","","","","","","","","","","","","","","","","","",""
"4038","","<div style=""width:500px;"">
  <p>How much control did you have over the ball?</p>
  </div>","97","html-slider-response","41","495987","0.0-5.0-2.6","82","1","2025-07-16 08:53:26","1f75c3e559b7213887762d5229550c2b","62.164.249.91","Mozilla/5.0 (Windows NT 10.0; Win64; x64) AppleWebKit/537.36 (KHTML, like Gecko) Chrome/132.0.0.0 Safari/537.36","WebKit","Chrome","132.0.0.0","Windows","10.0","https://app.prolific.com/","en-US,en;q=0.9","6792a60bf1238ae52e645ecb","686e379bc37a29ffa5cdc956","687767ae4db0c4ca3c7def43","1","1","6792a60bf1238ae52e645ecb","1","1","2025-07-16T09:01:47.065Z","","","","","","","","","","","ControlQ","","50","","","","","","","","","","","","","","","","","","","","","","","","","","","","",""
"159607","","<div style=""width:500px;"">
  <p>How would you describe your current emotional state?</p>
  </div>","100","html-slider-response","42","655595","0.0-5.0-3.6","82","1","2025-07-16 08:53:26","1f75c3e559b7213887762d5229550c2b","62.164.249.91","Mozilla/5.0 (Windows NT 10.0; Win64; x64) AppleWebKit/537.36 (KHTML, like Gecko) Chrome/132.0.0.0 Safari/537.36","WebKit","Chrome","132.0.0.0","Windows","10.0","https://app.prolific.com/","en-US,en;q=0.9","6792a60bf1238ae52e645ecb","686e379bc37a29ffa5cdc956","687767ae4db0c4ca3c7def43","1","1","6792a60bf1238ae52e645ecb","1","1","2025-07-16T09:04:26.673Z","","","","","","","","","","","StressQ","","50","","","","","","","","","","","","","","","","","","","","","","","","","","","","",""
"3504","","<div style=""width:500px;"">
  <p>What best describes how you currently feel?</p>
  </div>","95","html-slider-response","43","659100","0.0-5.0-4.6","82","1","2025-07-16 08:53:26","1f75c3e559b7213887762d5229550c2b","62.164.249.91","Mozilla/5.0 (Windows NT 10.0; Win64; x64) AppleWebKit/537.36 (KHTML, like Gecko) Chrome/132.0.0.0 Safari/537.36","WebKit","Chrome","132.0.0.0","Windows","10.0","https://app.prolific.com/","en-US,en;q=0.9","6792a60bf1238ae52e645ecb","686e379bc37a29ffa5cdc956","687767ae4db0c4ca3c7def43","1","1","6792a60bf1238ae52e645ecb","1","1","2025-07-16T09:04:30.178Z","","","","","","","","","","","MotivationQ","","50","","","","","","","","","","","","","","","","","","","","","","","","","","","","",""
"","","","","ctl-task-cpt","44","717941","0.0-5.0-0.7","82","1","2025-07-16 08:53:26","1f75c3e559b7213887762d5229550c2b","62.164.249.91","Mozilla/5.0 (Windows NT 10.0; Win64; x64) AppleWebKit/537.36 (KHTML, like Gecko) Chrome/132.0.0.0 Safari/537.36","WebKit","Chrome","132.0.0.0","Windows","10.0","https://app.prolific.com/","en-US,en;q=0.9","6792a60bf1238ae52e645ecb","686e379bc37a29ffa5cdc956","687767ae4db0c4ca3c7def43","1","1","6792a60bf1238ae52e645ecb","1","1","2025-07-16T09:05:29.019Z","","","","","","","","","","","","","","win-only","0","g1:NW,g2:SE","0.3","8","0","664913.9","1342.2","6347.3","55822.2","1","4","8","6","2","-8","-9","0","0","0","1255.1","3000","-2490","[""down"",""right""]","{""num_key_presses"":11,""num_perfect"":3,""num_errors"":1,""num_randdir"":7,""num_randdir_good_moves"":3,""num_whilered"":0,""num_whileblue"":0,""num_blue"":5,""num_good_moves"":6}","[296.22232142857143,302.12857142857143,0.4,296.22232142857143,302.12857142857143,104.1,296.22232142857143,302.12857142857143,216.7,296.22232142857143,302.12857142857143,319.4,296.22232142857143,302.12857142857143,424.2,296.22232142857143,302.12857142857143,524.7,296.22232142857143,302.12857142857143,634.1,399.22232142857143,411.12857142857143,738.9,466.22232142857143,530.1285714285714,844.3,476.22232142857143,538.1285714285714,944.7,528.2223214285714,548.1285714285714,1048.3,533.2223214285714,548.1285714285714,1149.1,533.2223214285714,548.1285714285714,1254.3,533.2223214285714,548.1285714285714,1354.7,533.2223214285714,548.1285714285714,1466.5,533.2223214285714,548.1285714285714,1568.7,533.2223214285714,548.1285714285714,1674.1,533.2223214285714,548.1285714285714,1780,533.2223214285714,548.1285714285714,1885,533.2223214285714,548.1285714285714,1988.6,411.22232142857143,462.12857142857143,2088.8,304.22232142857143,390.12857142857143,2194.9,284.22232142857143,375.12857142857143,2295.3,284.22232142857143,375.12857142857143,2398.8,284.22232142857143,375.12857142857143,2504.2,284.22232142857143,375.12857142857143,2605,284.22232142857143,375.12857142857143,2713.6,284.22232142857143,375.12857142857143,2813.8,284.22232142857143,375.12857142857143,2915.3,284.22232142857143,375.12857142857143,3020.1,284.22232142857143,375.12857142857143,3124.4,284.22232142857143,375.12857142857143,3229.5,284.22232142857143,375.12857142857143,3334.4,284.22232142857143,375.12857142857143,3438.7,284.22232142857143,375.12857142857143,3548.5,284.22232142857143,375.12857142857143,3649.1,284.22232142857143,375.12857142857143,3749.3,284.22232142857143,375.12857142857143,3854.3,284.22232142857143,375.12857142857143,3954.4,284.22232142857143,375.12857142857143,4061,284.22232142857143,375.12857142857143,4164.6,284.22232142857143,375.12857142857143,4265.4,284.22232142857143,375.12857142857143,4369.5,284.22232142857143,375.12857142857143,4473.8,284.22232142857143,375.12857142857143,4574.4,284.22232142857143,375.12857142857143,4684.3,284.22232142857143,375.12857142857143,4789.2,284.22232142857143,375.12857142857143,4897.5,284.22232142857143,375.12857142857143,4999.6]","[8939.8,8939.8,2716.4,5883.9,339.5,""oops"",""down"",""up"",""bad_move"",15560.1,6619.9,2620.9,12593.8,345.4,""oops"",""right"",""left"",""bad_move"",18397.6,2837.2,2442.5,15560.5,394.7,""smooth"",""down"",""down"",""good_move"",20720.6,2322,1800.7,18398.6,521.3,""oops"",""down"",""right"",""good_move"",27100.3,6379,2294.5,24410.1,395.7,""smooth"",""down"",""down"",""good_move"",30319.4,3218.9,2878,27100.5,340.9,""oops"",""right"",""right"",""good_move"",33040,2720,2359.9,30320,360.1,""smooth"",""right"",""right"",""good_move"",35478.7,2438.4,2071.6,33040.3,366.8,""oops"",""right"",""right"",""good_move"",38523.3,3044.3,2738.6,35479,305.7,""oops"",""down"",""up"",""bad_move"",39472.1,948.3,2849.6,38523.8,-1901.3,""error"",""-"",""-"",""no_move"",46563.4,7091,2905.9,43358.6,299,""oops"",""down"",""up"",""bad_move""]","",""
"11177","","<div style=""width:500px;"">
  <p>What determined the result of this run?</p>
  </div>","1","html-slider-response","45","729119","0.0-5.0-1.7","82","1","2025-07-16 08:53:26","1f75c3e559b7213887762d5229550c2b","62.164.249.91","Mozilla/5.0 (Windows NT 10.0; Win64; x64) AppleWebKit/537.36 (KHTML, like Gecko) Chrome/132.0.0.0 Safari/537.36","WebKit","Chrome","132.0.0.0","Windows","10.0","https://app.prolific.com/","en-US,en;q=0.9","6792a60bf1238ae52e645ecb","686e379bc37a29ffa5cdc956","687767ae4db0c4ca3c7def43","1","1","6792a60bf1238ae52e645ecb","1","1","2025-07-16T09:05:40.197Z","","","","","","","","","","","AttribQ","","50","","","","","","","","","","","","","","","","","","","","","","","","","","","","",""
"24335","","<div style=""width:500px;"">
  <p>How much control did you have over the ball?</p>
  </div>","3","html-slider-response","46","753455","0.0-5.0-2.7","82","1","2025-07-16 08:53:26","1f75c3e559b7213887762d5229550c2b","62.164.249.91","Mozilla/5.0 (Windows NT 10.0; Win64; x64) AppleWebKit/537.36 (KHTML, like Gecko) Chrome/132.0.0.0 Safari/537.36","WebKit","Chrome","132.0.0.0","Windows","10.0","https://app.prolific.com/","en-US,en;q=0.9","6792a60bf1238ae52e645ecb","686e379bc37a29ffa5cdc956","687767ae4db0c4ca3c7def43","1","1","6792a60bf1238ae52e645ecb","1","1","2025-07-16T09:06:04.533Z","","","","","","","","","","","ControlQ","","50","","","","","","","","","","","","","","","","","","","","","","","","","","","","",""
"4082","","<div style=""width:500px;"">
  <p>How would you describe your current emotional state?</p>
  </div>","96","html-slider-response","47","757538","0.0-5.0-3.7","82","1","2025-07-16 08:53:26","1f75c3e559b7213887762d5229550c2b","62.164.249.91","Mozilla/5.0 (Windows NT 10.0; Win64; x64) AppleWebKit/537.36 (KHTML, like Gecko) Chrome/132.0.0.0 Safari/537.36","WebKit","Chrome","132.0.0.0","Windows","10.0","https://app.prolific.com/","en-US,en;q=0.9","6792a60bf1238ae52e645ecb","686e379bc37a29ffa5cdc956","687767ae4db0c4ca3c7def43","1","1","6792a60bf1238ae52e645ecb","1","1","2025-07-16T09:06:08.616Z","","","","","","","","","","","StressQ","","50","","","","","","","","","","","","","","","","","","","","","","","","","","","","",""
"3010","","<div style=""width:500px;"">
  <p>What best describes how you currently feel?</p>
  </div>","100","html-slider-response","48","760549","0.0-5.0-4.7","82","1","2025-07-16 08:53:26","1f75c3e559b7213887762d5229550c2b","62.164.249.91","Mozilla/5.0 (Windows NT 10.0; Win64; x64) AppleWebKit/537.36 (KHTML, like Gecko) Chrome/132.0.0.0 Safari/537.36","WebKit","Chrome","132.0.0.0","Windows","10.0","https://app.prolific.com/","en-US,en;q=0.9","6792a60bf1238ae52e645ecb","686e379bc37a29ffa5cdc956","687767ae4db0c4ca3c7def43","1","1","6792a60bf1238ae52e645ecb","1","1","2025-07-16T09:06:11.628Z","","","","","","","","","","","MotivationQ","","50","","","","","","","","","","","","","","","","","","","","","","","","","","","","",""
"","","","","ctl-task-cpt","49","802284","0.0-5.0-0.8","82","1","2025-07-16 08:53:26","1f75c3e559b7213887762d5229550c2b","62.164.249.91","Mozilla/5.0 (Windows NT 10.0; Win64; x64) AppleWebKit/537.36 (KHTML, like Gecko) Chrome/132.0.0.0 Safari/537.36","WebKit","Chrome","132.0.0.0","Windows","10.0","https://app.prolific.com/","en-US,en;q=0.9","6792a60bf1238ae52e645ecb","686e379bc37a29ffa5cdc956","687767ae4db0c4ca3c7def43","1","1","6792a60bf1238ae52e645ecb","1","1","2025-07-16T09:06:53.362Z","","","","","","","","","","","","","","win-only","2","g1:SE,g2:NW","0.2","9","0","766364.3","1409.5","6416.4","38706.4","1","4","8","6","2","-8","-8","0","0","0","1853.8","3000","-2370","[""left"",""up""]","{""num_key_presses"":8,""num_perfect"":2,""num_errors"":0,""num_randdir"":6,""num_randdir_good_moves"":3,""num_whilered"":0,""num_whileblue"":0,""num_blue"":2,""num_good_moves"":5}","[297.22232142857143,298.12857142857143,0.4,297.22232142857143,298.12857142857143,106.5,297.22232142857143,298.12857142857143,208,297.22232142857143,298.12857142857143,312.4,297.22232142857143,298.12857142857143,412.9,297.22232142857143,298.12857142857143,523.3,297.22232142857143,298.12857142857143,626.6,297.22232142857143,298.12857142857143,731.9,297.22232142857143,298.12857142857143,833.1,297.22232142857143,298.12857142857143,940.9,293.22232142857143,298.12857142857143,1042.4,251.22232142857143,273.12857142857143,1143.6,140.22232142857143,154.12857142857143,1247.8,125.22232142857143,132.12857142857143,1353.1,99.22232142857143,121.12857142857143,1458.8,78.22232142857143,102.12857142857143,1561.2,73.22232142857143,95.12857142857143,1672.7,73.22232142857143,95.12857142857143,1773.4,73.22232142857143,95.12857142857143,1876.6,73.22232142857143,95.12857142857143,1977.1,73.22232142857143,95.12857142857143,2084.3,73.22232142857143,95.12857142857143,2197.7,73.22232142857143,95.12857142857143,2307.3,73.22232142857143,95.12857142857143,2407.3,73.22232142857143,95.12857142857143,2507.8,73.22232142857143,95.12857142857143,2612.3,73.22232142857143,95.12857142857143,2712.4,73.22232142857143,95.12857142857143,2822.3,73.22232142857143,95.12857142857143,2923.3,73.22232142857143,95.12857142857143,3027.7,73.22232142857143,95.12857142857143,3131.5,73.22232142857143,95.12857142857143,3232.2,73.22232142857143,95.12857142857143,3341.4,73.22232142857143,95.12857142857143,3446.6,73.22232142857143,95.12857142857143,3553,73.22232142857143,95.12857142857143,3658.2,73.22232142857143,95.12857142857143,3761,73.22232142857143,95.12857142857143,3861,73.22232142857143,95.12857142857143,3962.2,73.22232142857143,95.12857142857143,4072.8,73.22232142857143,95.12857142857143,4176,73.22232142857143,95.12857142857143,4288.7,73.22232142857143,95.12857142857143,4391.6,73.22232142857143,95.12857142857143,4492.5,73.22232142857143,95.12857142857143,4592.8,73.22232142857143,95.12857142857143,4696.7,73.22232142857143,95.12857142857143,4805.3,73.22232142857143,95.12857142857143,4906.3]","[1390.2,1390.2,1000,0,390.2,""oops"",""up"",""right"",""bad_move"",7680.2,6289.6,2656,4649.9,374.4,""oops"",""up"",""left"",""good_move"",10398,2717.3,2317.6,7680.7,399.7,""oops"",""up"",""up"",""good_move"",13486.8,3088.4,2779.6,10398.4,308.8,""oops"",""up"",""right"",""bad_move"",19264.3,5777,2675.6,16219.9,368.8,""smooth"",""up"",""up"",""good_move"",22266.2,3001.3,2555.9,19264.9,445.4,""oops"",""up"",""down"",""bad_move"",25711.4,3444.5,2462.2,22266.9,982.3,""oops"",""up"",""up"",""good_move"",29130,3418.2,3076.5,25711.8,341.7,""smooth"",""up"",""up"",""good_move""]","",""
"3498","","<div style=""width:500px;"">
  <p>What determined the result of this run?</p>
  </div>","1","html-slider-response","50","805783","0.0-5.0-1.8","82","1","2025-07-16 08:53:26","1f75c3e559b7213887762d5229550c2b","62.164.249.91","Mozilla/5.0 (Windows NT 10.0; Win64; x64) AppleWebKit/537.36 (KHTML, like Gecko) Chrome/132.0.0.0 Safari/537.36","WebKit","Chrome","132.0.0.0","Windows","10.0","https://app.prolific.com/","en-US,en;q=0.9","6792a60bf1238ae52e645ecb","686e379bc37a29ffa5cdc956","687767ae4db0c4ca3c7def43","1","1","6792a60bf1238ae52e645ecb","1","1","2025-07-16T09:06:56.861Z","","","","","","","","","","","AttribQ","","50","","","","","","","","","","","","","","","","","","","","","","","","","","","","",""
"5899","","<div style=""width:500px;"">
  <p>How much control did you have over the ball?</p>
  </div>","3","html-slider-response","51","811684","0.0-5.0-2.8","82","1","2025-07-16 08:53:26","1f75c3e559b7213887762d5229550c2b","62.164.249.91","Mozilla/5.0 (Windows NT 10.0; Win64; x64) AppleWebKit/537.36 (KHTML, like Gecko) Chrome/132.0.0.0 Safari/537.36","WebKit","Chrome","132.0.0.0","Windows","10.0","https://app.prolific.com/","en-US,en;q=0.9","6792a60bf1238ae52e645ecb","686e379bc37a29ffa5cdc956","687767ae4db0c4ca3c7def43","1","1","6792a60bf1238ae52e645ecb","1","1","2025-07-16T09:07:02.762Z","","","","","","","","","","","ControlQ","","50","","","","","","","","","","","","","","","","","","","","","","","","","","","","",""
"2589","","<div style=""width:500px;"">
  <p>How would you describe your current emotional state?</p>
  </div>","95","html-slider-response","52","814274","0.0-5.0-3.8","82","1","2025-07-16 08:53:26","1f75c3e559b7213887762d5229550c2b","62.164.249.91","Mozilla/5.0 (Windows NT 10.0; Win64; x64) AppleWebKit/537.36 (KHTML, like Gecko) Chrome/132.0.0.0 Safari/537.36","WebKit","Chrome","132.0.0.0","Windows","10.0","https://app.prolific.com/","en-US,en;q=0.9","6792a60bf1238ae52e645ecb","686e379bc37a29ffa5cdc956","687767ae4db0c4ca3c7def43","1","1","6792a60bf1238ae52e645ecb","1","1","2025-07-16T09:07:05.353Z","","","","","","","","","","","StressQ","","50","","","","","","","","","","","","","","","","","","","","","","","","","","","","",""
"2508","","<div style=""width:500px;"">
  <p>What best describes how you currently feel?</p>
  </div>","98","html-slider-response","53","816783","0.0-5.0-4.8","82","1","2025-07-16 08:53:26","1f75c3e559b7213887762d5229550c2b","62.164.249.91","Mozilla/5.0 (Windows NT 10.0; Win64; x64) AppleWebKit/537.36 (KHTML, like Gecko) Chrome/132.0.0.0 Safari/537.36","WebKit","Chrome","132.0.0.0","Windows","10.0","https://app.prolific.com/","en-US,en;q=0.9","6792a60bf1238ae52e645ecb","686e379bc37a29ffa5cdc956","687767ae4db0c4ca3c7def43","1","1","6792a60bf1238ae52e645ecb","1","1","2025-07-16T09:07:07.862Z","","","","","","","","","","","MotivationQ","","50","","","","","","","","","","","","","","","","","","","","","","","","","","","","",""
"","","","","ctl-task-cpt","54","878715","0.0-5.0-0.9","82","1","2025-07-16 08:53:26","1f75c3e559b7213887762d5229550c2b","62.164.249.91","Mozilla/5.0 (Windows NT 10.0; Win64; x64) AppleWebKit/537.36 (KHTML, like Gecko) Chrome/132.0.0.0 Safari/537.36","WebKit","Chrome","132.0.0.0","Windows","10.0","https://app.prolific.com/","en-US,en;q=0.9","6792a60bf1238ae52e645ecb","686e379bc37a29ffa5cdc956","687767ae4db0c4ca3c7def43","1","1","6792a60bf1238ae52e645ecb","1","1","2025-07-16T09:08:09.793Z","","","","","","","","","","","","","","win-only","0","g1:NW,g2:SE","0.4","10","0","822597.6","1249","6252","58911.6","1","4","4","6","1","-1","-2","0","0","0","1867.4","3000","-2395","[""left"",""up""]","{""num_key_presses"":10,""num_perfect"":3,""num_errors"":1,""num_randdir"":6,""num_randdir_good_moves"":2,""num_whilered"":0,""num_whileblue"":1,""num_blue"":8,""num_good_moves"":5}","[295.22232142857143,297.12857142857143,0.7,295.22232142857143,297.12857142857143,102.6,295.22232142857143,297.12857142857143,212.7,295.22232142857143,297.12857142857143,313.9,295.22232142857143,297.12857142857143,417.7,313.22232142857143,304.12857142857143,529.4,395.22232142857143,362.12857142857143,631.4,448.22232142857143,423.12857142857143,731.6,469.22232142857143,451.12857142857143,832.2,459.22232142857143,451.12857142857143,932.2,135.22232142857143,212.12857142857143,1033.4,96.22232142857143,157.12857142857143,1145,91.22232142857143,146.12857142857143,1247.4,83.22232142857143,121.12857142857143,1352.6,82.22232142857143,117.12857142857143,1461.9,82.22232142857143,117.12857142857143,1566.6,79.22232142857143,96.12857142857143,1667,77.22232142857143,78.12857142857143,1767.3,77.22232142857143,78.12857142857143,1875.2,77.22232142857143,78.12857142857143,1982.2,77.22232142857143,78.12857142857143,2082.3,77.22232142857143,78.12857142857143,2183,77.22232142857143,78.12857142857143,2286.2,77.22232142857143,78.12857142857143,2388,77.22232142857143,78.12857142857143,2498,77.22232142857143,78.12857142857143,2602.6,77.22232142857143,78.12857142857143,2706.6,77.22232142857143,78.12857142857143,2811.8,77.22232142857143,78.12857142857143,2917.1,77.22232142857143,78.12857142857143,3022.6,77.22232142857143,78.12857142857143,3130.5,77.22232142857143,78.12857142857143,3232.4,77.22232142857143,78.12857142857143,3332.6,77.22232142857143,78.12857142857143,3432.6,77.22232142857143,78.12857142857143,3537.9,77.22232142857143,78.12857142857143,3642.2,77.22232142857143,78.12857142857143,3745.9,77.22232142857143,78.12857142857143,3846.5,77.22232142857143,78.12857142857143,3946.6,77.22232142857143,78.12857142857143,4051.5,77.22232142857143,78.12857142857143,4151.5,77.22232142857143,78.12857142857143,4252.7,77.22232142857143,78.12857142857143,4352.8,77.22232142857143,78.12857142857143,4461.5,77.22232142857143,78.12857142857143,4562.8,77.22232142857143,78.12857142857143,4666.5,77.22232142857143,78.12857142857143,4766.6,77.22232142857143,78.12857142857143,4866.8,77.22232142857143,78.12857142857143,4966.9]","[1325.8,1325.8,1000,0,325.8,""oops"",""up"",""down"",""bad_move"",4396.8,3070.3,2719.2,1326.5,351.1,""smooth"",""left"",""left"",""good_move"",10112.4,5715.1,2378.7,7398.6,335.1,""oops"",""left"",""down"",""bad_move"",15822.7,5709.8,2030.2,13476.1,316.4,""oops"",""left"",""right"",""bad_move"",19327.4,3504.1,3078.6,15823.3,425.5,""oops"",""left"",""up"",""good_move"",29099.6,9771.7,2185.5,26528.8,385.3,""smooth"",""left"",""left"",""good_move"",35955.9,6855.7,2959,32622.9,374,""smooth"",""left"",""left"",""good_move"",41784,5827.6,2242.2,39259.6,282.2,""oops"",""up"",""up"",""good_move"",44705.8,2921.4,2564.4,41784.5,357,""oops"",""up"",""down"",""bad_move"",50454.3,5748,2206.4,47933.3,314.6,""while_blue"",""up"",""right"",""bad_move""]","",""
"4845","","<div style=""width:500px;"">
  <p>What determined the result of this run?</p>
  </div>","100","html-slider-response","55","883561","0.0-5.0-1.9","82","1","2025-07-16 08:53:26","1f75c3e559b7213887762d5229550c2b","62.164.249.91","Mozilla/5.0 (Windows NT 10.0; Win64; x64) AppleWebKit/537.36 (KHTML, like Gecko) Chrome/132.0.0.0 Safari/537.36","WebKit","Chrome","132.0.0.0","Windows","10.0","https://app.prolific.com/","en-US,en;q=0.9","6792a60bf1238ae52e645ecb","686e379bc37a29ffa5cdc956","687767ae4db0c4ca3c7def43","1","1","6792a60bf1238ae52e645ecb","1","1","2025-07-16T09:08:14.639Z","","","","","","","","","","","AttribQ","","50","","","","","","","","","","","","","","","","","","","","","","","","","","","","",""
"2366","","<div style=""width:500px;"">
  <p>How much control did you have over the ball?</p>
  </div>","97","html-slider-response","56","885928","0.0-5.0-2.9","82","1","2025-07-16 08:53:26","1f75c3e559b7213887762d5229550c2b","62.164.249.91","Mozilla/5.0 (Windows NT 10.0; Win64; x64) AppleWebKit/537.36 (KHTML, like Gecko) Chrome/132.0.0.0 Safari/537.36","WebKit","Chrome","132.0.0.0","Windows","10.0","https://app.prolific.com/","en-US,en;q=0.9","6792a60bf1238ae52e645ecb","686e379bc37a29ffa5cdc956","687767ae4db0c4ca3c7def43","1","1","6792a60bf1238ae52e645ecb","1","1","2025-07-16T09:08:17.006Z","","","","","","","","","","","ControlQ","","50","","","","","","","","","","","","","","","","","","","","","","","","","","","","",""
"2294","","<div style=""width:500px;"">
  <p>How would you describe your current emotional state?</p>
  </div>","100","html-slider-response","57","888223","0.0-5.0-3.9","82","1","2025-07-16 08:53:26","1f75c3e559b7213887762d5229550c2b","62.164.249.91","Mozilla/5.0 (Windows NT 10.0; Win64; x64) AppleWebKit/537.36 (KHTML, like Gecko) Chrome/132.0.0.0 Safari/537.36","WebKit","Chrome","132.0.0.0","Windows","10.0","https://app.prolific.com/","en-US,en;q=0.9","6792a60bf1238ae52e645ecb","686e379bc37a29ffa5cdc956","687767ae4db0c4ca3c7def43","1","1","6792a60bf1238ae52e645ecb","1","1","2025-07-16T09:08:19.302Z","","","","","","","","","","","StressQ","","50","","","","","","","","","","","","","","","","","","","","","","","","","","","","",""
"2323","","<div style=""width:500px;"">
  <p>What best describes how you currently feel?</p>
  </div>","100","html-slider-response","58","890548","0.0-5.0-4.9","82","1","2025-07-16 08:53:26","1f75c3e559b7213887762d5229550c2b","62.164.249.91","Mozilla/5.0 (Windows NT 10.0; Win64; x64) AppleWebKit/537.36 (KHTML, like Gecko) Chrome/132.0.0.0 Safari/537.36","WebKit","Chrome","132.0.0.0","Windows","10.0","https://app.prolific.com/","en-US,en;q=0.9","6792a60bf1238ae52e645ecb","686e379bc37a29ffa5cdc956","687767ae4db0c4ca3c7def43","1","1","6792a60bf1238ae52e645ecb","1","1","2025-07-16T09:08:21.626Z","","","","","","","","","","","MotivationQ","","50","","","","","","","","","","","","","","","","","","","","","","","","","","","","",""
"","","","","ctl-task-cpt","59","927475","0.0-5.0-0.10","82","1","2025-07-16 08:53:26","1f75c3e559b7213887762d5229550c2b","62.164.249.91","Mozilla/5.0 (Windows NT 10.0; Win64; x64) AppleWebKit/537.36 (KHTML, like Gecko) Chrome/132.0.0.0 Safari/537.36","WebKit","Chrome","132.0.0.0","Windows","10.0","https://app.prolific.com/","en-US,en;q=0.9","6792a60bf1238ae52e645ecb","686e379bc37a29ffa5cdc956","687767ae4db0c4ca3c7def43","1","1","6792a60bf1238ae52e645ecb","1","1","2025-07-16T09:08:58.553Z","","","","","","","","","","","","","","win-only","2","g1:SE,g2:NW","0.5","11","0","896361","1268.1","6272.2","33907.9","1","4","8","6","2","8","7","7","0","0.05303030303030303","1446.7","3000","595","[""left"",""up""]","{""num_key_presses"":9,""num_perfect"":5,""num_errors"":1,""num_randdir"":3,""num_randdir_good_moves"":2,""num_whilered"":0,""num_whileblue"":0,""num_blue"":1,""num_good_moves"":7}","[296.22232142857143,291.12857142857143,0.7,296.22232142857143,291.12857142857143,109.7,296.22232142857143,291.12857142857143,214.1,296.22232142857143,291.12857142857143,320.4,296.22232142857143,291.12857142857143,424.5,296.22232142857143,291.12857142857143,524.6,296.22232142857143,291.12857142857143,627.8,262.22232142857143,271.12857142857143,727.8,164.22232142857143,195.12857142857143,832.4,103.22232142857143,125.12857142857143,939.4,102.22232142857143,120.12857142857143,1043.4,98.22232142857143,117.12857142857143,1143.4,75.22232142857143,89.12857142857143,1245.5,73.22232142857143,84.12857142857143,1348.4,73.22232142857143,84.12857142857143,1455.3,73.22232142857143,84.12857142857143,1561.7,73.22232142857143,84.12857142857143,1673.1,73.22232142857143,84.12857142857143,1774.4,73.22232142857143,84.12857142857143,1880.1,73.22232142857143,84.12857142857143,1982.2,73.22232142857143,84.12857142857143,2082.2,73.22232142857143,84.12857142857143,2182.3,73.22232142857143,84.12857142857143,2283.5,73.22232142857143,84.12857142857143,2390,73.22232142857143,84.12857142857143,2490.8,73.22232142857143,84.12857142857143,2593.7,73.22232142857143,84.12857142857143,2698.1,73.22232142857143,84.12857142857143,2807.1,73.22232142857143,84.12857142857143,2910.1,73.22232142857143,84.12857142857143,3012.6,73.22232142857143,84.12857142857143,3113.5,73.22232142857143,84.12857142857143,3213.8,73.22232142857143,84.12857142857143,3323.6,73.22232142857143,84.12857142857143,3423.9,73.22232142857143,84.12857142857143,3524.1,73.22232142857143,84.12857142857143,3624.2,73.22232142857143,84.12857142857143,3728.2,73.22232142857143,84.12857142857143,3835.7,73.22232142857143,84.12857142857143,3940.2,73.22232142857143,84.12857142857143,4043.9,73.22232142857143,84.12857142857143,4147.7,73.22232142857143,84.12857142857143,4247.9,73.22232142857143,84.12857142857143,4356,73.22232142857143,84.12857142857143,4459.5,73.22232142857143,84.12857142857143,4560.5,73.22232142857143,84.12857142857143,4663.3,73.22232142857143,84.12857142857143,4775.5,73.22232142857143,84.12857142857143,4877.2,73.22232142857143,84.12857142857143,4977.9]","[1386.3,1386.3,1000,0,386.3,""oops"",""up"",""up"",""good_move"",4053.2,2666.3,2249.7,1386.9,416.6,""smooth"",""left"",""left"",""good_move"",6720.4,2666.8,2743.1,4053.6,-76.3,""error"",""-"",""-"",""no_move"",10083.8,3363,1968.6,7721,394.2,""smooth"",""up"",""up"",""good_move"",12963.4,2879.1,2304.7,10084.3,574.4,""oops"",""left"",""up"",""good_move"",19070.4,6106.4,2067.9,16619.9,382.6,""oops"",""left"",""right"",""bad_move"",22015.3,2944.4,2513.8,19070.9,430.6,""smooth"",""left"",""left"",""good_move"",24450.8,2434.9,2065.6,22015.9,369.3,""smooth"",""left"",""left"",""good_move"",27504.9,3053.5,2722,24451.4,331.5,""smooth"",""left"",""left"",""good_move""]","",""
"4447","","<div style=""width:500px;"">
  <p>What determined the result of this run?</p>
  </div>","92","html-slider-response","60","931923","0.0-5.0-1.10","82","1","2025-07-16 08:53:26","1f75c3e559b7213887762d5229550c2b","62.164.249.91","Mozilla/5.0 (Windows NT 10.0; Win64; x64) AppleWebKit/537.36 (KHTML, like Gecko) Chrome/132.0.0.0 Safari/537.36","WebKit","Chrome","132.0.0.0","Windows","10.0","https://app.prolific.com/","en-US,en;q=0.9","6792a60bf1238ae52e645ecb","686e379bc37a29ffa5cdc956","687767ae4db0c4ca3c7def43","1","1","6792a60bf1238ae52e645ecb","1","1","2025-07-16T09:09:03.001Z","","","","","","","","","","","AttribQ","","50","","","","","","","","","","","","","","","","","","","","","","","","","","","","",""
"2707","","<div style=""width:500px;"">
  <p>How much control did you have over the ball?</p>
  </div>","100","html-slider-response","61","934632","0.0-5.0-2.10","82","1","2025-07-16 08:53:26","1f75c3e559b7213887762d5229550c2b","62.164.249.91","Mozilla/5.0 (Windows NT 10.0; Win64; x64) AppleWebKit/537.36 (KHTML, like Gecko) Chrome/132.0.0.0 Safari/537.36","WebKit","Chrome","132.0.0.0","Windows","10.0","https://app.prolific.com/","en-US,en;q=0.9","6792a60bf1238ae52e645ecb","686e379bc37a29ffa5cdc956","687767ae4db0c4ca3c7def43","1","1","6792a60bf1238ae52e645ecb","1","1","2025-07-16T09:09:05.710Z","","","","","","","","","","","ControlQ","","50","","","","","","","","","","","","","","","","","","","","","","","","","","","","",""
"4055","","<div style=""width:500px;"">
  <p>How would you describe your current emotional state?</p>
  </div>","98","html-slider-response","62","938687","0.0-5.0-3.10","82","1","2025-07-16 08:53:26","1f75c3e559b7213887762d5229550c2b","62.164.249.91","Mozilla/5.0 (Windows NT 10.0; Win64; x64) AppleWebKit/537.36 (KHTML, like Gecko) Chrome/132.0.0.0 Safari/537.36","WebKit","Chrome","132.0.0.0","Windows","10.0","https://app.prolific.com/","en-US,en;q=0.9","6792a60bf1238ae52e645ecb","686e379bc37a29ffa5cdc956","687767ae4db0c4ca3c7def43","1","1","6792a60bf1238ae52e645ecb","1","1","2025-07-16T09:09:09.766Z","","","","","","","","","","","StressQ","","50","","","","","","","","","","","","","","","","","","","","","","","","","","","","",""
"3475","","<div style=""width:500px;"">
  <p>What best describes how you currently feel?</p>
  </div>","98","html-slider-response","63","942163","0.0-5.0-4.10","82","1","2025-07-16 08:53:26","1f75c3e559b7213887762d5229550c2b","62.164.249.91","Mozilla/5.0 (Windows NT 10.0; Win64; x64) AppleWebKit/537.36 (KHTML, like Gecko) Chrome/132.0.0.0 Safari/537.36","WebKit","Chrome","132.0.0.0","Windows","10.0","https://app.prolific.com/","en-US,en;q=0.9","6792a60bf1238ae52e645ecb","686e379bc37a29ffa5cdc956","687767ae4db0c4ca3c7def43","1","1","6792a60bf1238ae52e645ecb","1","1","2025-07-16T09:09:13.241Z","","","","","","","","","","","MotivationQ","","50","","","","","","","","","","","","","","","","","","","","","","","","","","","","",""
"","","","","ctl-task-cpt","64","998921","0.0-5.0-0.11","82","1","2025-07-16 08:53:26","1f75c3e559b7213887762d5229550c2b","62.164.249.91","Mozilla/5.0 (Windows NT 10.0; Win64; x64) AppleWebKit/537.36 (KHTML, like Gecko) Chrome/132.0.0.0 Safari/537.36","WebKit","Chrome","132.0.0.0","Windows","10.0","https://app.prolific.com/","en-US,en;q=0.9","6792a60bf1238ae52e645ecb","686e379bc37a29ffa5cdc956","687767ae4db0c4ca3c7def43","1","1","6792a60bf1238ae52e645ecb","1","1","2025-07-16T09:10:09.999Z","","","","","","","","","","","","","","win-only","2","g1:SE,g2:NW","0.6","12","0","947977.2","1285","6288.9","53740.3","1","4","4","6","2","4","4","11","7","0.08333333333333333","1999.6","3000","75","[""left"",""up""]","{""num_key_presses"":12,""num_perfect"":8,""num_errors"":0,""num_randdir"":4,""num_randdir_good_moves"":1,""num_whilered"":0,""num_whileblue"":0,""num_blue"":4,""num_good_moves"":9}","[289.22232142857143,293.12857142857143,0.3,289.22232142857143,293.12857142857143,103.5,289.22232142857143,293.12857142857143,208,289.22232142857143,293.12857142857143,312.1,289.22232142857143,293.12857142857143,423,377.22232142857143,342.12857142857143,523.1,377.22232142857143,348.12857142857143,625.9,110.22232142857143,187.12857142857143,732.6,108.22232142857143,172.12857142857143,838,108.22232142857143,172.12857142857143,942.2,108.22232142857143,172.12857142857143,1046.9,73.22232142857143,108.12857142857143,1153.3,73.22232142857143,108.12857142857143,1256.6,73.22232142857143,108.12857142857143,1356.6,73.22232142857143,108.12857142857143,1457.2,73.22232142857143,108.12857142857143,1562,73.22232142857143,108.12857142857143,1670.8,73.22232142857143,101.12857142857143,1771.3,73.22232142857143,86.12857142857143,1880.4,73.22232142857143,86.12857142857143,1980.8,73.22232142857143,86.12857142857143,2082.2,73.22232142857143,86.12857142857143,2183.1,73.22232142857143,86.12857142857143,2284,73.22232142857143,86.12857142857143,2384.5,73.22232142857143,86.12857142857143,2488.1,73.22232142857143,86.12857142857143,2588.6,73.22232142857143,86.12857142857143,2691.3,73.22232142857143,86.12857142857143,2792.4,73.22232142857143,86.12857142857143,2896.7,73.22232142857143,86.12857142857143,2997.8,73.22232142857143,86.12857142857143,3102.3,73.22232142857143,86.12857142857143,3203.8,73.22232142857143,86.12857142857143,3306.5,73.22232142857143,86.12857142857143,3406.5,73.22232142857143,86.12857142857143,3507.3,73.22232142857143,86.12857142857143,3610.9,73.22232142857143,86.12857142857143,3716.6,73.22232142857143,86.12857142857143,3821.2,73.22232142857143,86.12857142857143,3926,73.22232142857143,86.12857142857143,4026.7,73.22232142857143,86.12857142857143,4132,73.22232142857143,86.12857142857143,4235.2,73.22232142857143,86.12857142857143,4337.3,73.22232142857143,86.12857142857143,4439.3,73.22232142857143,86.12857142857143,4540.6,73.22232142857143,86.12857142857143,4642.5,73.22232142857143,86.12857142857143,4746.6,73.22232142857143,86.12857142857143,4850.2,73.22232142857143,86.12857142857143,4952.4]","[1402.3,1402.3,1000,0,402.3,""oops"",""left"",""down"",""bad_move"",4581.2,3178.2,2780.9,1403,397.3,""smooth"",""left"",""left"",""good_move"",11514.1,6932.6,2846.9,8301.9,365.3,""oops"",""left"",""up"",""good_move"",15148.6,3634.2,3236.5,11514.4,397.7,""smooth"",""left"",""left"",""good_move"",18414.2,3265.2,2930.7,15149,334.5,""smooth"",""left"",""left"",""good_move"",21065.1,2650.6,2269.1,18414.5,381.5,""oops"",""up"",""down"",""bad_move"",24047.7,2982.2,2970.7,21065.5,11.5,""smooth"",""up"",""up"",""good_move"",27013.2,2965.1,2579.7,24048.1,385.4,""smooth"",""up"",""up"",""good_move"",32890.7,5877.3,2153.4,30358.3,379.1,""oops"",""up"",""right"",""bad_move"",39229.1,6337.6,2741.3,36137.4,350.5,""smooth"",""left"",""left"",""good_move"",44923.9,5694.4,2284.7,42308.4,330.9,""smooth"",""up"",""up"",""good_move"",47336.8,2412.2,2082,44924.6,330.2,""smooth"",""up"",""up"",""good_move""]","",""
"5079","","<div style=""width:500px;"">
  <p>What determined the result of this run?</p>
  </div>","98","html-slider-response","65","1004001","0.0-5.0-1.11","82","1","2025-07-16 08:53:26","1f75c3e559b7213887762d5229550c2b","62.164.249.91","Mozilla/5.0 (Windows NT 10.0; Win64; x64) AppleWebKit/537.36 (KHTML, like Gecko) Chrome/132.0.0.0 Safari/537.36","WebKit","Chrome","132.0.0.0","Windows","10.0","https://app.prolific.com/","en-US,en;q=0.9","6792a60bf1238ae52e645ecb","686e379bc37a29ffa5cdc956","687767ae4db0c4ca3c7def43","1","1","6792a60bf1238ae52e645ecb","1","1","2025-07-16T09:10:15.079Z","","","","","","","","","","","AttribQ","","50","","","","","","","","","","","","","","","","","","","","","","","","","","","","",""
"2442","","<div style=""width:500px;"">
  <p>How much control did you have over the ball?</p>
  </div>","99","html-slider-response","66","1006445","0.0-5.0-2.11","82","1","2025-07-16 08:53:26","1f75c3e559b7213887762d5229550c2b","62.164.249.91","Mozilla/5.0 (Windows NT 10.0; Win64; x64) AppleWebKit/537.36 (KHTML, like Gecko) Chrome/132.0.0.0 Safari/537.36","WebKit","Chrome","132.0.0.0","Windows","10.0","https://app.prolific.com/","en-US,en;q=0.9","6792a60bf1238ae52e645ecb","686e379bc37a29ffa5cdc956","687767ae4db0c4ca3c7def43","1","1","6792a60bf1238ae52e645ecb","1","1","2025-07-16T09:10:17.523Z","","","","","","","","","","","ControlQ","","50","","","","","","","","","","","","","","","","","","","","","","","","","","","","",""
"3959","","<div style=""width:500px;"">
  <p>How would you describe your current emotional state?</p>
  </div>","98","html-slider-response","67","1010404","0.0-5.0-3.11","82","1","2025-07-16 08:53:26","1f75c3e559b7213887762d5229550c2b","62.164.249.91","Mozilla/5.0 (Windows NT 10.0; Win64; x64) AppleWebKit/537.36 (KHTML, like Gecko) Chrome/132.0.0.0 Safari/537.36","WebKit","Chrome","132.0.0.0","Windows","10.0","https://app.prolific.com/","en-US,en;q=0.9","6792a60bf1238ae52e645ecb","686e379bc37a29ffa5cdc956","687767ae4db0c4ca3c7def43","1","1","6792a60bf1238ae52e645ecb","1","1","2025-07-16T09:10:21.482Z","","","","","","","","","","","StressQ","","50","","","","","","","","","","","","","","","","","","","","","","","","","","","","",""
"2496","","<div style=""width:500px;"">
  <p>What best describes how you currently feel?</p>
  </div>","98","html-slider-response","68","1012902","0.0-5.0-4.11","82","1","2025-07-16 08:53:26","1f75c3e559b7213887762d5229550c2b","62.164.249.91","Mozilla/5.0 (Windows NT 10.0; Win64; x64) AppleWebKit/537.36 (KHTML, like Gecko) Chrome/132.0.0.0 Safari/537.36","WebKit","Chrome","132.0.0.0","Windows","10.0","https://app.prolific.com/","en-US,en;q=0.9","6792a60bf1238ae52e645ecb","686e379bc37a29ffa5cdc956","687767ae4db0c4ca3c7def43","1","1","6792a60bf1238ae52e645ecb","1","1","2025-07-16T09:10:23.980Z","","","","","","","","","","","MotivationQ","","50","","","","","","","","","","","","","","","","","","","","","","","","","","","","",""
"","","","","ctl-task-cpt","69","1037985","0.0-5.0-0.12","82","1","2025-07-16 08:53:26","1f75c3e559b7213887762d5229550c2b","62.164.249.91","Mozilla/5.0 (Windows NT 10.0; Win64; x64) AppleWebKit/537.36 (KHTML, like Gecko) Chrome/132.0.0.0 Safari/537.36","WebKit","Chrome","132.0.0.0","Windows","10.0","https://app.prolific.com/","en-US,en;q=0.9","6792a60bf1238ae52e645ecb","686e379bc37a29ffa5cdc956","687767ae4db0c4ca3c7def43","1","1","6792a60bf1238ae52e645ecb","1","1","2025-07-16T09:10:49.063Z","","","","","","","","","","","","","","win-only","3","g1:SW,g2:NE","0.7","13","0","1018715","1253.3","6264.9","22057.9","1","4","8","6","2","8","8","19","11","0.14393939393939395","1468.7","3000","1545","[""up"",""right""]","{""num_key_presses"":6,""num_perfect"":4,""num_errors"":0,""num_randdir"":2,""num_randdir_good_moves"":2,""num_whilered"":0,""num_whileblue"":0,""num_blue"":0,""num_good_moves"":6}","[297.22232142857143,297.12857142857143,0.6,297.22232142857143,297.12857142857143,105.1,297.22232142857143,297.12857142857143,213.8,297.22232142857143,297.12857142857143,319.9,297.22232142857143,297.12857142857143,422,297.22232142857143,297.12857142857143,529.5,297.22232142857143,297.12857142857143,629.9,366.22232142857143,246.12857142857143,734.1,537.2223214285714,129.12857142857143,839.2,537.2223214285714,129.12857142857143,941.2,537.2223214285714,129.12857142857143,1043.3,559.2223214285714,47.128571428571426,1148.4,560.2223214285714,40.128571428571426,1256.5,560.2223214285714,40.128571428571426,1359,560.2223214285714,40.128571428571426,1461.8,560.2223214285714,40.128571428571426,1565.2,560.2223214285714,40.128571428571426,1675.1,560.2223214285714,40.128571428571426,1776,560.2223214285714,40.128571428571426,1879.3,560.2223214285714,40.128571428571426,1980,560.2223214285714,40.128571428571426,2083.3,560.2223214285714,40.128571428571426,2191.4,560.2223214285714,40.128571428571426,2293,560.2223214285714,40.128571428571426,2393.8,560.2223214285714,40.128571428571426,2497.7,560.2223214285714,40.128571428571426,2598.4,560.2223214285714,40.128571428571426,2698.6,560.2223214285714,40.128571428571426,2799.1,560.2223214285714,40.128571428571426,2906.8,560.2223214285714,40.128571428571426,3008.3,560.2223214285714,40.128571428571426,3109,560.2223214285714,40.128571428571426,3209.2,560.2223214285714,40.128571428571426,3311.2,560.2223214285714,40.128571428571426,3412.8,560.2223214285714,40.128571428571426,3519.7,560.2223214285714,40.128571428571426,3620.2,560.2223214285714,40.128571428571426,3726.8,560.2223214285714,40.128571428571426,3828,560.2223214285714,40.128571428571426,3940.6,560.2223214285714,40.128571428571426,4043.4,560.2223214285714,40.128571428571426,4147.5,560.2223214285714,40.128571428571426,4251.1,560.2223214285714,40.128571428571426,4355.4,560.2223214285714,40.128571428571426,4460.4,560.2223214285714,40.128571428571426,4562.7,560.2223214285714,40.128571428571426,4664.9,560.2223214285714,40.128571428571426,4769.5,560.2223214285714,40.128571428571426,4870.3,560.2223214285714,40.128571428571426,4976.9]","[1346.9,1346.9,1000,0,346.9,""smooth"",""up"",""up"",""good_move"",4378.3,3030.9,2662.9,1347.4,368,""smooth"",""up"",""up"",""good_move"",6800.7,2421.8,2007,4378.9,414.8,""oops"",""up"",""right"",""good_move"",9901.6,3100.4,2754.2,6801.2,346.2,""smooth"",""up"",""up"",""good_move"",12934.5,3032.3,2721.3,9902.2,311,""oops"",""right"",""right"",""good_move"",15657,2722,2378.6,12935,343.4,""smooth"",""right"",""right"",""good_move""]","",""
"3014","","<div style=""width:500px;"">
  <p>What determined the result of this run?</p>
  </div>","98","html-slider-response","70","1041001","0.0-5.0-1.12","82","1","2025-07-16 08:53:26","1f75c3e559b7213887762d5229550c2b","62.164.249.91","Mozilla/5.0 (Windows NT 10.0; Win64; x64) AppleWebKit/537.36 (KHTML, like Gecko) Chrome/132.0.0.0 Safari/537.36","WebKit","Chrome","132.0.0.0","Windows","10.0","https://app.prolific.com/","en-US,en;q=0.9","6792a60bf1238ae52e645ecb","686e379bc37a29ffa5cdc956","687767ae4db0c4ca3c7def43","1","1","6792a60bf1238ae52e645ecb","1","1","2025-07-16T09:10:52.080Z","","","","","","","","","","","AttribQ","","50","","","","","","","","","","","","","","","","","","","","","","","","","","","","",""
"2370","","<div style=""width:500px;"">
  <p>How much control did you have over the ball?</p>
  </div>","57","html-slider-response","71","1043374","0.0-5.0-2.12","82","1","2025-07-16 08:53:26","1f75c3e559b7213887762d5229550c2b","62.164.249.91","Mozilla/5.0 (Windows NT 10.0; Win64; x64) AppleWebKit/537.36 (KHTML, like Gecko) Chrome/132.0.0.0 Safari/537.36","WebKit","Chrome","132.0.0.0","Windows","10.0","https://app.prolific.com/","en-US,en;q=0.9","6792a60bf1238ae52e645ecb","686e379bc37a29ffa5cdc956","687767ae4db0c4ca3c7def43","1","1","6792a60bf1238ae52e645ecb","1","1","2025-07-16T09:10:54.452Z","","","","","","","","","","","ControlQ","","50","","","","","","","","","","","","","","","","","","","","","","","","","","","","",""
"3577","","<div style=""width:500px;"">
  <p>How would you describe your current emotional state?</p>
  </div>","95","html-slider-response","72","1046952","0.0-5.0-3.12","82","1","2025-07-16 08:53:26","1f75c3e559b7213887762d5229550c2b","62.164.249.91","Mozilla/5.0 (Windows NT 10.0; Win64; x64) AppleWebKit/537.36 (KHTML, like Gecko) Chrome/132.0.0.0 Safari/537.36","WebKit","Chrome","132.0.0.0","Windows","10.0","https://app.prolific.com/","en-US,en;q=0.9","6792a60bf1238ae52e645ecb","686e379bc37a29ffa5cdc956","687767ae4db0c4ca3c7def43","1","1","6792a60bf1238ae52e645ecb","1","1","2025-07-16T09:10:58.030Z","","","","","","","","","","","StressQ","","50","","","","","","","","","","","","","","","","","","","","","","","","","","","","",""
"2716","","<div style=""width:500px;"">
  <p>What best describes how you currently feel?</p>
  </div>","96","html-slider-response","73","1049670","0.0-5.0-4.12","82","1","2025-07-16 08:53:26","1f75c3e559b7213887762d5229550c2b","62.164.249.91","Mozilla/5.0 (Windows NT 10.0; Win64; x64) AppleWebKit/537.36 (KHTML, like Gecko) Chrome/132.0.0.0 Safari/537.36","WebKit","Chrome","132.0.0.0","Windows","10.0","https://app.prolific.com/","en-US,en;q=0.9","6792a60bf1238ae52e645ecb","686e379bc37a29ffa5cdc956","687767ae4db0c4ca3c7def43","1","1","6792a60bf1238ae52e645ecb","1","1","2025-07-16T09:11:00.748Z","","","","","","","","","","","MotivationQ","","50","","","","","","","","","","","","","","","","","","","","","","","","","","","","",""
"","","","","ctl-task-cpt","74","1087267","0.0-5.0-0.13","82","1","2025-07-16 08:53:26","1f75c3e559b7213887762d5229550c2b","62.164.249.91","Mozilla/5.0 (Windows NT 10.0; Win64; x64) AppleWebKit/537.36 (KHTML, like Gecko) Chrome/132.0.0.0 Safari/537.36","WebKit","Chrome","132.0.0.0","Windows","10.0","https://app.prolific.com/","en-US,en;q=0.9","6792a60bf1238ae52e645ecb","686e379bc37a29ffa5cdc956","687767ae4db0c4ca3c7def43","1","1","6792a60bf1238ae52e645ecb","1","1","2025-07-16T09:11:38.345Z","","","","","","","","","","","","","","win-only","0","g1:NW,g2:SE","0.8","14","0","1055484.5","4495.9","9499","34587.7","1","4","4","6","2","4","4","23","19","0.17424242424242425","1690.4","3000","1205","[""down"",""right""]","{""num_key_presses"":8,""num_perfect"":6,""num_errors"":0,""num_randdir"":2,""num_randdir_good_moves"":1,""num_whilered"":0,""num_whileblue"":0,""num_blue"":1,""num_good_moves"":7}","[294.22232142857143,300.12857142857143,0.2,294.22232142857143,300.12857142857143,113.9,294.22232142857143,300.12857142857143,230.4,294.22232142857143,300.12857142857143,338,294.22232142857143,300.12857142857143,439.8,294.22232142857143,300.12857142857143,549.3,294.22232142857143,300.12857142857143,662.1,335.22232142857143,326.12857142857143,768.5,454.22232142857143,443.12857142857143,875.1,484.22232142857143,479.12857142857143,982,484.22232142857143,479.12857142857143,1083.5,484.22232142857143,479.12857142857143,1191.2,487.22232142857143,482.12857142857143,1301.7,516.2223214285714,505.12857142857143,1413.3,531.2223214285714,525.1285714285714,1516.5,534.2223214285714,525.1285714285714,1628.7,534.2223214285714,525.1285714285714,1729.2,534.2223214285714,525.1285714285714,1830.3,534.2223214285714,525.1285714285714,1937.5,534.2223214285714,525.1285714285714,2043.1,534.2223214285714,525.1285714285714,2157.3,534.2223214285714,525.1285714285714,2269,534.2223214285714,525.1285714285714,2374.9,534.2223214285714,525.1285714285714,2482.7,534.2223214285714,525.1285714285714,2585.7,534.2223214285714,525.1285714285714,2693.1,534.2223214285714,525.1285714285714,2800.8,534.2223214285714,525.1285714285714,2913,534.2223214285714,525.1285714285714,3022.8,534.2223214285714,525.1285714285714,3132.5,534.2223214285714,525.1285714285714,3237.2,534.2223214285714,525.1285714285714,3346.8,534.2223214285714,525.1285714285714,3452.7,534.2223214285714,525.1285714285714,3552.9,534.2223214285714,525.1285714285714,3659.6,534.2223214285714,525.1285714285714,3766.5,534.2223214285714,525.1285714285714,3872,534.2223214285714,525.1285714285714,3983.2,534.2223214285714,525.1285714285714,4093,534.2223214285714,525.1285714285714,4203.1,534.2223214285714,525.1285714285714,4312.3,534.2223214285714,525.1285714285714,4421.5,534.2223214285714,525.1285714285714,4522.2,534.2223214285714,525.1285714285714,4628.4,534.2223214285714,525.1285714285714,4731.7,534.2223214285714,525.1285714285714,4833.4,534.2223214285714,525.1285714285714,4933.6]","[4662.8,4662.8,2298.4,2010.3,354.1,""oops"",""right"",""down"",""good_move"",7491.1,2827.8,2421.9,4663.3,405.9,""smooth"",""right"",""right"",""good_move"",10461.4,2969.9,2635.6,7491.6,334.3,""smooth"",""right"",""right"",""good_move"",13719.5,3257.5,3006.4,10462,251.1,""smooth"",""right"",""right"",""good_move"",16911.2,3191.2,2866,13720,325.2,""smooth"",""down"",""down"",""good_move"",19272.1,2360.3,1988.2,16911.8,372.1,""oops"",""down"",""left"",""bad_move"",22008.3,2735.9,2420.2,19272.5,315.7,""smooth"",""down"",""down"",""good_move"",24959,2950.1,2663.1,22009,286.9,""smooth"",""right"",""right"",""good_move""]","",""
"2835","","<div style=""width:500px;"">
  <p>What determined the result of this run?</p>
  </div>","98","html-slider-response","75","1090104","0.0-5.0-1.13","82","1","2025-07-16 08:53:26","1f75c3e559b7213887762d5229550c2b","62.164.249.91","Mozilla/5.0 (Windows NT 10.0; Win64; x64) AppleWebKit/537.36 (KHTML, like Gecko) Chrome/132.0.0.0 Safari/537.36","WebKit","Chrome","132.0.0.0","Windows","10.0","https://app.prolific.com/","en-US,en;q=0.9","6792a60bf1238ae52e645ecb","686e379bc37a29ffa5cdc956","687767ae4db0c4ca3c7def43","1","1","6792a60bf1238ae52e645ecb","1","1","2025-07-16T09:11:41.183Z","","","","","","","","","","","AttribQ","","50","","","","","","","","","","","","","","","","","","","","","","","","","","","","",""
"4945","","<div style=""width:500px;"">
  <p>How much control did you have over the ball?</p>
  </div>","100","html-slider-response","76","1095051","0.0-5.0-2.13","82","1","2025-07-16 08:53:26","1f75c3e559b7213887762d5229550c2b","62.164.249.91","Mozilla/5.0 (Windows NT 10.0; Win64; x64) AppleWebKit/537.36 (KHTML, like Gecko) Chrome/132.0.0.0 Safari/537.36","WebKit","Chrome","132.0.0.0","Windows","10.0","https://app.prolific.com/","en-US,en;q=0.9","6792a60bf1238ae52e645ecb","686e379bc37a29ffa5cdc956","687767ae4db0c4ca3c7def43","1","1","6792a60bf1238ae52e645ecb","1","1","2025-07-16T09:11:46.129Z","","","","","","","","","","","ControlQ","","50","","","","","","","","","","","","","","","","","","","","","","","","","","","","",""
"2990","","<div style=""width:500px;"">
  <p>How would you describe your current emotional state?</p>
