"rt","response_timestamp","stimulus","response","trial_type","trial_index","time_elapsed","internal_node_id","run_id","condition","recorded_at","source_code_version","ip","user_agent","device","browser","browser_version","platform","platform_version","referer","accept_language","PROLIFIC_PID","STUDY_ID","SESSION_ID","WEEK","BATCH","prolific_id","week","batch","realtime","success","responses","item_order","radio_event_ids","radio_event_times","key_event_times","mouse_event_times","straightlining","zigzagging","honeypot","eventType","view_history","slider_start","which_type","canvas_config","goals_layout","control_level","trial_number","tutorial_trial_number","trial_start_time","phase1_start_time","phase2_start_time","phase3_start_time","goal_1_value","goal_1_distance","goal_2_value","goal_2_distance","goal_selected","outcome","outcome_total","participant_final_score","participant_initial_score","participant_final_score_prop","goal_choice_rt","allocated_time","allocated_time_remaining","goal_direction","counts","mouse_movements","key_presses","question_order","question_id"
"112735","1752653985637","<p style='font-size:40px;line-height:1.25'><strong>Welcome to the experiment!</strong></p><p style='font-size:1.1em;line-height:1.25'>Thank you for participanting in our experiment again! You will be asked to play the Dysfunctional Ball Game again. We will briefly recap the rules before we start.</p><p style='font-size:1.1em;line-height:1.25'>Press <strong>Next</strong> to continue.</p>","0","custom-html-button-response","0","112741","0.0-0.0","43","1","2025-07-16 08:17:52","1f75c3e559b7213887762d5229550c2b","86.162.3.62","Mozilla/5.0 (Windows NT 10.0; Win64; x64) AppleWebKit/537.36 (KHTML, like Gecko) Chrome/138.0.0.0 Safari/537.36","WebKit","Chrome","138.0.0.0","Windows","10.0","https://app.prolific.com/","en-US,en;q=0.9","59cb95053306be000195be2e","686e379bc37a29ffa5cdc956","6877602644e5df177be7a53d","1","1","59cb95053306be000195be2e","1","1","2025-07-16T08:19:45.640Z","","","","","","","","","","","","","","","","","","","","","","","","","","","","","","","","","","","","","","","","","",""
"3406","","","","fullscreen","1","117162","0.0-1.0","43","1","2025-07-16 08:17:52","1f75c3e559b7213887762d5229550c2b","86.162.3.62","Mozilla/5.0 (Windows NT 10.0; Win64; x64) AppleWebKit/537.36 (KHTML, like Gecko) Chrome/138.0.0.0 Safari/537.36","WebKit","Chrome","138.0.0.0","Windows","10.0","https://app.prolific.com/","en-US,en;q=0.9","59cb95053306be000195be2e","686e379bc37a29ffa5cdc956","6877602644e5df177be7a53d","1","1","59cb95053306be000195be2e","1","1","","true","","","","","","","","","","","","","","","","","","","","","","","","","","","","","","","","","","","","","","","","",""
"3028","1752653993091","<p style='font-size:1.1em;line-height:1.25'>In the following, we will ask you a few questions relating to your feelings in the last 24 hours.<br></p><p style='font-size:1.1em;line-height:1.25'>Press the <strong>Next</strong> button to continue.</p>","0","custom-html-button-response","2","120194","0.0-2.0-0.0","43","1","2025-07-16 08:17:52","1f75c3e559b7213887762d5229550c2b","86.162.3.62","Mozilla/5.0 (Windows NT 10.0; Win64; x64) AppleWebKit/537.36 (KHTML, like Gecko) Chrome/138.0.0.0 Safari/537.36","WebKit","Chrome","138.0.0.0","Windows","10.0","https://app.prolific.com/","en-US,en;q=0.9","59cb95053306be000195be2e","686e379bc37a29ffa5cdc956","6877602644e5df177be7a53d","1","1","59cb95053306be000195be2e","1","1","2025-07-16T08:19:53.092Z","","","","","","","","","","","","","","","","","","","","","","","","","","","","","","","","","","","","","","","","","",""
"93879.5","","","","survey-template","3","214082","0.0-2.0-1.0","43","1","2025-07-16 08:17:52","1f75c3e559b7213887762d5229550c2b","86.162.3.62","Mozilla/5.0 (Windows NT 10.0; Win64; x64) AppleWebKit/537.36 (KHTML, like Gecko) Chrome/138.0.0.0 Safari/537.36","WebKit","Chrome","138.0.0.0","Windows","10.0","https://app.prolific.com/","en-US,en;q=0.9","59cb95053306be000195be2e","686e379bc37a29ffa5cdc956","6877602644e5df177be7a53d","1","1","59cb95053306be000195be2e","1","1","2025-07-16T08:21:26.981Z","","{""Q01"":""2"",""Q02"":""1"",""Q03"":""1"",""Q04"":""3"",""Q05"":""1"",""Q06"":""1"",""Q07"":""0"",""Q08"":""0"",""Q09"":""0"",""Q10"":""0"",""Q11"":""2"",""Q12"":""0"",""Q13"":""5"",""Q14"":""1"",""Q15"":""0"",""Q16"":""0"",""Q17"":""1"",""Q18"":""0"",""Q19"":""3"",""Q20"":""2"",""Q21"":""2"",""Q22"":""0""}","[0,1,2,3,4,5,6,7,8,9,10,11,12,13,14,15,16,17,18,19,20,21]","[""Q01"",""Q02"",""Q03"",""Q04"",""Q05"",""Q06"",""Q07"",""Q08"",""Q09"",""Q10"",""Q12"",""Q13"",""Q14"",""Q15"",""Q16"",""Q17"",""Q18"",""Q19"",""Q20"",""Q21"",""Q22"",""Q11""]","[8616.899999976158,13693.699999988079,24681,27028.099999964237,29304.299999952316,37508.59999996424,39760,41978.59999996424,43577.299999952316,44825,50468.59999996424,52028.09999996424,55207.19999998808,58856.39999997616,63084.89999997616,65861.59999996424,66861.89999997616,72279,78173.5,81734.5,85266.59999996424,91133.69999998808]","[]","[0.09999996423721313,8616.899999976158,13693.699999988079,24681,27028.099999964237,29304.299999952316,37508.59999996424,39760,41978.59999996424,43577.299999952316,44825,50468.59999996424,52028.09999996424,55207.19999998808,58856.39999997616,63084.89999997616,64959.39999997616,65861.59999996424,66861.89999997616,72279,78173.5,81734.5,85266.59999996424,86012.89999997616,91133.69999998808,93871.39999997616]","0.4090909090909091","0.3333333333333333","0","drsp","","","","","","","","","","","","","","","","","","","","","","","","","","","","","","",""
"9200.300000011921","","","","survey-template","4","223287","0.0-2.0-2.0","43","1","2025-07-16 08:17:52","1f75c3e559b7213887762d5229550c2b","86.162.3.62","Mozilla/5.0 (Windows NT 10.0; Win64; x64) AppleWebKit/537.36 (KHTML, like Gecko) Chrome/138.0.0.0 Safari/537.36","WebKit","Chrome","138.0.0.0","Windows","10.0","https://app.prolific.com/","en-US,en;q=0.9","59cb95053306be000195be2e","686e379bc37a29ffa5cdc956","6877602644e5df177be7a53d","1","1","59cb95053306be000195be2e","1","1","2025-07-16T08:21:36.185Z","","{""Q01"":""2"",""Q02"":""4"",""Q03"":""0""}","[0,1,2]","[""Q01"",""Q02"",""Q03""]","[3017.900000035763,6265.400000035763,8452.600000023842]","[]","[3017.900000035763,6265.400000035763,8452.600000023842,9198.400000035763]","0.3333333333333333","1","0","stress","","","","","","","","","","","","","","","","","","","","","","","","","","","","","","",""
"40186","","","","instructions","5","263478","0.0-3.0-0.0","43","1","2025-07-16 08:17:52","1f75c3e559b7213887762d5229550c2b","86.162.3.62","Mozilla/5.0 (Windows NT 10.0; Win64; x64) AppleWebKit/537.36 (KHTML, like Gecko) Chrome/138.0.0.0 Safari/537.36","WebKit","Chrome","138.0.0.0","Windows","10.0","https://app.prolific.com/","en-US,en;q=0.9","59cb95053306be000195be2e","686e379bc37a29ffa5cdc956","6877602644e5df177be7a53d","1","1","59cb95053306be000195be2e","1","1","","","","","","","","","","","","","[{""page_index"":0,""viewing_time"":40185}]","","","","","","","","","","","","","","","","","","","","","","","","","","","","","",""
"18056","","<p>Before you start with this game please answer the following three questions yourself. </p>
  <p>Through this game, we measure several aspects of your cognitive performance, such as reaction times, multi-tasking capabilities </p>
  <p>and the ability to assess the situation you are in.</p>
  <p></p>
  <p><b>How good do you usually are in such tasks?</b></p>","67","html-slider-response","6","281539","0.0-4.0-0.0","43","1","2025-07-16 08:17:52","1f75c3e559b7213887762d5229550c2b","86.162.3.62","Mozilla/5.0 (Windows NT 10.0; Win64; x64) AppleWebKit/537.36 (KHTML, like Gecko) Chrome/138.0.0.0 Safari/537.36","WebKit","Chrome","138.0.0.0","Windows","10.0","https://app.prolific.com/","en-US,en;q=0.9","59cb95053306be000195be2e","686e379bc37a29ffa5cdc956","6877602644e5df177be7a53d","1","1","59cb95053306be000195be2e","1","1","2025-07-16T08:22:34.437Z","","","","","","","","","","","PreSkillQ","","50","","","","","","","","","","","","","","","","","","","","","","","","","","","","",""
"6763","","<div style=""width:500px;"">
  <p>How well do you think you will perform in this task compared to other participants?</p>
  </div>","53","html-slider-response","7","288305","0.0-4.0-1.0","43","1","2025-07-16 08:17:52","1f75c3e559b7213887762d5229550c2b","86.162.3.62","Mozilla/5.0 (Windows NT 10.0; Win64; x64) AppleWebKit/537.36 (KHTML, like Gecko) Chrome/138.0.0.0 Safari/537.36","WebKit","Chrome","138.0.0.0","Windows","10.0","https://app.prolific.com/","en-US,en;q=0.9","59cb95053306be000195be2e","686e379bc37a29ffa5cdc956","6877602644e5df177be7a53d","1","1","59cb95053306be000195be2e","1","1","2025-07-16T08:22:41.204Z","","","","","","","","","","","PrePerfQ","","50","","","","","","","","","","","","","","","","","","","","","","","","","","","","",""
"4297","","<div style=""width:500px;"">
  <p>What best describes how you currently feel?</p>
  </div>","79","html-slider-response","8","292604","0.0-4.0-2.0","43","1","2025-07-16 08:17:52","1f75c3e559b7213887762d5229550c2b","86.162.3.62","Mozilla/5.0 (Windows NT 10.0; Win64; x64) AppleWebKit/537.36 (KHTML, like Gecko) Chrome/138.0.0.0 Safari/537.36","WebKit","Chrome","138.0.0.0","Windows","10.0","https://app.prolific.com/","en-US,en;q=0.9","59cb95053306be000195be2e","686e379bc37a29ffa5cdc956","6877602644e5df177be7a53d","1","1","59cb95053306be000195be2e","1","1","2025-07-16T08:22:45.503Z","","","","","","","","","","","PreMotivationQ","","50","","","","","","","","","","","","","","","","","","","","","","","","","","","","",""
"","","","","ctl-task-cpt","9","339968","0.0-5.0-0.0","43","1","2025-07-16 08:17:52","1f75c3e559b7213887762d5229550c2b","86.162.3.62","Mozilla/5.0 (Windows NT 10.0; Win64; x64) AppleWebKit/537.36 (KHTML, like Gecko) Chrome/138.0.0.0 Safari/537.36","WebKit","Chrome","138.0.0.0","Windows","10.0","https://app.prolific.com/","en-US,en;q=0.9","59cb95053306be000195be2e","686e379bc37a29ffa5cdc956","6877602644e5df177be7a53d","1","1","59cb95053306be000195be2e","1","1","2025-07-16T08:23:32.866Z","","","","","","","","","","","","","","win-only","2","g1:SE,g2:NW","1","1","0","294102.9","3949.2","8956.6","44355.4","1","4","8","6","2","8","5","5","0","0.03787878787878788","4289.7","3000","505","[""left"",""up""]","{""num_key_presses"":10,""num_perfect"":7,""num_errors"":3,""num_randdir"":0,""num_randdir_good_moves"":0,""num_whilered"":0,""num_whileblue"":1,""num_blue"":4,""num_good_moves"":7}","[416.5714133126395,421.57142761775424,1.1,416.5714133126395,421.57142761775424,102.6,416.5714133126395,421.57142761775424,208.4,416.5714133126395,421.57142761775424,308.6,416.5714133126395,421.57142761775424,412,416.5714133126395,421.57142761775424,512.4,416.5714133126395,421.57142761775424,612.5,416.5714133126395,421.57142761775424,717.8,416.5714133126395,421.57142761775424,817.8,416.5714133126395,421.57142761775424,924.1,416.5714133126395,421.57142761775424,1025.3,416.5714133126395,421.57142761775424,1127.6,416.5714133126395,421.57142761775424,1232.2,416.5714133126395,421.57142761775424,1337.8,416.5714133126395,421.57142761775424,1438.7,416.5714133126395,421.57142761775424,1539.4,416.5714133126395,421.57142761775424,1639.6,416.5714133126395,421.57142761775424,1739.7,416.5714133126395,421.57142761775424,1840.3,416.5714133126395,421.57142761775424,1942.2,416.5714133126395,421.57142761775424,2042.3,416.5714133126395,421.57142761775424,2147.7,416.5714133126395,421.57142761775424,2247.7,416.5714133126395,421.57142761775424,2347.7,416.5714133126395,421.57142761775424,2447.7,416.5714133126395,421.57142761775424,2547.8,416.5714133126395,421.57142761775424,2652.4,416.5714133126395,421.57142761775424,2753.2,416.5714133126395,421.57142761775424,2853.6,416.5714133126395,421.57142761775424,2958,416.5714133126395,421.57142761775424,3059.2,416.5714133126395,421.57142761775424,3159.8,416.5714133126395,421.57142761775424,3261.8,416.5714133126395,421.57142761775424,3367.8,416.5714133126395,421.57142761775424,3474.1,256.5714133126395,322.82142761775424,3577.3,151.5714133126395,-108.42857238224575,3678,151.5714133126395,-108.42857238224575,3782.5,151.5714133126395,-108.42857238224575,3882.5,92.8214133126395,-15.928572382245747,3990.4,76.5714133126395,22.821427617754253,4092.7,66.5714133126395,56.57142761775425,4197.9,66.5714133126395,59.07142761775425,4301.7,66.5714133126395,59.07142761775425,4407.8,66.5714133126395,59.07142761775425,4510.3,66.5714133126395,59.07142761775425,4612.3,66.5714133126395,59.07142761775425,4712.3,66.5714133126395,59.07142761775425,4817.7,66.5714133126395,59.07142761775425,4917.8]","[520.7,520.3,1000,0.4,-479.7,""error"",""-"",""-"",""no_move"",1532.4,1010.3,2290.4,1524.3,-2282.2,""error"",""-"",""-"",""no_move"",5489.3,3954.3,2573,2540.1,376.3,""smooth"",""left"",""left"",""good_move"",8186.2,2695.3,2293.8,5491,401.5,""while_blue"",""left"",""down"",""bad_move"",14232.5,6045.2,2516.7,11300.3,415.5,""smooth"",""left"",""left"",""good_move"",20296.6,6062,1974.4,17935,387.2,""smooth"",""left"",""left"",""good_move"",23986.8,3689.7,3305.5,20297.1,384.2,""smooth"",""up"",""up"",""good_move"",29978.3,5989.8,1664.8,27920,393.5,""smooth"",""up"",""up"",""good_move"",32664,2683.3,2243.5,29980.7,439.8,""smooth"",""up"",""up"",""good_move"",35301.8,2635,2269.6,32666.8,365.4,""smooth"",""up"",""up"",""good_move""]","",""
"6194","","<div style=""width:500px;"">
  <p>What determined the result of this run?</p>
  </div>","56","html-slider-response","10","346166","0.0-5.0-1.0","43","1","2025-07-16 08:17:52","1f75c3e559b7213887762d5229550c2b","86.162.3.62","Mozilla/5.0 (Windows NT 10.0; Win64; x64) AppleWebKit/537.36 (KHTML, like Gecko) Chrome/138.0.0.0 Safari/537.36","WebKit","Chrome","138.0.0.0","Windows","10.0","https://app.prolific.com/","en-US,en;q=0.9","59cb95053306be000195be2e","686e379bc37a29ffa5cdc956","6877602644e5df177be7a53d","1","1","59cb95053306be000195be2e","1","1","2025-07-16T08:23:39.064Z","","","","","","","","","","","AttribQ","","50","","","","","","","","","","","","","","","","","","","","","","","","","","","","",""
"3903","","<div style=""width:500px;"">
  <p>How much control did you have over the ball?</p>
  </div>","63","html-slider-response","11","350072","0.0-5.0-2.0","43","1","2025-07-16 08:17:52","1f75c3e559b7213887762d5229550c2b","86.162.3.62","Mozilla/5.0 (Windows NT 10.0; Win64; x64) AppleWebKit/537.36 (KHTML, like Gecko) Chrome/138.0.0.0 Safari/537.36","WebKit","Chrome","138.0.0.0","Windows","10.0","https://app.prolific.com/","en-US,en;q=0.9","59cb95053306be000195be2e","686e379bc37a29ffa5cdc956","6877602644e5df177be7a53d","1","1","59cb95053306be000195be2e","1","1","2025-07-16T08:23:42.971Z","","","","","","","","","","","ControlQ","","50","","","","","","","","","","","","","","","","","","","","","","","","","","","","",""
"3960","","<div style=""width:500px;"">
  <p>How would you describe your current emotional state?</p>
  </div>","22","html-slider-response","12","354035","0.0-5.0-3.0","43","1","2025-07-16 08:17:52","1f75c3e559b7213887762d5229550c2b","86.162.3.62","Mozilla/5.0 (Windows NT 10.0; Win64; x64) AppleWebKit/537.36 (KHTML, like Gecko) Chrome/138.0.0.0 Safari/537.36","WebKit","Chrome","138.0.0.0","Windows","10.0","https://app.prolific.com/","en-US,en;q=0.9","59cb95053306be000195be2e","686e379bc37a29ffa5cdc956","6877602644e5df177be7a53d","1","1","59cb95053306be000195be2e","1","1","2025-07-16T08:23:46.933Z","","","","","","","","","","","StressQ","","50","","","","","","","","","","","","","","","","","","","","","","","","","","","","",""
"4786","","<div style=""width:500px;"">
  <p>What best describes how you currently feel?</p>
  </div>","71","html-slider-response","13","358824","0.0-5.0-4.0","43","1","2025-07-16 08:17:52","1f75c3e559b7213887762d5229550c2b","86.162.3.62","Mozilla/5.0 (Windows NT 10.0; Win64; x64) AppleWebKit/537.36 (KHTML, like Gecko) Chrome/138.0.0.0 Safari/537.36","WebKit","Chrome","138.0.0.0","Windows","10.0","https://app.prolific.com/","en-US,en;q=0.9","59cb95053306be000195be2e","686e379bc37a29ffa5cdc956","6877602644e5df177be7a53d","1","1","59cb95053306be000195be2e","1","1","2025-07-16T08:23:51.722Z","","","","","","","","","","","MotivationQ","","50","","","","","","","","","","","","","","","","","","","","","","","","","","","","",""
"","","","","ctl-task-cpt","14","398729","0.0-5.0-0.1","43","1","2025-07-16 08:17:52","1f75c3e559b7213887762d5229550c2b","86.162.3.62","Mozilla/5.0 (Windows NT 10.0; Win64; x64) AppleWebKit/537.36 (KHTML, like Gecko) Chrome/138.0.0.0 Safari/537.36","WebKit","Chrome","138.0.0.0","Windows","10.0","https://app.prolific.com/","en-US,en;q=0.9","59cb95053306be000195be2e","686e379bc37a29ffa5cdc956","6877602644e5df177be7a53d","1","1","59cb95053306be000195be2e","1","1","2025-07-16T08:24:31.627Z","","","","","","","","","","","","","","win-only","0","g1:NW,g2:SE","0.9","2","0","360319.2","1912","6917.5","36895.9","1","4","4","6","2","4","4","9","5","0.06818181818181818","1389","3000","160","[""down"",""right""]","{""num_key_presses"":8,""num_perfect"":7,""num_errors"":0,""num_randdir"":1,""num_randdir_good_moves"":0,""num_whilered"":0,""num_whileblue"":0,""num_blue"":2,""num_good_moves"":7}","[412.8214133126395,414.07142761775424,1.3,412.8214133126395,414.07142761775424,100.7,412.8214133126395,414.07142761775424,205.2,412.8214133126395,414.07142761775424,309.6,412.8214133126395,414.07142761775424,411.8,412.8214133126395,414.07142761775424,513.7,606.5714133126395,579.0714276177542,618.2,704.0714133126395,682.8214276177542,719.3,704.0714133126395,682.8214276177542,822.8,735.3214133126395,725.3214276177542,926.1,769.0714133126395,780.3214276177542,1029.3,769.0714133126395,781.5714276177542,1129.3,769.0714133126395,781.5714276177542,1230.6,769.0714133126395,781.5714276177542,1339.7,769.0714133126395,781.5714276177542,1444.6,769.0714133126395,781.5714276177542,1556.3,769.0714133126395,781.5714276177542,1657.9,769.0714133126395,781.5714276177542,1760.3,769.0714133126395,781.5714276177542,1864.2,769.0714133126395,781.5714276177542,1970,769.0714133126395,781.5714276177542,2073.3,769.0714133126395,781.5714276177542,2173.9,769.0714133126395,781.5714276177542,2275.2,769.0714133126395,781.5714276177542,2379,769.0714133126395,781.5714276177542,2484.7,769.0714133126395,781.5714276177542,2588.7,769.0714133126395,781.5714276177542,2688.9,769.0714133126395,781.5714276177542,2790.1,769.0714133126395,781.5714276177542,2893.6,769.0714133126395,781.5714276177542,2993.6,769.0714133126395,781.5714276177542,3105.2,769.0714133126395,781.5714276177542,3208.8,769.0714133126395,781.5714276177542,3309.4,769.0714133126395,781.5714276177542,3421.5,769.0714133126395,781.5714276177542,3522.3,769.0714133126395,781.5714276177542,3622.6,769.0714133126395,781.5714276177542,3723.8,769.0714133126395,781.5714276177542,3823.9,769.0714133126395,781.5714276177542,3924.3,769.0714133126395,781.5714276177542,4025.3,769.0714133126395,781.5714276177542,4129,769.0714133126395,781.5714276177542,4229.1,769.0714133126395,781.5714276177542,4338.2,769.0714133126395,781.5714276177542,4438.3,769.0714133126395,781.5714276177542,4538.3,769.0714133126395,781.5714276177542,4639.4,769.0714133126395,781.5714276177542,4743.5,769.0714133126395,781.5714276177542,4843.8,769.0714133126395,781.5714276177542,4953.9]","[1504,1504,1000,0,504,""oops"",""right"",""left"",""bad_move"",4446.2,2940.3,2543.9,1505.9,396.4,""smooth"",""down"",""down"",""good_move"",6882.3,2427.3,1972.3,4455,455,""smooth"",""down"",""down"",""good_move"",10042.3,3158.5,2805,6883.8,353.5,""smooth"",""down"",""down"",""good_move"",13482.8,3438.6,3056.6,10044.2,382,""smooth"",""right"",""right"",""good_move"",19481.3,5996.7,2172.2,16929.8,379.3,""smooth"",""right"",""right"",""good_move"",26526.8,7044.6,2871.5,23247.8,407.5,""smooth"",""right"",""right"",""good_move"",29863.1,3335.4,2799.9,26527.8,535.4,""smooth"",""right"",""right"",""good_move""]","",""
"3828","","<div style=""width:500px;"">
  <p>What determined the result of this run?</p>
  </div>","88","html-slider-response","15","402560","0.0-5.0-1.1","43","1","2025-07-16 08:17:52","1f75c3e559b7213887762d5229550c2b","86.162.3.62","Mozilla/5.0 (Windows NT 10.0; Win64; x64) AppleWebKit/537.36 (KHTML, like Gecko) Chrome/138.0.0.0 Safari/537.36","WebKit","Chrome","138.0.0.0","Windows","10.0","https://app.prolific.com/","en-US,en;q=0.9","59cb95053306be000195be2e","686e379bc37a29ffa5cdc956","6877602644e5df177be7a53d","1","1","59cb95053306be000195be2e","1","1","2025-07-16T08:24:35.458Z","","","","","","","","","","","AttribQ","","50","","","","","","","","","","","","","","","","","","","","","","","","","","","","",""
"3833","","<div style=""width:500px;"">
  <p>How much control did you have over the ball?</p>
  </div>","70","html-slider-response","16","406395","0.0-5.0-2.1","43","1","2025-07-16 08:17:52","1f75c3e559b7213887762d5229550c2b","86.162.3.62","Mozilla/5.0 (Windows NT 10.0; Win64; x64) AppleWebKit/537.36 (KHTML, like Gecko) Chrome/138.0.0.0 Safari/537.36","WebKit","Chrome","138.0.0.0","Windows","10.0","https://app.prolific.com/","en-US,en;q=0.9","59cb95053306be000195be2e","686e379bc37a29ffa5cdc956","6877602644e5df177be7a53d","1","1","59cb95053306be000195be2e","1","1","2025-07-16T08:24:39.293Z","","","","","","","","","","","ControlQ","","50","","","","","","","","","","","","","","","","","","","","","","","","","","","","",""
"3066","","<div style=""width:500px;"">
  <p>How would you describe your current emotional state?</p>
  </div>","17","html-slider-response","17","409467","0.0-5.0-3.1","43","1","2025-07-16 08:17:52","1f75c3e559b7213887762d5229550c2b","86.162.3.62","Mozilla/5.0 (Windows NT 10.0; Win64; x64) AppleWebKit/537.36 (KHTML, like Gecko) Chrome/138.0.0.0 Safari/537.36","WebKit","Chrome","138.0.0.0","Windows","10.0","https://app.prolific.com/","en-US,en;q=0.9","59cb95053306be000195be2e","686e379bc37a29ffa5cdc956","6877602644e5df177be7a53d","1","1","59cb95053306be000195be2e","1","1","2025-07-16T08:24:42.366Z","","","","","","","","","","","StressQ","","50","","","","","","","","","","","","","","","","","","","","","","","","","","","","",""
"3676","","<div style=""width:500px;"">
  <p>What best describes how you currently feel?</p>
  </div>","77","html-slider-response","18","413148","0.0-5.0-4.1","43","1","2025-07-16 08:17:52","1f75c3e559b7213887762d5229550c2b","86.162.3.62","Mozilla/5.0 (Windows NT 10.0; Win64; x64) AppleWebKit/537.36 (KHTML, like Gecko) Chrome/138.0.0.0 Safari/537.36","WebKit","Chrome","138.0.0.0","Windows","10.0","https://app.prolific.com/","en-US,en;q=0.9","59cb95053306be000195be2e","686e379bc37a29ffa5cdc956","6877602644e5df177be7a53d","1","1","59cb95053306be000195be2e","1","1","2025-07-16T08:24:46.046Z","","","","","","","","","","","MotivationQ","","50","","","","","","","","","","","","","","","","","","","","","","","","","","","","",""
"","","","","ctl-task-cpt","19","449122","0.0-5.0-0.2","43","1","2025-07-16 08:17:52","1f75c3e559b7213887762d5229550c2b","86.162.3.62","Mozilla/5.0 (Windows NT 10.0; Win64; x64) AppleWebKit/537.36 (KHTML, like Gecko) Chrome/138.0.0.0 Safari/537.36","WebKit","Chrome","138.0.0.0","Windows","10.0","https://app.prolific.com/","en-US,en;q=0.9","59cb95053306be000195be2e","686e379bc37a29ffa5cdc956","6877602644e5df177be7a53d","1","1","59cb95053306be000195be2e","1","1","2025-07-16T08:25:22.021Z","","","","","","","","","","","","","","win-only","1","g1:NE,g2:SW","0.8","3","0","414645","1056.8","6068","32952.7","1","4","8","6","2","8","8","17","9","0.12878787878787878","1186.6","3000","925","[""down"",""left""]","{""num_key_presses"":6,""num_perfect"":4,""num_errors"":0,""num_randdir"":2,""num_randdir_good_moves"":2,""num_whilered"":0,""num_whileblue"":0,""num_blue"":3,""num_good_moves"":6}","[421.5714133126395,412.82142761775424,1.2,421.5714133126395,412.82142761775424,101.3,421.5714133126395,412.82142761775424,206.9,421.5714133126395,412.82142761775424,316.2,421.5714133126395,412.82142761775424,419.4,421.5714133126395,412.82142761775424,519.9,210.3214133126395,610.3214276177542,620.2,156.5714133126395,652.8214276177542,725.4,156.5714133126395,652.8214276177542,825.9,99.0714133126395,719.0714276177542,928.1,96.5714133126395,725.3214276177542,1032.7,95.3214133126395,726.5714276177542,1134.8,95.3214133126395,727.8214276177542,1235.3,95.3214133126395,727.8214276177542,1343.1,95.3214133126395,727.8214276177542,1445.5,95.3214133126395,727.8214276177542,1545.8,95.3214133126395,727.8214276177542,1649.8,95.3214133126395,727.8214276177542,1749.8,95.3214133126395,727.8214276177542,1852,95.3214133126395,727.8214276177542,1955.5,95.3214133126395,727.8214276177542,2060.2,95.3214133126395,727.8214276177542,2161.7,95.3214133126395,727.8214276177542,2263.1,95.3214133126395,727.8214276177542,2364.3,95.3214133126395,727.8214276177542,2464.4,95.3214133126395,727.8214276177542,2566.3,95.3214133126395,727.8214276177542,2669.9,95.3214133126395,727.8214276177542,2774.2,95.3214133126395,727.8214276177542,2880.9,95.3214133126395,727.8214276177542,2984.4,95.3214133126395,727.8214276177542,3085,95.3214133126395,727.8214276177542,3192.9,95.3214133126395,727.8214276177542,3292.9,95.3214133126395,727.8214276177542,3394.7,95.3214133126395,727.8214276177542,3495.8,95.3214133126395,727.8214276177542,3600.2,95.3214133126395,727.8214276177542,3705,95.3214133126395,727.8214276177542,3810,95.3214133126395,727.8214276177542,3913.7,95.3214133126395,727.8214276177542,4016.1,95.3214133126395,727.8214276177542,4123.6,95.3214133126395,727.8214276177542,4230.7,95.3214133126395,727.8214276177542,4331,95.3214133126395,727.8214276177542,4431.4,95.3214133126395,727.8214276177542,4531.5,95.3214133126395,727.8214276177542,4632.5,95.3214133126395,727.8214276177542,4735.1,95.3214133126395,727.8214276177542,4842.2,95.3214133126395,727.8214276177542,4945.6]","[4688.5,4688.6,2279.2,2008.3,401.1,""smooth"",""down"",""down"",""good_move"",7956.1,3266.1,2802,4690,464.1,""smooth"",""down"",""down"",""good_move"",14401.6,6442.7,2322.1,11683.8,395.7,""oops"",""down"",""left"",""good_move"",20561.5,6158.9,2092.9,18061,407.6,""oops"",""left"",""down"",""good_move"",23693.5,3128.1,2648.7,20565.4,479.4,""smooth"",""left"",""left"",""good_move"",26762.8,3068,2623,23694.8,445,""smooth"",""left"",""left"",""good_move""]","",""
"3545","","<div style=""width:500px;"">
  <p>What determined the result of this run?</p>
  </div>","77","html-slider-response","20","452674","0.0-5.0-1.2","43","1","2025-07-16 08:17:52","1f75c3e559b7213887762d5229550c2b","86.162.3.62","Mozilla/5.0 (Windows NT 10.0; Win64; x64) AppleWebKit/537.36 (KHTML, like Gecko) Chrome/138.0.0.0 Safari/537.36","WebKit","Chrome","138.0.0.0","Windows","10.0","https://app.prolific.com/","en-US,en;q=0.9","59cb95053306be000195be2e","686e379bc37a29ffa5cdc956","6877602644e5df177be7a53d","1","1","59cb95053306be000195be2e","1","1","2025-07-16T08:25:25.572Z","","","","","","","","","","","AttribQ","","50","","","","","","","","","","","","","","","","","","","","","","","","","","","","",""
"4706","","<div style=""width:500px;"">
  <p>How much control did you have over the ball?</p>
  </div>","74","html-slider-response","21","457383","0.0-5.0-2.2","43","1","2025-07-16 08:17:52","1f75c3e559b7213887762d5229550c2b","86.162.3.62","Mozilla/5.0 (Windows NT 10.0; Win64; x64) AppleWebKit/537.36 (KHTML, like Gecko) Chrome/138.0.0.0 Safari/537.36","WebKit","Chrome","138.0.0.0","Windows","10.0","https://app.prolific.com/","en-US,en;q=0.9","59cb95053306be000195be2e","686e379bc37a29ffa5cdc956","6877602644e5df177be7a53d","1","1","59cb95053306be000195be2e","1","1","2025-07-16T08:25:30.281Z","","","","","","","","","","","ControlQ","","50","","","","","","","","","","","","","","","","","","","","","","","","","","","","",""
"4138","","<div style=""width:500px;"">
  <p>How would you describe your current emotional state?</p>
  </div>","21","html-slider-response","22","461523","0.0-5.0-3.2","43","1","2025-07-16 08:17:52","1f75c3e559b7213887762d5229550c2b","86.162.3.62","Mozilla/5.0 (Windows NT 10.0; Win64; x64) AppleWebKit/537.36 (KHTML, like Gecko) Chrome/138.0.0.0 Safari/537.36","WebKit","Chrome","138.0.0.0","Windows","10.0","https://app.prolific.com/","en-US,en;q=0.9","59cb95053306be000195be2e","686e379bc37a29ffa5cdc956","6877602644e5df177be7a53d","1","1","59cb95053306be000195be2e","1","1","2025-07-16T08:25:34.422Z","","","","","","","","","","","StressQ","","50","","","","","","","","","","","","","","","","","","","","","","","","","","","","",""
"3549","","<div style=""width:500px;"">
  <p>What best describes how you currently feel?</p>
  </div>","74","html-slider-response","23","465075","0.0-5.0-4.2","43","1","2025-07-16 08:17:52","1f75c3e559b7213887762d5229550c2b","86.162.3.62","Mozilla/5.0 (Windows NT 10.0; Win64; x64) AppleWebKit/537.36 (KHTML, like Gecko) Chrome/138.0.0.0 Safari/537.36","WebKit","Chrome","138.0.0.0","Windows","10.0","https://app.prolific.com/","en-US,en;q=0.9","59cb95053306be000195be2e","686e379bc37a29ffa5cdc956","6877602644e5df177be7a53d","1","1","59cb95053306be000195be2e","1","1","2025-07-16T08:25:37.973Z","","","","","","","","","","","MotivationQ","","50","","","","","","","","","","","","","","","","","","","","","","","","","","","","",""
"","","","","ctl-task-cpt","24","490516","0.0-5.0-0.3","43","1","2025-07-16 08:17:52","1f75c3e559b7213887762d5229550c2b","86.162.3.62","Mozilla/5.0 (Windows NT 10.0; Win64; x64) AppleWebKit/537.36 (KHTML, like Gecko) Chrome/138.0.0.0 Safari/537.36","WebKit","Chrome","138.0.0.0","Windows","10.0","https://app.prolific.com/","en-US,en;q=0.9","59cb95053306be000195be2e","686e379bc37a29ffa5cdc956","6877602644e5df177be7a53d","1","1","59cb95053306be000195be2e","1","1","2025-07-16T08:26:03.414Z","","","","","","","","","","","","","","win-only","3","g1:SW,g2:NE","0.7","4","0","466572.2","1655.9","6658.9","22421.1","1","4","4","6","2","4","4","21","17","0.1590909090909091","1542.2","3000","1135","[""up"",""right""]","{""num_key_presses"":6,""num_perfect"":4,""num_errors"":0,""num_randdir"":2,""num_randdir_good_moves"":2,""num_whilered"":0,""num_whileblue"":0,""num_blue"":0,""num_good_moves"":6}","[419.0714133126395,416.57142761775424,1,419.0714133126395,416.57142761775424,103,419.0714133126395,416.57142761775424,208.1,419.0714133126395,416.57142761775424,314.9,419.0714133126395,416.57142761775424,415.7,419.0714133126395,416.57142761775424,516.9,419.0714133126395,416.57142761775424,625,582.8214133126395,311.57142761775424,729,692.8214133126395,219.07142761775424,830.7,692.8214133126395,219.07142761775424,934,809.0714133126395,54.07142761775425,1039.4,815.3214133126395,46.57142761775425,1141.5,815.3214133126395,46.57142761775425,1241.8,815.3214133126395,46.57142761775425,1343.5,806.5714133126395,51.57142761775425,1447.3,801.5714133126395,54.07142761775425,1552.2,801.5714133126395,54.07142761775425,1663.2,801.5714133126395,54.07142761775425,1763.7,801.5714133126395,54.07142761775425,1870,801.5714133126395,54.07142761775425,1980,801.5714133126395,54.07142761775425,2084.6,801.5714133126395,54.07142761775425,2184.6,801.5714133126395,54.07142761775425,2293.4,801.5714133126395,54.07142761775425,2397.3,792.8214133126395,70.32142761775425,2498.2,792.8214133126395,70.32142761775425,2600,792.8214133126395,70.32142761775425,2702,792.8214133126395,70.32142761775425,2809,792.8214133126395,70.32142761775425,2913.1,792.8214133126395,70.32142761775425,3017.2,792.8214133126395,70.32142761775425,3122.5,792.8214133126395,70.32142761775425,3232.8,792.8214133126395,70.32142761775425,3335.8,792.8214133126395,70.32142761775425,3436.8,792.8214133126395,70.32142761775425,3545.8,792.8214133126395,70.32142761775425,3650.2,792.8214133126395,70.32142761775425,3762,792.8214133126395,70.32142761775425,3865.5,792.8214133126395,70.32142761775425,3965.9,792.8214133126395,70.32142761775425,4069.9,792.8214133126395,70.32142761775425,4171.3,792.8214133126395,70.32142761775425,4278.2,792.8214133126395,70.32142761775425,4386,792.8214133126395,70.32142761775425,4498.6,792.8214133126395,70.32142761775425,4600.2,792.8214133126395,70.32142761775425,4702.5,792.8214133126395,70.32142761775425,4806.8,792.8214133126395,70.32142761775425,4913]","[1448.8,1448.8,1000,0,448.8,""oops"",""right"",""right"",""good_move"",4843.9,3393.5,2966.1,1450.4,427.4,""smooth"",""right"",""right"",""good_move"",7459.1,2611.6,2098.5,4847.5,513.1,""smooth"",""right"",""right"",""good_move"",10744.8,3283.9,2933.8,7461,350,""oops"",""up"",""up"",""good_move"",13161,2414.5,1984.8,10746.5,429.7,""smooth"",""up"",""up"",""good_move"",15626.4,2462.9,2067.3,13163.5,395.6,""smooth"",""up"",""up"",""good_move""]","",""
"25008","","<div style=""width:500px;"">
  <p>What determined the result of this run?</p>
  </div>","74","html-slider-response","25","515526","0.0-5.0-1.3","43","1","2025-07-16 08:17:52","1f75c3e559b7213887762d5229550c2b","86.162.3.62","Mozilla/5.0 (Windows NT 10.0; Win64; x64) AppleWebKit/537.36 (KHTML, like Gecko) Chrome/138.0.0.0 Safari/537.36","WebKit","Chrome","138.0.0.0","Windows","10.0","https://app.prolific.com/","en-US,en;q=0.9","59cb95053306be000195be2e","686e379bc37a29ffa5cdc956","6877602644e5df177be7a53d","1","1","59cb95053306be000195be2e","1","1","2025-07-16T08:26:28.424Z","","","","","","","","","","","AttribQ","","50","","","","","","","","","","","","","","","","","","","","","","","","","","","","",""
"3811","","<div style=""width:500px;"">
  <p>How much control did you have over the ball?</p>
  </div>","74","html-slider-response","26","519341","0.0-5.0-2.3","43","1","2025-07-16 08:17:52","1f75c3e559b7213887762d5229550c2b","86.162.3.62","Mozilla/5.0 (Windows NT 10.0; Win64; x64) AppleWebKit/537.36 (KHTML, like Gecko) Chrome/138.0.0.0 Safari/537.36","WebKit","Chrome","138.0.0.0","Windows","10.0","https://app.prolific.com/","en-US,en;q=0.9","59cb95053306be000195be2e","686e379bc37a29ffa5cdc956","6877602644e5df177be7a53d","1","1","59cb95053306be000195be2e","1","1","2025-07-16T08:26:32.239Z","","","","","","","","","","","ControlQ","","50","","","","","","","","","","","","","","","","","","","","","","","","","","","","",""
"5005","","<div style=""width:500px;"">
  <p>How would you describe your current emotional state?</p>
  </div>","19","html-slider-response","27","524348","0.0-5.0-3.3","43","1","2025-07-16 08:17:52","1f75c3e559b7213887762d5229550c2b","86.162.3.62","Mozilla/5.0 (Windows NT 10.0; Win64; x64) AppleWebKit/537.36 (KHTML, like Gecko) Chrome/138.0.0.0 Safari/537.36","WebKit","Chrome","138.0.0.0","Windows","10.0","https://app.prolific.com/","en-US,en;q=0.9","59cb95053306be000195be2e","686e379bc37a29ffa5cdc956","6877602644e5df177be7a53d","1","1","59cb95053306be000195be2e","1","1","2025-07-16T08:26:37.246Z","","","","","","","","","","","StressQ","","50","","","","","","","","","","","","","","","","","","","","","","","","","","","","",""
"4159","","<div style=""width:500px;"">
  <p>What best describes how you currently feel?</p>
  </div>","69","html-slider-response","28","528510","0.0-5.0-4.3","43","1","2025-07-16 08:17:52","1f75c3e559b7213887762d5229550c2b","86.162.3.62","Mozilla/5.0 (Windows NT 10.0; Win64; x64) AppleWebKit/537.36 (KHTML, like Gecko) Chrome/138.0.0.0 Safari/537.36","WebKit","Chrome","138.0.0.0","Windows","10.0","https://app.prolific.com/","en-US,en;q=0.9","59cb95053306be000195be2e","686e379bc37a29ffa5cdc956","6877602644e5df177be7a53d","1","1","59cb95053306be000195be2e","1","1","2025-07-16T08:26:41.408Z","","","","","","","","","","","MotivationQ","","50","","","","","","","","","","","","","","","","","","","","","","","","","","","","",""
"","","","","ctl-task-cpt","29","568006","0.0-5.0-0.4","43","1","2025-07-16 08:17:52","1f75c3e559b7213887762d5229550c2b","86.162.3.62","Mozilla/5.0 (Windows NT 10.0; Win64; x64) AppleWebKit/537.36 (KHTML, like Gecko) Chrome/138.0.0.0 Safari/537.36","WebKit","Chrome","138.0.0.0","Windows","10.0","https://app.prolific.com/","en-US,en;q=0.9","59cb95053306be000195be2e","686e379bc37a29ffa5cdc956","6877602644e5df177be7a53d","1","1","59cb95053306be000195be2e","1","1","2025-07-16T08:27:20.905Z","","","","","","","","","","","","","","win-only","0","g1:NW,g2:SE","0.6","5","0","530007.4","1512.3","6514.8","36485.2","1","4","4","6","2","4","4","25","21","0.1893939393939394","1118.4","3000","840","[""down"",""right""]","{""num_key_presses"":8,""num_perfect"":5,""num_errors"":0,""num_randdir"":3,""num_randdir_good_moves"":2,""num_whilered"":0,""num_whileblue"":0,""num_blue"":2,""num_good_moves"":7}","[414.0714133126395,415.32142761775424,3.1,414.0714133126395,415.32142761775424,102.7,414.0714133126395,415.32142761775424,218.4,414.0714133126395,415.32142761775424,324.5,414.0714133126395,415.32142761775424,427.9,414.0714133126395,415.32142761775424,553.8,716.5714133126395,739.0714276177542,664.9,720.3214133126395,751.5714276177542,773,720.3214133126395,751.5714276177542,876.1,726.5714133126395,752.8214276177542,985.9,732.8214133126395,755.3214276177542,1093.8,732.8214133126395,756.5714276177542,1198.3,732.8214133126395,756.5714276177542,1298.7,732.8214133126395,756.5714276177542,1405.9,732.8214133126395,756.5714276177542,1514.3,732.8214133126395,756.5714276177542,1619.3,732.8214133126395,756.5714276177542,1720.5,732.8214133126395,756.5714276177542,1823.2,732.8214133126395,756.5714276177542,1927.6,732.8214133126395,756.5714276177542,2029,732.8214133126395,756.5714276177542,2136.4,732.8214133126395,756.5714276177542,2236.6,732.8214133126395,756.5714276177542,2349.4,732.8214133126395,756.5714276177542,2452.7,732.8214133126395,756.5714276177542,2555.6,732.8214133126395,756.5714276177542,2656.9,732.8214133126395,756.5714276177542,2759.7,732.8214133126395,756.5714276177542,2868.2,732.8214133126395,756.5714276177542,2972.8,732.8214133126395,756.5714276177542,3085.6,732.8214133126395,756.5714276177542,3198.7,732.8214133126395,756.5714276177542,3302.9,732.8214133126395,756.5714276177542,3404.9,732.8214133126395,756.5714276177542,3508.1,732.8214133126395,756.5714276177542,3618.7,732.8214133126395,756.5714276177542,3725.6,732.8214133126395,756.5714276177542,3833.1,732.8214133126395,756.5714276177542,3934.5,732.8214133126395,756.5714276177542,4047.9,732.8214133126395,756.5714276177542,4152.7,732.8214133126395,756.5714276177542,4257.4,732.8214133126395,756.5714276177542,4363.3,732.8214133126395,756.5714276177542,4467.2,732.8214133126395,756.5714276177542,4568.6,732.8214133126395,756.5714276177542,4674,732.8214133126395,756.5714276177542,4796.8,732.8214133126395,756.5714276177542,4899.3]","[4962.7,4962.7,2586.4,2005.8,370.5,""smooth"",""right"",""right"",""good_move"",11167.4,6202.9,2061.1,8642.1,464.3,""oops"",""right"",""left"",""bad_move"",13937.9,2767.4,2113.4,11170.5,654,""smooth"",""down"",""down"",""good_move"",16920.1,2979.6,2550,13940.5,429.6,""oops"",""down"",""down"",""good_move"",19834.6,2911.6,2485.5,16923.2,426,""oops"",""down"",""down"",""good_move"",23109.8,3273.5,2886,19836.3,387.5,""smooth"",""right"",""right"",""good_move"",26278,3166.6,2806.3,23111.4,360.3,""smooth"",""right"",""right"",""good_move"",29822,3538.6,3077.9,26283.4,460.7,""smooth"",""right"",""right"",""good_move""]","",""
"4702","","<div style=""width:500px;"">
  <p>What determined the result of this run?</p>
  </div>","70","html-slider-response","30","572712","0.0-5.0-1.4","43","1","2025-07-16 08:17:52","1f75c3e559b7213887762d5229550c2b","86.162.3.62","Mozilla/5.0 (Windows NT 10.0; Win64; x64) AppleWebKit/537.36 (KHTML, like Gecko) Chrome/138.0.0.0 Safari/537.36","WebKit","Chrome","138.0.0.0","Windows","10.0","https://app.prolific.com/","en-US,en;q=0.9","59cb95053306be000195be2e","686e379bc37a29ffa5cdc956","6877602644e5df177be7a53d","1","1","59cb95053306be000195be2e","1","1","2025-07-16T08:27:25.611Z","","","","","","","","","","","AttribQ","","50","","","","","","","","","","","","","","","","","","","","","","","","","","","","",""
"4829","","<div style=""width:500px;"">
  <p>How much control did you have over the ball?</p>
  </div>","82","html-slider-response","31","577545","0.0-5.0-2.4","43","1","2025-07-16 08:17:52","1f75c3e559b7213887762d5229550c2b","86.162.3.62","Mozilla/5.0 (Windows NT 10.0; Win64; x64) AppleWebKit/537.36 (KHTML, like Gecko) Chrome/138.0.0.0 Safari/537.36","WebKit","Chrome","138.0.0.0","Windows","10.0","https://app.prolific.com/","en-US,en;q=0.9","59cb95053306be000195be2e","686e379bc37a29ffa5cdc956","6877602644e5df177be7a53d","1","1","59cb95053306be000195be2e","1","1","2025-07-16T08:27:30.443Z","","","","","","","","","","","ControlQ","","50","","","","","","","","","","","","","","","","","","","","","","","","","","","","",""
"4385","","<div style=""width:500px;"">
  <p>How would you describe your current emotional state?</p>
  </div>","21","html-slider-response","32","581932","0.0-5.0-3.4","43","1","2025-07-16 08:17:52","1f75c3e559b7213887762d5229550c2b","86.162.3.62","Mozilla/5.0 (Windows NT 10.0; Win64; x64) AppleWebKit/537.36 (KHTML, like Gecko) Chrome/138.0.0.0 Safari/537.36","WebKit","Chrome","138.0.0.0","Windows","10.0","https://app.prolific.com/","en-US,en;q=0.9","59cb95053306be000195be2e","686e379bc37a29ffa5cdc956","6877602644e5df177be7a53d","1","1","59cb95053306be000195be2e","1","1","2025-07-16T08:27:34.830Z","","","","","","","","","","","StressQ","","50","","","","","","","","","","","","","","","","","","","","","","","","","","","","",""
"5140","","<div style=""width:500px;"">
  <p>What best describes how you currently feel?</p>
  </div>","75","html-slider-response","33","587075","0.0-5.0-4.4","43","1","2025-07-16 08:17:52","1f75c3e559b7213887762d5229550c2b","86.162.3.62","Mozilla/5.0 (Windows NT 10.0; Win64; x64) AppleWebKit/537.36 (KHTML, like Gecko) Chrome/138.0.0.0 Safari/537.36","WebKit","Chrome","138.0.0.0","Windows","10.0","https://app.prolific.com/","en-US,en;q=0.9","59cb95053306be000195be2e","686e379bc37a29ffa5cdc956","6877602644e5df177be7a53d","1","1","59cb95053306be000195be2e","1","1","2025-07-16T08:27:39.973Z","","","","","","","","","","","MotivationQ","","50","","","","","","","","","","","","","","","","","","","","","","","","","","","","",""
"","","","","ctl-task-cpt","34","680679","0.0-5.0-0.5","43","1","2025-07-16 08:17:52","1f75c3e559b7213887762d5229550c2b","86.162.3.62","Mozilla/5.0 (Windows NT 10.0; Win64; x64) AppleWebKit/537.36 (KHTML, like Gecko) Chrome/138.0.0.0 Safari/537.36","WebKit","Chrome","138.0.0.0","Windows","10.0","https://app.prolific.com/","en-US,en;q=0.9","59cb95053306be000195be2e","686e379bc37a29ffa5cdc956","6877602644e5df177be7a53d","1","1","59cb95053306be000195be2e","1","1","2025-07-16T08:29:13.578Z","","","","","","","","","","","","","","win-only","3","g1:SW,g2:NE","0.5","6","0","588572","2295.1","7299.6","90560.9","1","4","8","6","2","8","5","30","25","0.22727272727272727","1371.9","3000","1290","[""up"",""right""]","{""num_key_presses"":19,""num_perfect"":8,""num_errors"":3,""num_randdir"":8,""num_randdir_good_moves"":3,""num_whilered"":0,""num_whileblue"":0,""num_blue"":6,""num_good_moves"":11}","[416.5714133126395,417.82142761775424,2.8,416.5714133126395,417.82142761775424,105.3,416.5714133126395,417.82142761775424,209.6,416.5714133126395,417.82142761775424,312.3,416.5714133126395,417.82142761775424,412.6,416.5714133126395,417.82142761775424,514.3,416.5714133126395,417.82142761775424,620.1,504.0714133126395,265.32142761775424,724.4,706.5714133126395,42.82142761775425,833.2,706.5714133126395,42.82142761775425,936.6,706.5714133126395,42.82142761775425,1044.2,710.3214133126395,42.82142761775425,1145.1,724.0714133126395,56.57142761775425,1255.1,729.0714133126395,61.57142761775425,1356,729.0714133126395,61.57142761775425,1456.4,729.0714133126395,61.57142761775425,1568.4,729.0714133126395,61.57142761775425,1674.1,729.0714133126395,61.57142761775425,1774.8,729.0714133126395,61.57142761775425,1875.8,729.0714133126395,61.57142761775425,1986.4,729.0714133126395,61.57142761775425,2094.8,726.5714133126395,64.07142761775425,2195,720.3214133126395,71.57142761775425,2306.3,719.0714133126395,71.57142761775425,2413.3,719.0714133126395,71.57142761775425,2520.6,717.8214133126395,71.57142761775425,2631.5,717.8214133126395,71.57142761775425,2736,717.8214133126395,71.57142761775425,2839.9,717.8214133126395,71.57142761775425,2945.7,717.8214133126395,71.57142761775425,3047.6,717.8214133126395,71.57142761775425,3147.7,717.8214133126395,71.57142761775425,3253.9,717.8214133126395,71.57142761775425,3364.6,717.8214133126395,71.57142761775425,3474.5,717.8214133126395,71.57142761775425,3581.2,717.8214133126395,71.57142761775425,3689.1,717.8214133126395,71.57142761775425,3793.7,717.8214133126395,71.57142761775425,3898.1,717.8214133126395,71.57142761775425,4002.1,717.8214133126395,71.57142761775425,4114.9,717.8214133126395,71.57142761775425,4222.2,717.8214133126395,71.57142761775425,4330.2,717.8214133126395,71.57142761775425,4430.4,717.8214133126395,71.57142761775425,4539.9,717.8214133126395,71.57142761775425,4640.8,717.8214133126395,71.57142761775425,4744.8,717.8214133126395,71.57142761775425,4851,717.8214133126395,71.57142761775425,4952.5]","[501.9,501.9,1000,0,-498.1,""error"",""-"",""-"",""no_move"",4220.3,3716,2252,1512.4,455.9,""smooth"",""right"",""right"",""good_move"",7914.2,3692.4,3236.3,4221.8,456.1,""smooth"",""right"",""right"",""good_move"",11087.7,3167.7,2732.7,7920,435,""smooth"",""right"",""right"",""good_move"",18021.9,6925.3,3118.9,14520.2,382.9,""smooth"",""up"",""up"",""good_move"",21445.9,3417,1942.7,18029,1474.3,""oops"",""up"",""left"",""bad_move"",24950.2,3502.4,3103.2,21447.9,399.2,""oops"",""up"",""down"",""bad_move"",27797.8,2845.1,2472.6,24952.7,372.5,""oops"",""up"",""up"",""good_move"",31300.3,3500.9,2917.1,27799.4,583.8,""oops"",""up"",""up"",""good_move"",34822.1,3520,2540.6,31302.2,979.4,""smooth"",""up"",""up"",""good_move"",46382.4,11557,3202.9,42772,407.5,""oops"",""right"",""down"",""bad_move"",49194.7,2805.4,2378.1,46389.4,427.2,""oops"",""right"",""left"",""bad_move"",51053.2,1856.3,2889.9,49196.9,-1033.6,""error"",""-"",""-"",""no_move"",55733.5,4677.3,2449.1,55176.7,-1892.3,""error"",""-"",""-"",""no_move"",63286.1,7550.8,2518.7,60254.8,512.6,""smooth"",""up"",""up"",""good_move"",68522.9,5235.6,2974,63287.4,2261.5,""smooth"",""right"",""right"",""good_move"",71488.7,2964.5,2346,68524.2,618.5,""oops"",""right"",""left"",""bad_move"",76802.1,5311.7,2068.5,71490.4,3243.2,""oops"",""right"",""right"",""good_move"",82734.1,5930.7,2134.5,80206.3,393.4,""smooth"",""right"",""right"",""good_move""]","",""
"9213","","<div style=""width:500px;"">
  <p>What determined the result of this run?</p>
  </div>","31","html-slider-response","35","689898","0.0-5.0-1.5","43","1","2025-07-16 08:17:52","1f75c3e559b7213887762d5229550c2b","86.162.3.62","Mozilla/5.0 (Windows NT 10.0; Win64; x64) AppleWebKit/537.36 (KHTML, like Gecko) Chrome/138.0.0.0 Safari/537.36","WebKit","Chrome","138.0.0.0","Windows","10.0","https://app.prolific.com/","en-US,en;q=0.9","59cb95053306be000195be2e","686e379bc37a29ffa5cdc956","6877602644e5df177be7a53d","1","1","59cb95053306be000195be2e","1","1","2025-07-16T08:29:22.796Z","","","","","","","","","","","AttribQ","","50","","","","","","","","","","","","","","","","","","","","","","","","","","","","",""
"4135","","<div style=""width:500px;"">
  <p>How much control did you have over the ball?</p>
  </div>","29","html-slider-response","36","694038","0.0-5.0-2.5","43","1","2025-07-16 08:17:52","1f75c3e559b7213887762d5229550c2b","86.162.3.62","Mozilla/5.0 (Windows NT 10.0; Win64; x64) AppleWebKit/537.36 (KHTML, like Gecko) Chrome/138.0.0.0 Safari/537.36","WebKit","Chrome","138.0.0.0","Windows","10.0","https://app.prolific.com/","en-US,en;q=0.9","59cb95053306be000195be2e","686e379bc37a29ffa5cdc956","6877602644e5df177be7a53d","1","1","59cb95053306be000195be2e","1","1","2025-07-16T08:29:26.937Z","","","","","","","","","","","ControlQ","","50","","","","","","","","","","","","","","","","","","","","","","","","","","","","",""
"2807","","<div style=""width:500px;"">
  <p>How would you describe your current emotional state?</p>
  </div>","37","html-slider-response","37","696853","0.0-5.0-3.5","43","1","2025-07-16 08:17:52","1f75c3e559b7213887762d5229550c2b","86.162.3.62","Mozilla/5.0 (Windows NT 10.0; Win64; x64) AppleWebKit/537.36 (KHTML, like Gecko) Chrome/138.0.0.0 Safari/537.36","WebKit","Chrome","138.0.0.0","Windows","10.0","https://app.prolific.com/","en-US,en;q=0.9","59cb95053306be000195be2e","686e379bc37a29ffa5cdc956","6877602644e5df177be7a53d","1","1","59cb95053306be000195be2e","1","1","2025-07-16T08:29:29.751Z","","","","","","","","","","","StressQ","","50","","","","","","","","","","","","","","","","","","","","","","","","","","","","",""
"6190","","<div style=""width:500px;"">
  <p>What best describes how you currently feel?</p>
  </div>","59","html-slider-response","38","703045","0.0-5.0-4.5","43","1","2025-07-16 08:17:52","1f75c3e559b7213887762d5229550c2b","86.162.3.62","Mozilla/5.0 (Windows NT 10.0; Win64; x64) AppleWebKit/537.36 (KHTML, like Gecko) Chrome/138.0.0.0 Safari/537.36","WebKit","Chrome","138.0.0.0","Windows","10.0","https://app.prolific.com/","en-US,en;q=0.9","59cb95053306be000195be2e","686e379bc37a29ffa5cdc956","6877602644e5df177be7a53d","1","1","59cb95053306be000195be2e","1","1","2025-07-16T08:29:35.944Z","","","","","","","","","","","MotivationQ","","50","","","","","","","","","","","","","","","","","","","","","","","","","","","","",""
"","","","","ctl-task-cpt","39","796593","0.0-5.0-0.6","43","1","2025-07-16 08:17:52","1f75c3e559b7213887762d5229550c2b","86.162.3.62","Mozilla/5.0 (Windows NT 10.0; Win64; x64) AppleWebKit/537.36 (KHTML, like Gecko) Chrome/138.0.0.0 Safari/537.36","WebKit","Chrome","138.0.0.0","Windows","10.0","https://app.prolific.com/","en-US,en;q=0.9","59cb95053306be000195be2e","686e379bc37a29ffa5cdc956","6877602644e5df177be7a53d","1","1","59cb95053306be000195be2e","1","1","2025-07-16T08:31:09.491Z","","","","","","","","","","","","","","win-only","3","g1:SW,g2:NE","0.4","7","0","704555.3","1133.5","6141.1","90503.7","1","4","8","6","2","8","5","35","30","0.26515151515151514","1392.4","3000","620","[""up"",""right""]","{""num_key_presses"":23,""num_perfect"":8,""num_errors"":3,""num_randdir"":12,""num_randdir_good_moves"":5,""num_whilered"":0,""num_whileblue"":0,""num_blue"":3,""num_good_moves"":13}","[420.3214133126395,421.57142761775424,1.6,420.3214133126395,421.57142761775424,105.4,420.3214133126395,421.57142761775424,205.4,420.3214133126395,421.57142761775424,310.3,420.3214133126395,421.57142761775424,422.1,420.3214133126395,421.57142761775424,523.4,411.5714133126395,444.07142761775424,626.5,551.5714133126395,301.57142761775424,735.5,710.3214133126395,140.32142761775424,841.4,710.3214133126395,140.32142761775424,944.5,710.3214133126395,140.32142761775424,1052.4,741.5714133126395,91.57142761775425,1160.4,742.8214133126395,91.57142761775425,1262.9,742.8214133126395,91.57142761775425,1364.4,742.8214133126395,91.57142761775425,1477.2,742.8214133126395,91.57142761775425,1589.1,742.8214133126395,91.57142761775425,1690.6,742.8214133126395,91.57142761775425,1800.9,742.8214133126395,91.57142761775425,1907,742.8214133126395,91.57142761775425,2018,742.8214133126395,91.57142761775425,2120.9,742.8214133126395,91.57142761775425,2222.3,742.8214133126395,91.57142761775425,2326.3,742.8214133126395,91.57142761775425,2439.2,742.8214133126395,91.57142761775425,2548.6,742.8214133126395,91.57142761775425,2659.8,742.8214133126395,91.57142761775425,2763,742.8214133126395,91.57142761775425,2874.5,742.8214133126395,91.57142761775425,2984.1,742.8214133126395,91.57142761775425,3089.2,742.8214133126395,91.57142761775425,3197.2,742.8214133126395,91.57142761775425,3301.4,742.8214133126395,91.57142761775425,3407.5,742.8214133126395,91.57142761775425,3518,742.8214133126395,91.57142761775425,3629.1,742.8214133126395,91.57142761775425,3732.6,742.8214133126395,91.57142761775425,3846.2,742.8214133126395,91.57142761775425,3951.1,742.8214133126395,91.57142761775425,4053.7,742.8214133126395,91.57142761775425,4164.7,742.8214133126395,91.57142761775425,4274.5,742.8214133126395,91.57142761775425,4385.3,742.8214133126395,90.32142761775425,4486.5,742.8214133126395,90.32142761775425,4590.9,742.8214133126395,90.32142761775425,4703.5,742.8214133126395,90.32142761775425,4818.3,742.8214133126395,90.32142761775425,4919.1]","[8223.5,8223.5,1992.3,5793.9,437.3,""oops"",""right"",""up"",""good_move"",11473.4,3246.4,2197.7,8227,1048.7,""oops"",""right"",""left"",""bad_move"",14996.1,3516.1,2466.5,11480.1,1049.5,""oops"",""up"",""left"",""bad_move"",18688.2,3689.8,2957.7,14998.4,732.1,""smooth"",""up"",""up"",""good_move"",22539.6,3849.7,2993.5,18689.9,856.2,""smooth"",""up"",""up"",""good_move"",26530.5,3989.3,2459.8,22541.3,1529.4,""oops"",""right"",""down"",""bad_move"",29679.6,3147.1,2739.8,26532.5,407.3,""oops"",""right"",""right"",""good_move"",32923,3241.5,2771.2,29681.5,470.3,""smooth"",""right"",""right"",""good_move"",35242,2317.2,1609,32924.8,708.2,""oops"",""right"",""right"",""good_move"",37954.9,2708.9,2335.4,35246,373.5,""smooth"",""right"",""right"",""good_move"",40370.9,2414.4,2038.1,37956.6,376.3,""oops"",""right"",""down"",""bad_move"",43074.6,2702,2284.8,40372.6,417.2,""oops"",""right"",""left"",""bad_move"",44656.4,1580.1,2877.5,43076.5,-1297.5,""error"",""-"",""-"",""no_move"",48493,3834.5,2133.2,45661.9,697.9,""oops"",""up"",""right"",""good_move"",51085.4,2591.1,2822.5,48494.3,-231.4,""error"",""-"",""-"",""no_move"",54871.2,3784.8,2370.6,52089.9,410.7,""oops"",""up"",""left"",""bad_move"",60593.7,5721.4,2864.5,54872.3,2856.9,""oops"",""up"",""right"",""good_move"",67353.9,6759.2,2787.5,63722.1,844.4,""oops"",""up"",""left"",""bad_move"",70616,3260.9,2578.7,67355.1,682.2,""smooth"",""right"",""right"",""good_move"",74203.8,3585.5,3226.4,70618.3,359.1,""smooth"",""right"",""right"",""good_move"",76119.5,1914.1,2776.3,74205.4,-862.2,""error"",""-"",""-"",""no_move"",80520.3,4399.7,2973.2,77125.6,421.5,""smooth"",""up"",""up"",""good_move"",83956.9,3434.9,2528.9,80522,906,""smooth"",""up"",""up"",""good_move""]","",""
"3570","","<div style=""width:500px;"">
  <p>What determined the result of this run?</p>
  </div>","14","html-slider-response","40","800168","0.0-5.0-1.6","43","1","2025-07-16 08:17:52","1f75c3e559b7213887762d5229550c2b","86.162.3.62","Mozilla/5.0 (Windows NT 10.0; Win64; x64) AppleWebKit/537.36 (KHTML, like Gecko) Chrome/138.0.0.0 Safari/537.36","WebKit","Chrome","138.0.0.0","Windows","10.0","https://app.prolific.com/","en-US,en;q=0.9","59cb95053306be000195be2e","686e379bc37a29ffa5cdc956","6877602644e5df177be7a53d","1","1","59cb95053306be000195be2e","1","1","2025-07-16T08:31:13.066Z","","","","","","","","","","","AttribQ","","50","","","","","","","","","","","","","","","","","","","","","","","","","","","","",""
"2865","","<div style=""width:500px;"">
  <p>How much control did you have over the ball?</p>
  </div>","6","html-slider-response","41","803041","0.0-5.0-2.6","43","1","2025-07-16 08:17:52","1f75c3e559b7213887762d5229550c2b","86.162.3.62","Mozilla/5.0 (Windows NT 10.0; Win64; x64) AppleWebKit/537.36 (KHTML, like Gecko) Chrome/138.0.0.0 Safari/537.36","WebKit","Chrome","138.0.0.0","Windows","10.0","https://app.prolific.com/","en-US,en;q=0.9","59cb95053306be000195be2e","686e379bc37a29ffa5cdc956","6877602644e5df177be7a53d","1","1","59cb95053306be000195be2e","1","1","2025-07-16T08:31:15.939Z","","","","","","","","","","","ControlQ","","50","","","","","","","","","","","","","","","","","","","","","","","","","","","","",""
"3881","","<div style=""width:500px;"">
  <p>How would you describe your current emotional state?</p>
  </div>","45","html-slider-response","42","806928","0.0-5.0-3.6","43","1","2025-07-16 08:17:52","1f75c3e559b7213887762d5229550c2b","86.162.3.62","Mozilla/5.0 (Windows NT 10.0; Win64; x64) AppleWebKit/537.36 (KHTML, like Gecko) Chrome/138.0.0.0 Safari/537.36","WebKit","Chrome","138.0.0.0","Windows","10.0","https://app.prolific.com/","en-US,en;q=0.9","59cb95053306be000195be2e","686e379bc37a29ffa5cdc956","6877602644e5df177be7a53d","1","1","59cb95053306be000195be2e","1","1","2025-07-16T08:31:19.827Z","","","","","","","","","","","StressQ","","50","","","","","","","","","","","","","","","","","","","","","","","","","","","","",""
"8671","","<div style=""width:500px;"">
  <p>What best describes how you currently feel?</p>
  </div>","56","html-slider-response","43","815602","0.0-5.0-4.6","43","1","2025-07-16 08:17:52","1f75c3e559b7213887762d5229550c2b","86.162.3.62","Mozilla/5.0 (Windows NT 10.0; Win64; x64) AppleWebKit/537.36 (KHTML, like Gecko) Chrome/138.0.0.0 Safari/537.36","WebKit","Chrome","138.0.0.0","Windows","10.0","https://app.prolific.com/","en-US,en;q=0.9","59cb95053306be000195be2e","686e379bc37a29ffa5cdc956","6877602644e5df177be7a53d","1","1","59cb95053306be000195be2e","1","1","2025-07-16T08:31:28.500Z","","","","","","","","","","","MotivationQ","","50","","","","","","","","","","","","","","","","","","","","","","","","","","","","",""
"","","","","ctl-task-cpt","44","889466","0.0-5.0-0.7","43","1","2025-07-16 08:17:52","1f75c3e559b7213887762d5229550c2b","86.162.3.62","Mozilla/5.0 (Windows NT 10.0; Win64; x64) AppleWebKit/537.36 (KHTML, like Gecko) Chrome/138.0.0.0 Safari/537.36","WebKit","Chrome","138.0.0.0","Windows","10.0","https://app.prolific.com/","en-US,en;q=0.9","59cb95053306be000195be2e","686e379bc37a29ffa5cdc956","6877602644e5df177be7a53d","1","1","59cb95053306be000195be2e","1","1","2025-07-16T08:32:42.364Z","","","","","","","","","","","","","","win-only","2","g1:SE,g2:NW","0.3","8","0","817101.2","1359.3","6390.7","70844.7","1","4","4","6","2","-4","-5","30","35","0.22727272727272727","1133.3","3000","-945","[""left"",""up""]","{""num_key_presses"":16,""num_perfect"":5,""num_errors"":1,""num_randdir"":10,""num_randdir_good_moves"":5,""num_whilered"":0,""num_whileblue"":0,""num_blue"":3,""num_good_moves"":9}","[412.8214133126395,411.57142761775424,1,412.8214133126395,411.57142761775424,128.3,412.8214133126395,411.57142761775424,248.3,412.8214133126395,411.57142761775424,349.7,412.8214133126395,411.57142761775424,452.6,412.8214133126395,411.57142761775424,554.1,412.8214133126395,411.57142761775424,672.9,81.5714133126395,74.07142761775425,786.8,49.07141331263951,36.57142761775425,904.3,49.07141331263951,36.57142761775425,1020.1,49.07141331263951,36.57142761775425,1129.2,49.07141331263951,36.57142761775425,1240,49.07141331263951,36.57142761775425,1342.8,49.07141331263951,36.57142761775425,1460.2,49.07141331263951,36.57142761775425,1578.8,49.07141331263951,36.57142761775425,1702.5,49.07141331263951,36.57142761775425,1814.8,49.07141331263951,36.57142761775425,1931.5,49.07141331263951,36.57142761775425,2061.1,49.07141331263951,36.57142761775425,2171.2,49.07141331263951,36.57142761775425,2290.6,49.07141331263951,36.57142761775425,2409.2,49.07141331263951,36.57142761775425,2520.3,49.07141331263951,36.57142761775425,2638.7,49.07141331263951,36.57142761775425,2755.4,49.07141331263951,36.57142761775425,2872.4,49.07141331263951,36.57142761775425,2989.5,49.07141331263951,36.57142761775425,3090.7,49.07141331263951,36.57142761775425,3210.7,49.07141331263951,36.57142761775425,3330.3,49.07141331263951,36.57142761775425,3442.4,49.07141331263951,36.57142761775425,3563.8,49.07141331263951,36.57142761775425,3684.4,49.07141331263951,36.57142761775425,3798.5,49.07141331263951,36.57142761775425,3912.9,49.07141331263951,36.57142761775425,4024.2,49.07141331263951,36.57142761775425,4131.3,49.07141331263951,36.57142761775425,4248.7,49.07141331263951,36.57142761775425,4362.6,49.07141331263951,36.57142761775425,4483.6,49.07141331263951,36.57142761775425,4604.5,49.07141331263951,36.57142761775425,4714.5,49.07141331263951,36.57142761775425,4838,49.07141331263951,36.57142761775425,4953.8]","[2631.4,2631.4,1000,0,1631.4,""oops"",""left"",""up"",""good_move"",5925.5,3289.5,2376.6,2636,912.9,""smooth"",""left"",""left"",""good_move"",9571.8,3643.2,2694.9,5928.6,948.3,""oops"",""left"",""right"",""bad_move"",12724.2,3150.3,2722.8,9573.9,427.5,""smooth"",""up"",""up"",""good_move"",16861.8,4133.6,2617.9,12728.3,1515.6,""oops"",""up"",""right"",""bad_move"",20396.1,3532.6,2007.8,16863.5,1524.8,""smooth"",""left"",""left"",""good_move"",26581.2,6178.7,2297.7,23844,439.5,""oops"",""left"",""left"",""good_move"",30035.3,3452.7,2841.7,26582.6,611,""oops"",""left"",""right"",""bad_move"",33049.9,3012.8,2297.7,30037.1,715.1,""oops"",""up"",""left"",""good_move"",36365.2,3304.4,1847.3,33060.9,1457,""oops"",""up"",""left"",""good_move"",40013.6,3646.7,3268.7,36366.9,378,""smooth"",""up"",""up"",""good_move"",43551.9,3536.3,3083,40015.7,453.3,""oops"",""left"",""right"",""bad_move"",47602.2,4048.7,2864.3,46986.2,-2248.3,""error"",""-"",""-"",""no_move"",52048.2,4443,2580.8,48627.9,839.5,""oops"",""up"",""left"",""good_move"",55225.3,3167.8,2794.9,52057.5,372.9,""smooth"",""up"",""right"",""bad_move"",61705.3,6478.2,2723,58179.9,802.4,""oops"",""up"",""right"",""bad_move""]","",""
"3909","","<div style=""width:500px;"">
  <p>What determined the result of this run?</p>
  </div>","10","html-slider-response","45","893379","0.0-5.0-1.7","43","1","2025-07-16 08:17:52","1f75c3e559b7213887762d5229550c2b","86.162.3.62","Mozilla/5.0 (Windows NT 10.0; Win64; x64) AppleWebKit/537.36 (KHTML, like Gecko) Chrome/138.0.0.0 Safari/537.36","WebKit","Chrome","138.0.0.0","Windows","10.0","https://app.prolific.com/","en-US,en;q=0.9","59cb95053306be000195be2e","686e379bc37a29ffa5cdc956","6877602644e5df177be7a53d","1","1","59cb95053306be000195be2e","1","1","2025-07-16T08:32:46.277Z","","","","","","","","","","","AttribQ","","50","","","","","","","","","","","","","","","","","","","","","","","","","","","","",""
"2463","","<div style=""width:500px;"">
  <p>How much control did you have over the ball?</p>
  </div>","9","html-slider-response","46","895852","0.0-5.0-2.7","43","1","2025-07-16 08:17:52","1f75c3e559b7213887762d5229550c2b","86.162.3.62","Mozilla/5.0 (Windows NT 10.0; Win64; x64) AppleWebKit/537.36 (KHTML, like Gecko) Chrome/138.0.0.0 Safari/537.36","WebKit","Chrome","138.0.0.0","Windows","10.0","https://app.prolific.com/","en-US,en;q=0.9","59cb95053306be000195be2e","686e379bc37a29ffa5cdc956","6877602644e5df177be7a53d","1","1","59cb95053306be000195be2e","1","1","2025-07-16T08:32:48.750Z","","","","","","","","","","","ControlQ","","50","","","","","","","","","","","","","","","","","","","","","","","","","","","","",""
"3390","","<div style=""width:500px;"">
  <p>How would you describe your current emotional state?</p>
  </div>","37","html-slider-response","47","899245","0.0-5.0-3.7","43","1","2025-07-16 08:17:52","1f75c3e559b7213887762d5229550c2b","86.162.3.62","Mozilla/5.0 (Windows NT 10.0; Win64; x64) AppleWebKit/537.36 (KHTML, like Gecko) Chrome/138.0.0.0 Safari/537.36","WebKit","Chrome","138.0.0.0","Windows","10.0","https://app.prolific.com/","en-US,en;q=0.9","59cb95053306be000195be2e","686e379bc37a29ffa5cdc956","6877602644e5df177be7a53d","1","1","59cb95053306be000195be2e","1","1","2025-07-16T08:32:52.144Z","","","","","","","","","","","StressQ","","50","","","","","","","","","","","","","","","","","","","","","","","","","","","","",""
"2683","","<div style=""width:500px;"">
  <p>What best describes how you currently feel?</p>
  </div>","56","html-slider-response","48","901933","0.0-5.0-4.7","43","1","2025-07-16 08:17:52","1f75c3e559b7213887762d5229550c2b","86.162.3.62","Mozilla/5.0 (Windows NT 10.0; Win64; x64) AppleWebKit/537.36 (KHTML, like Gecko) Chrome/138.0.0.0 Safari/537.36","WebKit","Chrome","138.0.0.0","Windows","10.0","https://app.prolific.com/","en-US,en;q=0.9","59cb95053306be000195be2e","686e379bc37a29ffa5cdc956","6877602644e5df177be7a53d","1","1","59cb95053306be000195be2e","1","1","2025-07-16T08:32:54.832Z","","","","","","","","","","","MotivationQ","","50","","","","","","","","","","","","","","","","","","","","","","","","","","","","",""
"","","","","ctl-task-cpt","49","1099330","0.0-5.0-0.8","43","1","2025-07-16 08:17:52","1f75c3e559b7213887762d5229550c2b","86.162.3.62","Mozilla/5.0 (Windows NT 10.0; Win64; x64) AppleWebKit/537.36 (KHTML, like Gecko) Chrome/138.0.0.0 Safari/537.36","WebKit","Chrome","138.0.0.0","Windows","10.0","https://app.prolific.com/","en-US,en;q=0.9","59cb95053306be000195be2e","686e379bc37a29ffa5cdc956","6877602644e5df177be7a53d","1","1","59cb95053306be000195be2e","1","1","2025-07-16T08:36:12.228Z","","","","","","","","","","","","","","win-only","3","g1:SW,g2:NE","0.2","9","0","903432.6","1194.9","6211.5","194347.9","1","4","8","6","2","-8","-9","21","30","0.1590909090909091","883.6","3000","-620","[""up"",""right""]","{""num_key_presses"":31,""num_perfect"":6,""num_errors"":1,""num_randdir"":24,""num_randdir_good_moves"":10,""num_whilered"":0,""num_whileblue"":0,""num_blue"":12,""num_good_moves"":14}","[406.5714133126395,410.32142761775424,1,406.5714133126395,410.32142761775424,108,406.5714133126395,410.32142761775424,224.4,406.5714133126395,410.32142761775424,337.7,406.5714133126395,410.32142761775424,451.9,747.8214133126395,76.57142761775425,558.6,774.0714133126395,57.82142761775425,679.6,769.0714133126395,60.32142761775425,798.3,769.0714133126395,60.32142761775425,931.9,769.0714133126395,60.32142761775425,1052.4,769.0714133126395,60.32142761775425,1160.6,769.0714133126395,60.32142761775425,1274.9,769.0714133126395,60.32142761775425,1394.2,769.0714133126395,60.32142761775425,1506.5,769.0714133126395,60.32142761775425,1620.5,769.0714133126395,60.32142761775425,1723.8,769.0714133126395,60.32142761775425,1833.3,769.0714133126395,60.32142761775425,1943.6,769.0714133126395,60.32142761775425,2072.6,769.0714133126395,60.32142761775425,2183.5,769.0714133126395,60.32142761775425,2290,769.0714133126395,60.32142761775425,2390.9,769.0714133126395,60.32142761775425,2502.6,769.0714133126395,60.32142761775425,2609.4,769.0714133126395,60.32142761775425,2714.7,769.0714133126395,60.32142761775425,2820.6,769.0714133126395,60.32142761775425,2929,769.0714133126395,60.32142761775425,3030.5,769.0714133126395,60.32142761775425,3143.8,769.0714133126395,60.32142761775425,3252.5,769.0714133126395,60.32142761775425,3354.5,769.0714133126395,60.32142761775425,3460.8,769.0714133126395,60.32142761775425,3567.6,769.0714133126395,60.32142761775425,3674.5,769.0714133126395,60.32142761775425,3784.8,769.0714133126395,60.32142761775425,3891.1,769.0714133126395,60.32142761775425,3993,769.0714133126395,60.32142761775425,4121.7,769.0714133126395,60.32142761775425,4231.4,769.0714133126395,60.32142761775425,4338.1,769.0714133126395,60.32142761775425,4440.8,769.0714133126395,60.32142761775425,4567.2,769.0714133126395,60.32142761775425,4669,769.0714133126395,60.32142761775425,4786.5,769.0714133126395,60.32142761775425,4893.8]","[431.8,431.8,1000,0,-568.2,""error"",""-"",""-"",""no_move"",4215.7,3782.6,2190,1448.6,577.2,""oops"",""right"",""up"",""good_move"",7852.7,3634.5,2906.9,4218.2,727.6,""oops"",""right"",""right"",""good_move"",11221,3364.6,2522.2,7856.4,842.4,""oops"",""right"",""left"",""bad_move"",15040.5,3817.5,2370.1,11223,1447.4,""oops"",""up"",""left"",""bad_move"",19492.5,4450.4,2323.5,15042.1,2126.9,""oops"",""up"",""left"",""bad_move"",27292,7797.1,2133,24722.9,436.1,""smooth"",""up"",""up"",""good_move"",32211.5,4917.4,3036.5,27294.1,1880.9,""smooth"",""up"",""up"",""good_move"",37342.4,5129.3,2269.8,32213.1,2859.5,""oops"",""right"",""up"",""good_move"",43026.8,5682.7,2054.1,37344.1,3628.6,""oops"",""right"",""right"",""good_move"",46081.1,3046.7,2378.3,43034.4,668.4,""oops"",""right"",""down"",""bad_move"",49146.7,3063.3,2591.3,46083.4,472,""oops"",""right"",""right"",""good_move"",63919.5,14770.2,3358.2,60107.8,453.5,""smooth"",""right"",""right"",""good_move"",66905.8,2985.2,2444,63920.6,541.2,""oops"",""right"",""down"",""bad_move"",70712.3,3804.3,3240.7,66908,563.6,""oops"",""right"",""left"",""bad_move"",77821.6,7107.3,2045.2,70714.4,5062,""oops"",""right"",""up"",""good_move"",85494.5,7671.5,2235.1,77823,5436.4,""oops"",""right"",""right"",""good_move"",92544.7,7048.8,2981.4,89065.9,497.4,""oops"",""right"",""left"",""bad_move"",103458.7,10910.9,1851.6,101235.7,371.4,""smooth"",""down"",""down"",""bad_move"",110460.9,7001.2,2653.2,107399.5,408.2,""oops"",""down"",""left"",""bad_move"",118430.1,7968.2,2625,110461.9,5343.2,""oops"",""right"",""down"",""bad_move"",121761.5,3329.9,2440.1,118431.7,889.8,""oops"",""right"",""up"",""good_move"",133005.6,11241.4,2077.4,130324.1,604.1,""oops"",""right"",""down"",""bad_move"",136519.6,3512.7,2404.8,133006.9,1107.9,""oops"",""right"",""right"",""good_move"",139565.3,3043.2,2214.6,136522.2,828.6,""oops"",""right"",""down"",""bad_move"",154621.3,15054.2,2811.9,151282.3,527.1,""oops"",""right"",""left"",""bad_move"",165974.9,11352.4,2149.1,154622.5,9203.3,""smooth"",""down"",""down"",""bad_move"",169508.2,3531.9,2497.8,165976.3,1034.1,""oops"",""right"",""left"",""bad_move"",173563.5,4053.7,2884.3,169509.9,1169.4,""oops"",""down"",""down"",""bad_move"",180125.1,6559.7,2264.8,177230.7,629.6,""oops"",""right"",""up"",""good_move"",184038.9,3912.4,2427.3,180126.5,1485.1,""smooth"",""right"",""right"",""good_move""]","",""
"5506","","<div style=""width:500px;"">
  <p>What determined the result of this run?</p>
  </div>","1","html-slider-response","50","1104839","0.0-5.0-1.8","43","1","2025-07-16 08:17:52","1f75c3e559b7213887762d5229550c2b","86.162.3.62","Mozilla/5.0 (Windows NT 10.0; Win64; x64) AppleWebKit/537.36 (KHTML, like Gecko) Chrome/138.0.0.0 Safari/537.36","WebKit","Chrome","138.0.0.0","Windows","10.0","https://app.prolific.com/","en-US,en;q=0.9","59cb95053306be000195be2e","686e379bc37a29ffa5cdc956","6877602644e5df177be7a53d","1","1","59cb95053306be000195be2e","1","1","2025-07-16T08:36:17.738Z","","","","","","","","","","","AttribQ","","50","","","","","","","","","","","","","","","","","","","","","","","","","","","","",""
"3959","","<div style=""width:500px;"">
  <p>How much control did you have over the ball?</p>
  </div>","2","html-slider-response","51","1108802","0.0-5.0-2.8","43","1","2025-07-16 08:17:52","1f75c3e559b7213887762d5229550c2b","86.162.3.62","Mozilla/5.0 (Windows NT 10.0; Win64; x64) AppleWebKit/537.36 (KHTML, like Gecko) Chrome/138.0.0.0 Safari/537.36","WebKit","Chrome","138.0.0.0","Windows","10.0","https://app.prolific.com/","en-US,en;q=0.9","59cb95053306be000195be2e","686e379bc37a29ffa5cdc956","6877602644e5df177be7a53d","1","1","59cb95053306be000195be2e","1","1","2025-07-16T08:36:21.700Z","","","","","","","","","","","ControlQ","","50","","","","","","","","","","","","","","","","","","","","","","","","","","","","",""
"2793","","<div style=""width:500px;"">
  <p>How would you describe your current emotional state?</p>
  </div>","45","html-slider-response","52","1111599","0.0-5.0-3.8","43","1","2025-07-16 08:17:52","1f75c3e559b7213887762d5229550c2b","86.162.3.62","Mozilla/5.0 (Windows NT 10.0; Win64; x64) AppleWebKit/537.36 (KHTML, like Gecko) Chrome/138.0.0.0 Safari/537.36","WebKit","Chrome","138.0.0.0","Windows","10.0","https://app.prolific.com/","en-US,en;q=0.9","59cb95053306be000195be2e","686e379bc37a29ffa5cdc956","6877602644e5df177be7a53d","1","1","59cb95053306be000195be2e","1","1","2025-07-16T08:36:24.497Z","","","","","","","","","","","StressQ","","50","","","","","","","","","","","","","","","","","","","","","","","","","","","","",""
"2855","","<div style=""width:500px;"">
  <p>What best describes how you currently feel?</p>
  </div>","60","html-slider-response","53","1114459","0.0-5.0-4.8","43","1","2025-07-16 08:17:52","1f75c3e559b7213887762d5229550c2b","86.162.3.62","Mozilla/5.0 (Windows NT 10.0; Win64; x64) AppleWebKit/537.36 (KHTML, like Gecko) Chrome/138.0.0.0 Safari/537.36","WebKit","Chrome","138.0.0.0","Windows","10.0","https://app.prolific.com/","en-US,en;q=0.9","59cb95053306be000195be2e","686e379bc37a29ffa5cdc956","6877602644e5df177be7a53d","1","1","59cb95053306be000195be2e","1","1","2025-07-16T08:36:27.358Z","","","","","","","","","","","MotivationQ","","50","","","","","","","","","","","","","","","","","","","","","","","","","","","","",""
"","","","","ctl-task-cpt","54","1165508","0.0-5.0-0.9","43","1","2025-07-16 08:17:52","1f75c3e559b7213887762d5229550c2b","86.162.3.62","Mozilla/5.0 (Windows NT 10.0; Win64; x64) AppleWebKit/537.36 (KHTML, like Gecko) Chrome/138.0.0.0 Safari/537.36","WebKit","Chrome","138.0.0.0","Windows","10.0","https://app.prolific.com/","en-US,en;q=0.9","59cb95053306be000195be2e","686e379bc37a29ffa5cdc956","6877602644e5df177be7a53d","1","1","59cb95053306be000195be2e","1","1","2025-07-16T08:37:18.406Z","","","","","","","","","","","","","","win-only","3","g1:SW,g2:NE","0.4","10","0","1115958.7","1313.5","6320.6","48006.9","1","4","4","6","2","4","4","25","21","0.1893939393939394","941.8","3000","1830","[""up"",""right""]","{""num_key_presses"":12,""num_perfect"":6,""num_errors"":0,""num_randdir"":6,""num_randdir_good_moves"":3,""num_whilered"":0,""num_whileblue"":0,""num_blue"":0,""num_good_moves"":9}","[416.5714133126395,419.07142761775424,1.3,416.5714133126395,419.07142761775424,113.2,416.5714133126395,419.07142761775424,233.5,416.5714133126395,419.07142761775424,352.1,416.5714133126395,419.07142761775424,481.7,585.3214133126395,242.82142761775424,582.1,712.8214133126395,127.82142761775425,683.7,712.8214133126395,127.82142761775425,801.9,712.8214133126395,129.07142761775424,917,712.8214133126395,130.32142761775424,1022,712.8214133126395,130.32142761775424,1145,712.8214133126395,130.32142761775424,1254.6,712.8214133126395,130.32142761775424,1366.5,712.8214133126395,130.32142761775424,1475.1,712.8214133126395,130.32142761775424,1582.4,712.8214133126395,130.32142761775424,1690.8,712.8214133126395,130.32142761775424,1798.9,712.8214133126395,130.32142761775424,1910.4,712.8214133126395,130.32142761775424,2021.1,712.8214133126395,130.32142761775424,2137,712.8214133126395,130.32142761775424,2252.5,712.8214133126395,130.32142761775424,2365.4,712.8214133126395,130.32142761775424,2471.4,712.8214133126395,130.32142761775424,2581.1,712.8214133126395,130.32142761775424,2689.2,712.8214133126395,130.32142761775424,2798.8,712.8214133126395,130.32142761775424,2907.3,712.8214133126395,130.32142761775424,3012,712.8214133126395,130.32142761775424,3120.3,712.8214133126395,130.32142761775424,3223.9,712.8214133126395,130.32142761775424,3329.8,712.8214133126395,130.32142761775424,3437.3,712.8214133126395,130.32142761775424,3548.9,712.8214133126395,130.32142761775424,3663,712.8214133126395,130.32142761775424,3776.4,712.8214133126395,130.32142761775424,3885.5,712.8214133126395,130.32142761775424,3997.4,712.8214133126395,130.32142761775424,4117.8,712.8214133126395,130.32142761775424,4230.2,712.8214133126395,130.32142761775424,4344.8,712.8214133126395,130.32142761775424,4454.1,712.8214133126395,130.32142761775424,4564.6,712.8214133126395,130.32142761775424,4672.1,712.8214133126395,130.32142761775424,4792.4,712.8214133126395,130.32142761775424,4895.1]","[1434.5,1434.5,1000,0,434.5,""oops"",""right"",""up"",""good_move"",4889.2,3445.7,3009.6,1443.5,436.1,""smooth"",""right"",""right"",""good_move"",8499.9,3607.9,3157,4892.1,450.9,""oops"",""right"",""up"",""good_move"",11309.5,2807.2,2416.2,8502.3,391,""smooth"",""right"",""right"",""good_move"",13937.8,2626,2215.6,11311.8,410.4,""oops"",""right"",""down"",""bad_move"",16267.2,2327.3,1948.9,13939.9,378.4,""oops"",""up"",""down"",""bad_move"",18969.6,2690.8,2360.6,16278.9,330.1,""smooth"",""right"",""right"",""good_move"",22493,3520.8,3134.1,18972.2,386.7,""oops"",""up"",""left"",""bad_move"",27041.8,4546.7,1680,22495.1,2866.7,""oops"",""up"",""up"",""good_move"",32169.2,5116.4,2223.1,27052.9,2893.2,""smooth"",""up"",""up"",""good_move"",37252.2,5080.9,3360.2,32171.4,1720.6,""smooth"",""up"",""up"",""good_move"",41269.6,4015.6,1809.8,37254,2205.8,""smooth"",""right"",""right"",""good_move""]","",""
"3011","","<div style=""width:500px;"">
  <p>What determined the result of this run?</p>
  </div>","54","html-slider-response","55","1168521","0.0-5.0-1.9","43","1","2025-07-16 08:17:52","1f75c3e559b7213887762d5229550c2b","86.162.3.62","Mozilla/5.0 (Windows NT 10.0; Win64; x64) AppleWebKit/537.36 (KHTML, like Gecko) Chrome/138.0.0.0 Safari/537.36","WebKit","Chrome","138.0.0.0","Windows","10.0","https://app.prolific.com/","en-US,en;q=0.9","59cb95053306be000195be2e","686e379bc37a29ffa5cdc956","6877602644e5df177be7a53d","1","1","59cb95053306be000195be2e","1","1","2025-07-16T08:37:21.419Z","","","","","","","","","","","AttribQ","","50","","","","","","","","","","","","","","","","","","","","","","","","","","","","",""
"3029","","<div style=""width:500px;"">
  <p>How much control did you have over the ball?</p>
  </div>","54","html-slider-response","56","1171553","0.0-5.0-2.9","43","1","2025-07-16 08:17:52","1f75c3e559b7213887762d5229550c2b","86.162.3.62","Mozilla/5.0 (Windows NT 10.0; Win64; x64) AppleWebKit/537.36 (KHTML, like Gecko) Chrome/138.0.0.0 Safari/537.36","WebKit","Chrome","138.0.0.0","Windows","10.0","https://app.prolific.com/","en-US,en;q=0.9","59cb95053306be000195be2e","686e379bc37a29ffa5cdc956","6877602644e5df177be7a53d","1","1","59cb95053306be000195be2e","1","1","2025-07-16T08:37:24.451Z","","","","","","","","","","","ControlQ","","50","","","","","","","","","","","","","","","","","","","","","","","","","","","","",""
"3098","","<div style=""width:500px;"">
  <p>How would you describe your current emotional state?</p>
  </div>","49","html-slider-response","57","1174657","0.0-5.0-3.9","43","1","2025-07-16 08:17:52","1f75c3e559b7213887762d5229550c2b","86.162.3.62","Mozilla/5.0 (Windows NT 10.0; Win64; x64) AppleWebKit/537.36 (KHTML, like Gecko) Chrome/138.0.0.0 Safari/537.36","WebKit","Chrome","138.0.0.0","Windows","10.0","https://app.prolific.com/","en-US,en;q=0.9","59cb95053306be000195be2e","686e379bc37a29ffa5cdc956","6877602644e5df177be7a53d","1","1","59cb95053306be000195be2e","1","1","2025-07-16T08:37:27.555Z","","","","","","","","","","","StressQ","","50","","","","","","","","","","","","","","","","","","","","","","","","","","","","",""
"2723","","<div style=""width:500px;"">
  <p>What best describes how you currently feel?</p>
  </div>","56","html-slider-response","58","1177386","0.0-5.0-4.9","43","1","2025-07-16 08:17:52","1f75c3e559b7213887762d5229550c2b","86.162.3.62","Mozilla/5.0 (Windows NT 10.0; Win64; x64) AppleWebKit/537.36 (KHTML, like Gecko) Chrome/138.0.0.0 Safari/537.36","WebKit","Chrome","138.0.0.0","Windows","10.0","https://app.prolific.com/","en-US,en;q=0.9","59cb95053306be000195be2e","686e379bc37a29ffa5cdc956","6877602644e5df177be7a53d","1","1","59cb95053306be000195be2e","1","1","2025-07-16T08:37:30.284Z","","","","","","","","","","","MotivationQ","","50","","","","","","","","","","","","","","","","","","","","","","","","","","","","",""
"","","","","ctl-task-cpt","59","1256517","0.0-5.0-0.10","43","1","2025-07-16 08:17:52","1f75c3e559b7213887762d5229550c2b","86.162.3.62","Mozilla/5.0 (Windows NT 10.0; Win64; x64) AppleWebKit/537.36 (KHTML, like Gecko) Chrome/138.0.0.0 Safari/537.36","WebKit","Chrome","138.0.0.0","Windows","10.0","https://app.prolific.com/","en-US,en;q=0.9","59cb95053306be000195be2e","686e379bc37a29ffa5cdc956","6877602644e5df177be7a53d","1","1","59cb95053306be000195be2e","1","1","2025-07-16T08:38:49.416Z","","","","","","","","","","","","","","win-only","0","g1:NW,g2:SE","0.5","11","0","1178885.6","2408.8","7413.2","76108.2","1","4","4","6","2","4","3","28","25","0.21212121212121213","1116.9","3000","2100","[""down"",""right""]","{""num_key_presses"":14,""num_perfect"":7,""num_errors"":1,""num_randdir"":6,""num_randdir_good_moves"":3,""num_whilered"":0,""num_whileblue"":1,""num_blue"":2,""num_good_moves"":10}","[416.5714133126395,417.82142761775424,1.3,416.5714133126395,417.82142761775424,124,416.5714133126395,417.82142761775424,256.2,416.5714133126395,417.82142761775424,380.8,416.5714133126395,417.82142761775424,523.6,676.5714133126395,740.3214276177542,639.4,686.5714133126395,750.3214276177542,746.4,687.8214133126395,750.3214276177542,882.5,706.5714133126395,761.5714276177542,1019.7,714.0714133126395,764.0714276177542,1146.1,714.0714133126395,764.0714276177542,1255,714.0714133126395,764.0714276177542,1386.3,714.0714133126395,764.0714276177542,1506.3,714.0714133126395,764.0714276177542,1636.2,714.0714133126395,764.0714276177542,1765.1,714.0714133126395,764.0714276177542,1895.7,714.0714133126395,764.0714276177542,1995.7,714.0714133126395,764.0714276177542,2126.5,714.0714133126395,764.0714276177542,2256.3,714.0714133126395,764.0714276177542,2383.4,714.0714133126395,764.0714276177542,2507.3,714.0714133126395,764.0714276177542,2610.5,714.0714133126395,764.0714276177542,2738.6,714.0714133126395,764.0714276177542,2866,714.0714133126395,764.0714276177542,2997.1,714.0714133126395,764.0714276177542,3131.5,714.0714133126395,764.0714276177542,3261.5,714.0714133126395,764.0714276177542,3361.7,714.0714133126395,764.0714276177542,3484.6,714.0714133126395,764.0714276177542,3613.1,714.0714133126395,764.0714276177542,3714.4,714.0714133126395,764.0714276177542,3845,714.0714133126395,764.0714276177542,3974,714.0714133126395,764.0714276177542,4101.7,714.0714133126395,764.0714276177542,4239.4,714.0714133126395,764.0714276177542,4366.5,714.0714133126395,764.0714276177542,4497.8,714.0714133126395,764.0714276177542,4611.1,714.0714133126395,764.0714276177542,4711.5,714.0714133126395,764.0714276177542,4812.5,714.0714133126395,764.0714276177542,4917.5]","[2244.3,2244.2,1000,0.1,1244.2,""oops"",""right"",""right"",""good_move"",5467.9,3221.7,2318.2,2246.2,903.5,""smooth"",""right"",""right"",""good_move"",8285.6,2816.1,2342.5,5469.7,473.4,""oops"",""right"",""up"",""bad_move"",16268.7,7979.2,2577.1,8289.9,5402.1,""smooth"",""down"",""down"",""good_move"",19261.9,2991.3,2494.9,16270.6,496.4,""oops"",""down"",""left"",""bad_move"",27541.4,8277.6,2347.4,19263.8,5930.2,""oops"",""down"",""left"",""bad_move"",36020.8,8477.8,8043.5,27543,434.3,""while_blue"",""right"",""up"",""bad_move"",48294.6,12272,2470.4,45223.7,600.5,""smooth"",""right"",""right"",""good_move"",51738.1,3442.4,2862.6,48295.7,579.8,""smooth"",""right"",""right"",""good_move"",54988.6,3248,2735.1,51740.6,512.9,""smooth"",""right"",""right"",""good_move"",58893,3901.3,3370.5,54991.7,530.8,""oops"",""down"",""down"",""good_move"",61998.3,3103.6,2637,58894.8,466.5,""smooth"",""down"",""down"",""good_move"",65060,3060.2,2643.7,62000,416.3,""smooth"",""down"",""down"",""good_move"",68041.2,2979.8,2538.5,65061.5,441.2,""oops"",""down"",""down"",""good_move""]","",""
"2908","","<div style=""width:500px;"">
  <p>What determined the result of this run?</p>
  </div>","53","html-slider-response","60","1259428","0.0-5.0-1.10","43","1","2025-07-16 08:17:52","1f75c3e559b7213887762d5229550c2b","86.162.3.62","Mozilla/5.0 (Windows NT 10.0; Win64; x64) AppleWebKit/537.36 (KHTML, like Gecko) Chrome/138.0.0.0 Safari/537.36","WebKit","Chrome","138.0.0.0","Windows","10.0","https://app.prolific.com/","en-US,en;q=0.9","59cb95053306be000195be2e","686e379bc37a29ffa5cdc956","6877602644e5df177be7a53d","1","1","59cb95053306be000195be2e","1","1","2025-07-16T08:38:52.326Z","","","","","","","","","","","AttribQ","","50","","","","","","","","","","","","","","","","","","","","","","","","","","","","",""
"2914","","<div style=""width:500px;"">
  <p>How much control did you have over the ball?</p>
  </div>","52","html-slider-response","61","1262346","0.0-5.0-2.10","43","1","2025-07-16 08:17:52","1f75c3e559b7213887762d5229550c2b","86.162.3.62","Mozilla/5.0 (Windows NT 10.0; Win64; x64) AppleWebKit/537.36 (KHTML, like Gecko) Chrome/138.0.0.0 Safari/537.36","WebKit","Chrome","138.0.0.0","Windows","10.0","https://app.prolific.com/","en-US,en;q=0.9","59cb95053306be000195be2e","686e379bc37a29ffa5cdc956","6877602644e5df177be7a53d","1","1","59cb95053306be000195be2e","1","1","2025-07-16T08:38:55.244Z","","","","","","","","","","","ControlQ","","50","","","","","","","","","","","","","","","","","","","","","","","","","","","","",""
"3083","","<div style=""width:500px;"">
  <p>How would you describe your current emotional state?</p>
  </div>","46","html-slider-response","62","1265434","0.0-5.0-3.10","43","1","2025-07-16 08:17:52","1f75c3e559b7213887762d5229550c2b","86.162.3.62","Mozilla/5.0 (Windows NT 10.0; Win64; x64) AppleWebKit/537.36 (KHTML, like Gecko) Chrome/138.0.0.0 Safari/537.36","WebKit","Chrome","138.0.0.0","Windows","10.0","https://app.prolific.com/","en-US,en;q=0.9","59cb95053306be000195be2e","686e379bc37a29ffa5cdc956","6877602644e5df177be7a53d","1","1","59cb95053306be000195be2e","1","1","2025-07-16T08:38:58.332Z","","","","","","","","","","","StressQ","","50","","","","","","","","","","","","","","","","","","","","","","","","","","","","",""
"2247","","<div style=""width:500px;"">
  <p>What best describes how you currently feel?</p>
  </div>","56","html-slider-response","63","1267684","0.0-5.0-4.10","43","1","2025-07-16 08:17:52","1f75c3e559b7213887762d5229550c2b","86.162.3.62","Mozilla/5.0 (Windows NT 10.0; Win64; x64) AppleWebKit/537.36 (KHTML, like Gecko) Chrome/138.0.0.0 Safari/537.36","WebKit","Chrome","138.0.0.0","Windows","10.0","https://app.prolific.com/","en-US,en;q=0.9","59cb95053306be000195be2e","686e379bc37a29ffa5cdc956","6877602644e5df177be7a53d","1","1","59cb95053306be000195be2e","1","1","2025-07-16T08:39:00.582Z","","","","","","","","","","","MotivationQ","","50","","","","","","","","","","","","","","","","","","","","","","","","","","","","",""
"","","","","ctl-task-cpt","64","1334728","0.0-5.0-0.11","43","1","2025-07-16 08:17:52","1f75c3e559b7213887762d5229550c2b","86.162.3.62","Mozilla/5.0 (Windows NT 10.0; Win64; x64) AppleWebKit/537.36 (KHTML, like Gecko) Chrome/138.0.0.0 Safari/537.36","WebKit","Chrome","138.0.0.0","Windows","10.0","https://app.prolific.com/","en-US,en;q=0.9","59cb95053306be000195be2e","686e379bc37a29ffa5cdc956","6877602644e5df177be7a53d","1","1","59cb95053306be000195be2e","1","1","2025-07-16T08:40:07.626Z","","","","","","","","","","","","","","win-only","1","g1:NE,g2:SW","0.6","12","0","1269184.8","1198.2","6208.3","64000.9","1","4","8","6","2","8","8","36","28","0.2727272727272727","1307.6","3000","1160","[""down"",""left""]","{""num_key_presses"":12,""num_perfect"":8,""num_errors"":0,""num_randdir"":4,""num_randdir_good_moves"":1,""num_whilered"":0,""num_whileblue"":0,""num_blue"":2,""num_good_moves"":9}","[416.5714133126395,421.57142761775424,1.3,416.5714133126395,421.57142761775424,108.5,416.5714133126395,421.57142761775424,228.2,416.5714133126395,421.57142761775424,338.1,416.5714133126395,421.57142761775424,457.7,434.0714133126395,375.32142761775424,578.6,186.5714133126395,621.5714276177542,699.4,167.8214133126395,641.5714276177542,813.6,167.8214133126395,641.5714276177542,919.7,72.8214133126395,756.5714276177542,1028.4,66.5714133126395,769.0714276177542,1146.9,66.5714133126395,769.0714276177542,1264.4,66.5714133126395,769.0714276177542,1389,66.5714133126395,769.0714276177542,1505,66.5714133126395,769.0714276177542,1612.2,66.5714133126395,769.0714276177542,1712.3,66.5714133126395,769.0714276177542,1817,66.5714133126395,769.0714276177542,1917.1,66.5714133126395,769.0714276177542,2037.1,66.5714133126395,769.0714276177542,2138.8,66.5714133126395,769.0714276177542,2250.7,66.5714133126395,769.0714276177542,2367.2,66.5714133126395,769.0714276177542,2471.1,66.5714133126395,769.0714276177542,2581.3,66.5714133126395,769.0714276177542,2688.2,66.5714133126395,769.0714276177542,2806.2,66.5714133126395,769.0714276177542,2921.9,66.5714133126395,769.0714276177542,3034,66.5714133126395,769.0714276177542,3145.1,66.5714133126395,769.0714276177542,3248.9,66.5714133126395,769.0714276177542,3349.8,66.5714133126395,769.0714276177542,3461.6,66.5714133126395,769.0714276177542,3571.2,66.5714133126395,769.0714276177542,3690.4,66.5714133126395,769.0714276177542,3807.3,66.5714133126395,769.0714276177542,3922,66.5714133126395,769.0714276177542,4040.4,66.5714133126395,769.0714276177542,4146.2,66.5714133126395,769.0714276177542,4257.2,66.5714133126395,769.0714276177542,4374.4,66.5714133126395,769.0714276177542,4489.8,66.5714133126395,769.0714276177542,4610.7,66.5714133126395,769.0714276177542,4728.5,66.5714133126395,769.0714276177542,4842.7,66.5714133126395,769.0714276177542,4951.4]","[1348.8,1349,1000,0,349,""smooth"",""down"",""down"",""good_move"",7910.3,6559.6,2655.9,4824.8,429.6,""smooth"",""down"",""down"",""good_move"",14400,6488.6,2286.7,11549.6,563.7,""smooth"",""down"",""down"",""good_move"",17799.8,3398.6,2983.4,14401.2,415.2,""oops"",""left"",""up"",""bad_move"",23801.8,6000,2954.9,17801.8,3045.1,""smooth"",""left"",""left"",""good_move"",30050.9,6247.9,2523.9,23803,3724,""smooth"",""left"",""left"",""good_move"",36719.1,6661.7,2481.4,30057.4,4180.3,""oops"",""left"",""up"",""bad_move"",41157.3,4436.9,1770,36720.4,2666.9,""oops"",""down"",""right"",""bad_move"",44806.4,3646,2508.9,41160.4,1137.1,""smooth"",""down"",""down"",""good_move"",49608.8,4799.3,1877.3,44809.6,2922,""oops"",""down"",""left"",""good_move"",54379.6,4769,2439.8,49610.6,2329.2,""smooth"",""down"",""down"",""good_move"",57182.3,2801,2318.2,54381.4,482.8,""smooth"",""left"",""left"",""good_move""]","",""
"3922","","<div style=""width:500px;"">
  <p>What determined the result of this run?</p>
  </div>","52","html-slider-response","65","1338654","0.0-5.0-1.11","43","1","2025-07-16 08:17:52","1f75c3e559b7213887762d5229550c2b","86.162.3.62","Mozilla/5.0 (Windows NT 10.0; Win64; x64) AppleWebKit/537.36 (KHTML, like Gecko) Chrome/138.0.0.0 Safari/537.36","WebKit","Chrome","138.0.0.0","Windows","10.0","https://app.prolific.com/","en-US,en;q=0.9","59cb95053306be000195be2e","686e379bc37a29ffa5cdc956","6877602644e5df177be7a53d","1","1","59cb95053306be000195be2e","1","1","2025-07-16T08:40:11.553Z","","","","","","","","","","","AttribQ","","50","","","","","","","","","","","","","","","","","","","","","","","","","","","","",""
"4895","","<div style=""width:500px;"">
  <p>How much control did you have over the ball?</p>
  </div>","50","html-slider-response","66","1343557","0.0-5.0-2.11","43","1","2025-07-16 08:17:52","1f75c3e559b7213887762d5229550c2b","86.162.3.62","Mozilla/5.0 (Windows NT 10.0; Win64; x64) AppleWebKit/537.36 (KHTML, like Gecko) Chrome/138.0.0.0 Safari/537.36","WebKit","Chrome","138.0.0.0","Windows","10.0","https://app.prolific.com/","en-US,en;q=0.9","59cb95053306be000195be2e","686e379bc37a29ffa5cdc956","6877602644e5df177be7a53d","1","1","59cb95053306be000195be2e","1","1","2025-07-16T08:40:16.455Z","","","","","","","","","","","ControlQ","","50","","","","","","","","","","","","","","","","","","","","","","","","","","","","",""
"2587","","<div style=""width:500px;"">
  <p>How would you describe your current emotional state?</p>
  </div>","37","html-slider-response","67","1346148","0.0-5.0-3.11","43","1","2025-07-16 08:17:52","1f75c3e559b7213887762d5229550c2b","86.162.3.62","Mozilla/5.0 (Windows NT 10.0; Win64; x64) AppleWebKit/537.36 (KHTML, like Gecko) Chrome/138.0.0.0 Safari/537.36","WebKit","Chrome","138.0.0.0","Windows","10.0","https://app.prolific.com/","en-US,en;q=0.9","59cb95053306be000195be2e","686e379bc37a29ffa5cdc956","6877602644e5df177be7a53d","1","1","59cb95053306be000195be2e","1","1","2025-07-16T08:40:19.047Z","","","","","","","","","","","StressQ","","50","","","","","","","","","","","","","","","","","","","","","","","","","","","","",""
"2820","","<div style=""width:500px;"">
  <p>What best describes how you currently feel?</p>
  </div>","57","html-slider-response","68","1348973","0.0-5.0-4.11","43","1","2025-07-16 08:17:52","1f75c3e559b7213887762d5229550c2b","86.162.3.62","Mozilla/5.0 (Windows NT 10.0; Win64; x64) AppleWebKit/537.36 (KHTML, like Gecko) Chrome/138.0.0.0 Safari/537.36","WebKit","Chrome","138.0.0.0","Windows","10.0","https://app.prolific.com/","en-US,en;q=0.9","59cb95053306be000195be2e","686e379bc37a29ffa5cdc956","6877602644e5df177be7a53d","1","1","59cb95053306be000195be2e","1","1","2025-07-16T08:40:21.872Z","","","","","","","","","","","MotivationQ","","50","","","","","","","","","","","","","","","","","","","","","","","","","","","","",""
"","","","","ctl-task-cpt","69","1416051","0.0-5.0-0.12","43","1","2025-07-16 08:17:52","1f75c3e559b7213887762d5229550c2b","86.162.3.62","Mozilla/5.0 (Windows NT 10.0; Win64; x64) AppleWebKit/537.36 (KHTML, like Gecko) Chrome/138.0.0.0 Safari/537.36","WebKit","Chrome","138.0.0.0","Windows","10.0","https://app.prolific.com/","en-US,en;q=0.9","59cb95053306be000195be2e","686e379bc37a29ffa5cdc956","6877602644e5df177be7a53d","1","1","59cb95053306be000195be2e","1","1","2025-07-16T08:41:28.950Z","","","","","","","","","","","","","","win-only","0","g1:NW,g2:SE","0.7","13","0","1350471.3","1331.7","6360.7","64045.4","1","4","4","6","2","4","3","39","36","0.29545454545454547","1318.7","3000","1825","[""down"",""right""]","{""num_key_presses"":14,""num_perfect"":8,""num_errors"":1,""num_randdir"":5,""num_randdir_good_moves"":2,""num_whilered"":0,""num_whileblue"":1,""num_blue"":1,""num_good_moves"":10}","[416.5714133126395,416.57142761775424,1.5,416.5714133126395,416.57142761775424,102.9,416.5714133126395,416.57142761775424,214,416.5714133126395,416.57142761775424,325.9,416.5714133126395,416.57142761775424,438.6,416.5714133126395,416.57142761775424,556.9,416.5714133126395,416.57142761775424,660.3,576.5714133126395,600.3214276177542,788,681.5714133126395,762.8214276177542,898.4,681.5714133126395,762.8214276177542,1019.7,681.5714133126395,762.8214276177542,1144.2,712.8214133126395,767.8214276177542,1258.2,715.3214133126395,767.8214276177542,1378.9,715.3214133126395,767.8214276177542,1491.3,715.3214133126395,767.8214276177542,1598.5,715.3214133126395,767.8214276177542,1722.5,715.3214133126395,767.8214276177542,1823.8,715.3214133126395,767.8214276177542,1924,715.3214133126395,767.8214276177542,2032,715.3214133126395,767.8214276177542,2134.6,715.3214133126395,767.8214276177542,2244.7,715.3214133126395,767.8214276177542,2349.1,715.3214133126395,767.8214276177542,2451,715.3214133126395,767.8214276177542,2564.6,715.3214133126395,767.8214276177542,2680.4,715.3214133126395,767.8214276177542,2789.8,715.3214133126395,767.8214276177542,2895.1,715.3214133126395,767.8214276177542,2996.9,715.3214133126395,767.8214276177542,3110.7,715.3214133126395,767.8214276177542,3231.6,715.3214133126395,767.8214276177542,3334.7,715.3214133126395,767.8214276177542,3447.5,715.3214133126395,767.8214276177542,3548.8,715.3214133126395,767.8214276177542,3652.6,715.3214133126395,767.8214276177542,3766.9,715.3214133126395,767.8214276177542,3880.8,715.3214133126395,767.8214276177542,3987.6,715.3214133126395,767.8214276177542,4101.1,715.3214133126395,767.8214276177542,4205.3,715.3214133126395,767.8214276177542,4308.1,715.3214133126395,767.8214276177542,4413.8,715.3214133126395,767.8214276177542,4517.2,715.3214133126395,767.8214276177542,4619.6,715.3214133126395,767.8214276177542,4730.2,715.3214133126395,767.8214276177542,4833.8,715.3214133126395,767.8214276177542,4935.9]","[1377.9,1377.9,1000,0,377.9,""smooth"",""right"",""right"",""good_move"",4589.5,3210,2776.3,1379.5,433.7,""smooth"",""right"",""right"",""good_move"",7583.5,2992.3,2563.4,4591.4,428.8,""smooth"",""right"",""right"",""good_move"",10271.5,2686.4,2253,7585.2,433.3,""oops"",""down"",""up"",""bad_move"",15753,5479.4,2071.4,10273.7,3408,""oops"",""right"",""up"",""bad_move"",22221.2,6466.9,2488.2,15754.5,3978.6,""smooth"",""left"",""left"",""bad_move"",28776.9,6554.2,6092.2,22222.7,462,""while_blue"",""down"",""down"",""good_move"",32379.5,3599.9,3124.7,28779.6,475.2,""smooth"",""down"",""down"",""good_move"",35762.2,3381.4,1926.2,32380.8,1455.2,""smooth"",""down"",""down"",""good_move"",38725.5,2961.3,2435.4,35764.2,525.9,""oops"",""down"",""up"",""bad_move"",47499.5,8770.1,3163.6,38729.4,5606.5,""smooth"",""down"",""down"",""good_move"",50360.8,2846,2441.8,47514.8,404.2,""smooth"",""right"",""right"",""good_move"",53663.3,3292.9,2958.5,50370.5,334.3,""oops"",""down"",""down"",""good_move"",57025.1,3357.7,2615,53667.5,742.6,""oops"",""down"",""down"",""good_move""]","",""
"3497","","<div style=""width:500px;"">
  <p>What determined the result of this run?</p>
  </div>","65","html-slider-response","70","1419550","0.0-5.0-1.12","43","1","2025-07-16 08:17:52","1f75c3e559b7213887762d5229550c2b","86.162.3.62","Mozilla/5.0 (Windows NT 10.0; Win64; x64) AppleWebKit/537.36 (KHTML, like Gecko) Chrome/138.0.0.0 Safari/537.36","WebKit","Chrome","138.0.0.0","Windows","10.0","https://app.prolific.com/","en-US,en;q=0.9","59cb95053306be000195be2e","686e379bc37a29ffa5cdc956","6877602644e5df177be7a53d","1","1","59cb95053306be000195be2e","1","1","2025-07-16T08:41:32.449Z","","","","","","","","","","","AttribQ","","50","","","","","","","","","","","","","","","","","","","","","","","","","","","","",""
"2293","","<div style=""width:500px;"">
  <p>How much control did you have over the ball?</p>
  </div>","58","html-slider-response","71","1421847","0.0-5.0-2.12","43","1","2025-07-16 08:17:52","1f75c3e559b7213887762d5229550c2b","86.162.3.62","Mozilla/5.0 (Windows NT 10.0; Win64; x64) AppleWebKit/537.36 (KHTML, like Gecko) Chrome/138.0.0.0 Safari/537.36","WebKit","Chrome","138.0.0.0","Windows","10.0","https://app.prolific.com/","en-US,en;q=0.9","59cb95053306be000195be2e","686e379bc37a29ffa5cdc956","6877602644e5df177be7a53d","1","1","59cb95053306be000195be2e","1","1","2025-07-16T08:41:34.745Z","","","","","","","","","","","ControlQ","","50","","","","","","","","","","","","","","","","","","","","","","","","","","","","",""
"4459","","<div style=""width:500px;"">
  <p>How would you describe your current emotional state?</p>
  </div>","27","html-slider-response","72","1426310","0.0-5.0-3.12","43","1","2025-07-16 08:17:52","1f75c3e559b7213887762d5229550c2b","86.162.3.62","Mozilla/5.0 (Windows NT 10.0; Win64; x64) AppleWebKit/537.36 (KHTML, like Gecko) Chrome/138.0.0.0 Safari/537.36","WebKit","Chrome","138.0.0.0","Windows","10.0","https://app.prolific.com/","en-US,en;q=0.9","59cb95053306be000195be2e","686e379bc37a29ffa5cdc956","6877602644e5df177be7a53d","1","1","59cb95053306be000195be2e","1","1","2025-07-16T08:41:39.209Z","","","","","","","","","","","StressQ","","50","","","","","","","","","","","","","","","","","","","","","","","","","","","","",""
"3559","","<div style=""width:500px;"">
  <p>What best describes how you currently feel?</p>
  </div>","55","html-slider-response","73","1429874","0.0-5.0-4.12","43","1","2025-07-16 08:17:52","1f75c3e559b7213887762d5229550c2b","86.162.3.62","Mozilla/5.0 (Windows NT 10.0; Win64; x64) AppleWebKit/537.36 (KHTML, like Gecko) Chrome/138.0.0.0 Safari/537.36","WebKit","Chrome","138.0.0.0","Windows","10.0","https://app.prolific.com/","en-US,en;q=0.9","59cb95053306be000195be2e","686e379bc37a29ffa5cdc956","6877602644e5df177be7a53d","1","1","59cb95053306be000195be2e","1","1","2025-07-16T08:41:42.773Z","","","","","","","","","","","MotivationQ","","50","","","","","","","","","","","","","","","","","","","","","","","","","","","","",""
