"rt","response_timestamp","stimulus","response","trial_type","trial_index","time_elapsed","internal_node_id","run_id","condition","recorded_at","source_code_version","ip","user_agent","device","browser","browser_version","platform","platform_version","referer","accept_language","PROLIFIC_PID","STUDY_ID","SESSION_ID","WEEK","BATCH","prolific_id","week","batch","realtime","success","responses","item_order","radio_event_ids","radio_event_times","key_event_times","mouse_event_times","straightlining","zigzagging","honeypot","eventType","view_history","slider_start","which_type","canvas_config","goals_layout","control_level","trial_number","tutorial_trial_number","trial_start_time","phase1_start_time","phase2_start_time","phase3_start_time","goal_1_value","goal_1_distance","goal_2_value","goal_2_distance","goal_selected","outcome","outcome_total","participant_final_score","participant_initial_score","participant_final_score_prop","goal_choice_rt","allocated_time","allocated_time_remaining","goal_direction","counts","mouse_movements","key_presses","question_order","question_id"
"9538","1752654657848","<p style='font-size:40px;line-height:1.25'><strong>Welcome to the experiment!</strong></p><p style='font-size:1.1em;line-height:1.25'>Thank you for participanting in our experiment again! You will be asked to play the Dysfunctional Ball Game again. We will briefly recap the rules before we start.</p><p style='font-size:1.1em;line-height:1.25'>Press <strong>Next</strong> to continue.</p>","0","custom-html-button-response","0","9542","0.0-0.0","66","1","2025-07-16 08:30:45","1f75c3e559b7213887762d5229550c2b","216.120.189.118","Mozilla/5.0 (Windows NT 10.0; Win64; x64) AppleWebKit/537.36 (KHTML, like Gecko) Chrome/138.0.0.0 Safari/537.36","WebKit","Chrome","138.0.0.0","Windows","10.0","https://app.prolific.com/","en-US,en;q=0.9","6786c32f329b1d694103f225","68764874ac79eee8c1d4cb03","687762f0300fae7356a5e444","2","0","6786c32f329b1d694103f225","2","0","2025-07-16T08:30:57.850Z","","","","","","","","","","","","","","","","","","","","","","","","","","","","","","","","","","","","","","","","","",""
"8133","","","","fullscreen","1","18710","0.0-1.0","66","1","2025-07-16 08:30:45","1f75c3e559b7213887762d5229550c2b","216.120.189.118","Mozilla/5.0 (Windows NT 10.0; Win64; x64) AppleWebKit/537.36 (KHTML, like Gecko) Chrome/138.0.0.0 Safari/537.36","WebKit","Chrome","138.0.0.0","Windows","10.0","https://app.prolific.com/","en-US,en;q=0.9","6786c32f329b1d694103f225","68764874ac79eee8c1d4cb03","687762f0300fae7356a5e444","2","0","6786c32f329b1d694103f225","2","0","","true","","","","","","","","","","","","","","","","","","","","","","","","","","","","","","","","","","","","","","","","",""
"4881","1752654671901","<p style='font-size:1.1em;line-height:1.25'>In the following, we will ask you a few questions relating to your feelings in the last 24 hours.<br></p><p style='font-size:1.1em;line-height:1.25'>Press the <strong>Next</strong> button to continue.</p>","0","custom-html-button-response","2","23594","0.0-2.0-0.0","66","1","2025-07-16 08:30:45","1f75c3e559b7213887762d5229550c2b","216.120.189.118","Mozilla/5.0 (Windows NT 10.0; Win64; x64) AppleWebKit/537.36 (KHTML, like Gecko) Chrome/138.0.0.0 Safari/537.36","WebKit","Chrome","138.0.0.0","Windows","10.0","https://app.prolific.com/","en-US,en;q=0.9","6786c32f329b1d694103f225","68764874ac79eee8c1d4cb03","687762f0300fae7356a5e444","2","0","6786c32f329b1d694103f225","2","0","2025-07-16T08:31:11.902Z","","","","","","","","","","","","","","","","","","","","","","","","","","","","","","","","","","","","","","","","","",""
"86803.39999997616","","","","survey-template","3","110413","0.0-2.0-1.0","66","1","2025-07-16 08:30:45","1f75c3e559b7213887762d5229550c2b","216.120.189.118","Mozilla/5.0 (Windows NT 10.0; Win64; x64) AppleWebKit/537.36 (KHTML, like Gecko) Chrome/138.0.0.0 Safari/537.36","WebKit","Chrome","138.0.0.0","Windows","10.0","https://app.prolific.com/","en-US,en;q=0.9","6786c32f329b1d694103f225","68764874ac79eee8c1d4cb03","687762f0300fae7356a5e444","2","0","6786c32f329b1d694103f225","2","0","2025-07-16T08:32:38.722Z","","{""Q01"":""0"",""Q02"":""0"",""Q03"":""0"",""Q04"":""0"",""Q05"":""3"",""Q06"":""1"",""Q07"":""1"",""Q08"":""1"",""Q09"":""1"",""Q10"":""0"",""Q11"":""1"",""Q12"":""1"",""Q13"":""5"",""Q14"":""3"",""Q15"":""3"",""Q16"":""0"",""Q17"":""1"",""Q18"":""0"",""Q19"":""1"",""Q20"":""0"",""Q21"":""1"",""Q22"":""0""}","[0,1,2,3,4,5,6,7,8,9,10,11,12,13,14,15,16,17,18,19,20,21]","[""Q01"",""Q02"",""Q03"",""Q04"",""Q05"",""Q06"",""Q07"",""Q08"",""Q09"",""Q10"",""Q11"",""Q12"",""Q13"",""Q14"",""Q15"",""Q16"",""Q17"",""Q18"",""Q19"",""Q20"",""Q21"",""Q22""]","[3977.5,5534.399999976158,6820,8555,10569.5,15831.899999976158,18970,22727.899999976158,25634,28070,32187.399999976158,36225.699999928474,41349.799999952316,45772.89999997616,47760.799999952316,52680.89999997616,55127.199999928474,56821.299999952316,62022.39999997616,67503.69999992847,73694.79999995232,77544.29999995232]","[]","[0.2999999523162842,3977.5,5534.399999976158,6820,8555,10569.5,15831.899999976158,18970,22727.899999976158,25634,28070,29742.199999928474,32187.399999976158,36225.699999928474,41349.799999952316,45772.89999997616,47760.799999952316,52680.89999997616,55127.199999928474,56821.299999952316,62022.39999997616,67503.69999992847,73694.79999995232,77544.29999995232,86785.09999990463]","0.4090909090909091","0.38095238095238093","0","drsp","","","","","","","","","","","","","","","","","","","","","","","","","","","","","","",""
"17176.200000047684","","","","survey-template","4","127596","0.0-2.0-2.0","66","1","2025-07-16 08:30:45","1f75c3e559b7213887762d5229550c2b","216.120.189.118","Mozilla/5.0 (Windows NT 10.0; Win64; x64) AppleWebKit/537.36 (KHTML, like Gecko) Chrome/138.0.0.0 Safari/537.36","WebKit","Chrome","138.0.0.0","Windows","10.0","https://app.prolific.com/","en-US,en;q=0.9","6786c32f329b1d694103f225","68764874ac79eee8c1d4cb03","687762f0300fae7356a5e444","2","0","6786c32f329b1d694103f225","2","0","2025-07-16T08:32:55.904Z","","{""Q01"":""0"",""Q02"":""3"",""Q03"":""2""}","[0,1,2]","[""Q01"",""Q02"",""Q03""]","[7184.799999952316,11644.399999976158,15949.399999976158]","[]","[7184.799999952316,11644.399999976158,15949.399999976158,17173.5]","0.6666666666666666","0","0","stress","","","","","","","","","","","","","","","","","","","","","","","","","","","","","","",""
"35615","","","","instructions","5","163214","0.0-3.0-0.0","66","1","2025-07-16 08:30:45","1f75c3e559b7213887762d5229550c2b","216.120.189.118","Mozilla/5.0 (Windows NT 10.0; Win64; x64) AppleWebKit/537.36 (KHTML, like Gecko) Chrome/138.0.0.0 Safari/537.36","WebKit","Chrome","138.0.0.0","Windows","10.0","https://app.prolific.com/","en-US,en;q=0.9","6786c32f329b1d694103f225","68764874ac79eee8c1d4cb03","687762f0300fae7356a5e444","2","0","6786c32f329b1d694103f225","2","0","","","","","","","","","","","","","[{""page_index"":0,""viewing_time"":35615}]","","","","","","","","","","","","","","","","","","","","","","","","","","","","","",""
"20542","","<p>Before you start with this game please answer the following three questions yourself. </p>
  <p>Through this game, we measure several aspects of your cognitive performance, such as reaction times, multi-tasking capabilities </p>
  <p>and the ability to assess the situation you are in.</p>
  <p></p>
  <p><b>How good do you usually are in such tasks?</b></p>","79","html-slider-response","6","183760","0.0-4.0-0.0","66","1","2025-07-16 08:30:45","1f75c3e559b7213887762d5229550c2b","216.120.189.118","Mozilla/5.0 (Windows NT 10.0; Win64; x64) AppleWebKit/537.36 (KHTML, like Gecko) Chrome/138.0.0.0 Safari/537.36","WebKit","Chrome","138.0.0.0","Windows","10.0","https://app.prolific.com/","en-US,en;q=0.9","6786c32f329b1d694103f225","68764874ac79eee8c1d4cb03","687762f0300fae7356a5e444","2","0","6786c32f329b1d694103f225","2","0","2025-07-16T08:33:52.068Z","","","","","","","","","","","PreSkillQ","","50","","","","","","","","","","","","","","","","","","","","","","","","","","","","",""
"6610","","<div style=""width:500px;"">
  <p>How well do you think you will perform in this task compared to other participants?</p>
  </div>","90","html-slider-response","7","190373","0.0-4.0-1.0","66","1","2025-07-16 08:30:45","1f75c3e559b7213887762d5229550c2b","216.120.189.118","Mozilla/5.0 (Windows NT 10.0; Win64; x64) AppleWebKit/537.36 (KHTML, like Gecko) Chrome/138.0.0.0 Safari/537.36","WebKit","Chrome","138.0.0.0","Windows","10.0","https://app.prolific.com/","en-US,en;q=0.9","6786c32f329b1d694103f225","68764874ac79eee8c1d4cb03","687762f0300fae7356a5e444","2","0","6786c32f329b1d694103f225","2","0","2025-07-16T08:33:58.681Z","","","","","","","","","","","PrePerfQ","","50","","","","","","","","","","","","","","","","","","","","","","","","","","","","",""
"5209","","<div style=""width:500px;"">
  <p>What best describes how you currently feel?</p>
  </div>","91","html-slider-response","8","195586","0.0-4.0-2.0","66","1","2025-07-16 08:30:45","1f75c3e559b7213887762d5229550c2b","216.120.189.118","Mozilla/5.0 (Windows NT 10.0; Win64; x64) AppleWebKit/537.36 (KHTML, like Gecko) Chrome/138.0.0.0 Safari/537.36","WebKit","Chrome","138.0.0.0","Windows","10.0","https://app.prolific.com/","en-US,en;q=0.9","6786c32f329b1d694103f225","68764874ac79eee8c1d4cb03","687762f0300fae7356a5e444","2","0","6786c32f329b1d694103f225","2","0","2025-07-16T08:34:03.894Z","","","","","","","","","","","PreMotivationQ","","50","","","","","","","","","","","","","","","","","","","","","","","","","","","","",""
"","","","","ctl-task-cpt","9","226525","0.0-5.0-0.0","66","1","2025-07-16 08:30:45","1f75c3e559b7213887762d5229550c2b","216.120.189.118","Mozilla/5.0 (Windows NT 10.0; Win64; x64) AppleWebKit/537.36 (KHTML, like Gecko) Chrome/138.0.0.0 Safari/537.36","WebKit","Chrome","138.0.0.0","Windows","10.0","https://app.prolific.com/","en-US,en;q=0.9","6786c32f329b1d694103f225","68764874ac79eee8c1d4cb03","687762f0300fae7356a5e444","2","0","6786c32f329b1d694103f225","2","0","2025-07-16T08:34:34.834Z","","","","","","","","","","","","","","win-only","2","g1:SE,g2:NW","1","1","0","200107.3","6723.3","11728.3","27911.6","1","4","4","6","1","1","0","0","0","0","5004.9","3000","1370","[""down"",""right""]","{""num_key_presses"":6,""num_perfect"":5,""num_errors"":1,""num_randdir"":0,""num_randdir_good_moves"":0,""num_whilered"":0,""num_whileblue"":1,""num_blue"":1,""num_good_moves"":5}","[294.22232142857143,300.12857142857143,2.1,294.22232142857143,300.12857142857143,103.4,294.22232142857143,300.12857142857143,212.2,294.22232142857143,300.12857142857143,313.9,294.22232142857143,300.12857142857143,418.3,294.22232142857143,300.12857142857143,518.5,294.22232142857143,300.12857142857143,626.5,294.22232142857143,300.12857142857143,726.7,294.22232142857143,300.12857142857143,827.9,294.22232142857143,300.12857142857143,929.8,294.22232142857143,300.12857142857143,1033.5,294.22232142857143,300.12857142857143,1133.6,294.22232142857143,300.12857142857143,1238.1,294.22232142857143,300.12857142857143,1345.3,294.22232142857143,300.12857142857143,1446.1,294.22232142857143,300.12857142857143,1546.5,294.22232142857143,300.12857142857143,1647.9,294.22232142857143,300.12857142857143,1754,294.22232142857143,300.12857142857143,1859.3,294.22232142857143,300.12857142857143,1962.3,294.22232142857143,300.12857142857143,2064.8,294.22232142857143,300.12857142857143,2168.1,294.22232142857143,300.12857142857143,2274.7,294.22232142857143,300.12857142857143,2380,294.22232142857143,300.12857142857143,2483.3,294.22232142857143,300.12857142857143,2583.5,294.22232142857143,300.12857142857143,2688.5,294.22232142857143,300.12857142857143,2796.4,294.22232142857143,300.12857142857143,2897.9,294.22232142857143,300.12857142857143,2998.6,294.22232142857143,300.12857142857143,3099.1,294.22232142857143,300.12857142857143,3199.3,294.22232142857143,300.12857142857143,3303.4,294.22232142857143,300.12857142857143,3408.2,294.22232142857143,300.12857142857143,3512.7,294.22232142857143,300.12857142857143,3613.1,294.22232142857143,300.12857142857143,3718.9,294.22232142857143,300.12857142857143,3827.2,294.22232142857143,300.12857142857143,3928.4,294.22232142857143,300.12857142857143,4037.3,294.22232142857143,300.12857142857143,4141.9,294.22232142857143,300.12857142857143,4246.6,294.22232142857143,300.12857142857143,4346.9,294.22232142857143,300.12857142857143,4447.9,294.22232142857143,300.12857142857143,4548.8,294.22232142857143,300.12857142857143,4653.5,294.22232142857143,300.12857142857143,4753.9,294.22232142857143,300.12857142857143,4861.8,294.22232142857143,300.12857142857143,4962.6]","[1474.9,1474.9,1000,0,475,""smooth"",""left"",""left"",""bad_move"",4287.9,2810.3,2418.2,1477.7,392,""smooth"",""right"",""right"",""good_move"",7427.1,3136.8,2759.3,4290.3,377.5,""smooth"",""right"",""right"",""good_move"",9944,2515.7,2156.8,7428.4,358.8,""smooth"",""right"",""right"",""good_move"",13092.7,3147.1,2793.6,9945.6,353.5,""smooth"",""down"",""down"",""good_move"",15832.3,2738.2,2346.4,13094.1,392.2,""while_blue"",""down"",""down"",""good_move""]","",""
"5602","","<div style=""width:500px;"">
  <p>What determined the result of this run?</p>
  </div>","89","html-slider-response","10","232140","0.0-5.0-1.0","66","1","2025-07-16 08:30:45","1f75c3e559b7213887762d5229550c2b","216.120.189.118","Mozilla/5.0 (Windows NT 10.0; Win64; x64) AppleWebKit/537.36 (KHTML, like Gecko) Chrome/138.0.0.0 Safari/537.36","WebKit","Chrome","138.0.0.0","Windows","10.0","https://app.prolific.com/","en-US,en;q=0.9","6786c32f329b1d694103f225","68764874ac79eee8c1d4cb03","687762f0300fae7356a5e444","2","0","6786c32f329b1d694103f225","2","0","2025-07-16T08:34:40.449Z","","","","","","","","","","","AttribQ","","50","","","","","","","","","","","","","","","","","","","","","","","","","","","","",""
"6581","","<div style=""width:500px;"">
  <p>How much control did you have over the ball?</p>
  </div>","100","html-slider-response","11","238726","0.0-5.0-2.0","66","1","2025-07-16 08:30:45","1f75c3e559b7213887762d5229550c2b","216.120.189.118","Mozilla/5.0 (Windows NT 10.0; Win64; x64) AppleWebKit/537.36 (KHTML, like Gecko) Chrome/138.0.0.0 Safari/537.36","WebKit","Chrome","138.0.0.0","Windows","10.0","https://app.prolific.com/","en-US,en;q=0.9","6786c32f329b1d694103f225","68764874ac79eee8c1d4cb03","687762f0300fae7356a5e444","2","0","6786c32f329b1d694103f225","2","0","2025-07-16T08:34:47.034Z","","","","","","","","","","","ControlQ","","50","","","","","","","","","","","","","","","","","","","","","","","","","","","","",""
"6140","","<div style=""width:500px;"">
  <p>How would you describe your current emotional state?</p>
  </div>","0","html-slider-response","12","244869","0.0-5.0-3.0","66","1","2025-07-16 08:30:45","1f75c3e559b7213887762d5229550c2b","216.120.189.118","Mozilla/5.0 (Windows NT 10.0; Win64; x64) AppleWebKit/537.36 (KHTML, like Gecko) Chrome/138.0.0.0 Safari/537.36","WebKit","Chrome","138.0.0.0","Windows","10.0","https://app.prolific.com/","en-US,en;q=0.9","6786c32f329b1d694103f225","68764874ac79eee8c1d4cb03","687762f0300fae7356a5e444","2","0","6786c32f329b1d694103f225","2","0","2025-07-16T08:34:53.177Z","","","","","","","","","","","StressQ","","50","","","","","","","","","","","","","","","","","","","","","","","","","","","","",""
"5300","","<div style=""width:500px;"">
  <p>What best describes how you currently feel?</p>
  </div>","100","html-slider-response","13","250172","0.0-5.0-4.0","66","1","2025-07-16 08:30:45","1f75c3e559b7213887762d5229550c2b","216.120.189.118","Mozilla/5.0 (Windows NT 10.0; Win64; x64) AppleWebKit/537.36 (KHTML, like Gecko) Chrome/138.0.0.0 Safari/537.36","WebKit","Chrome","138.0.0.0","Windows","10.0","https://app.prolific.com/","en-US,en;q=0.9","6786c32f329b1d694103f225","68764874ac79eee8c1d4cb03","687762f0300fae7356a5e444","2","0","6786c32f329b1d694103f225","2","0","2025-07-16T08:34:58.481Z","","","","","","","","","","","MotivationQ","","50","","","","","","","","","","","","","","","","","","","","","","","","","","","","",""
"","","","","ctl-task-cpt","14","275145","0.0-5.0-0.1","66","1","2025-07-16 08:30:45","1f75c3e559b7213887762d5229550c2b","216.120.189.118","Mozilla/5.0 (Windows NT 10.0; Win64; x64) AppleWebKit/537.36 (KHTML, like Gecko) Chrome/138.0.0.0 Safari/537.36","WebKit","Chrome","138.0.0.0","Windows","10.0","https://app.prolific.com/","en-US,en;q=0.9","6786c32f329b1d694103f225","68764874ac79eee8c1d4cb03","687762f0300fae7356a5e444","2","0","6786c32f329b1d694103f225","2","0","2025-07-16T08:35:23.453Z","","","","","","","","","","","","","","win-only","2","g1:SE,g2:NW","0.9","2","0","254690","2276.6","7286.4","21952.8","1","4","8","6","1","1","1","1","0","0.007575757575757576","5009.7","3000","1850","[""down"",""right""]","{""num_key_presses"":4,""num_perfect"":4,""num_errors"":0,""num_randdir"":0,""num_randdir_good_moves"":0,""num_whilered"":0,""num_whileblue"":0,""num_blue"":1,""num_good_moves"":4}","[292.22232142857143,298.12857142857143,0.9,292.22232142857143,298.12857142857143,104.7,292.22232142857143,298.12857142857143,204.8,292.22232142857143,298.12857142857143,308.2,292.22232142857143,298.12857142857143,410.2,292.22232142857143,298.12857142857143,522.6,292.22232142857143,298.12857142857143,625.9,292.22232142857143,298.12857142857143,727.3,292.22232142857143,298.12857142857143,835.1,292.22232142857143,298.12857142857143,940.7,292.22232142857143,298.12857142857143,1044.3,292.22232142857143,298.12857142857143,1154.6,292.22232142857143,298.12857142857143,1255.2,292.22232142857143,298.12857142857143,1355.6,292.22232142857143,298.12857142857143,1464.3,292.22232142857143,298.12857142857143,1566.4,292.22232142857143,298.12857142857143,1676.5,292.22232142857143,298.12857142857143,1784.5,292.22232142857143,298.12857142857143,1889.8,292.22232142857143,298.12857142857143,1990.3,292.22232142857143,298.12857142857143,2098.2,292.22232142857143,298.12857142857143,2205.6,292.22232142857143,298.12857142857143,2315,292.22232142857143,298.12857142857143,2423,292.22232142857143,298.12857142857143,2538.7,292.22232142857143,298.12857142857143,2648,292.22232142857143,298.12857142857143,2754.2,292.22232142857143,298.12857142857143,2856.8,292.22232142857143,298.12857142857143,2957.7,292.22232142857143,298.12857142857143,3072.7,292.22232142857143,298.12857142857143,3175.3,292.22232142857143,298.12857142857143,3279.1,292.22232142857143,298.12857142857143,3386.8,292.22232142857143,298.12857142857143,3490.1,292.22232142857143,298.12857142857143,3597.2,292.22232142857143,298.12857142857143,3705.4,292.22232142857143,298.12857142857143,3814.9,292.22232142857143,298.12857142857143,3916,292.22232142857143,298.12857142857143,4024.2,292.22232142857143,298.12857142857143,4124.4,292.22232142857143,298.12857142857143,4226.5,292.22232142857143,298.12857142857143,4334.9,292.22232142857143,298.12857142857143,4436.2,292.22232142857143,298.12857142857143,4549.6,292.22232142857143,298.12857142857143,4649.6,292.22232142857143,298.12857142857143,4753.2,292.22232142857143,298.12857142857143,4855.4,292.22232142857143,298.12857142857143,4956.2]","[1353.3,1353.4,1000,0,353.4,""smooth"",""right"",""right"",""good_move"",3870.7,2516.2,1995.6,1354.6,520.5,""smooth"",""right"",""right"",""good_move"",11066.6,7194.8,2953.6,7743.9,369.1,""smooth"",""down"",""down"",""good_move"",14514.3,3444.9,3003.2,11069.4,441.7,""smooth"",""down"",""down"",""good_move""]","",""
"4323","","<div style=""width:500px;"">
  <p>What determined the result of this run?</p>
  </div>","100","html-slider-response","15","279471","0.0-5.0-1.1","66","1","2025-07-16 08:30:45","1f75c3e559b7213887762d5229550c2b","216.120.189.118","Mozilla/5.0 (Windows NT 10.0; Win64; x64) AppleWebKit/537.36 (KHTML, like Gecko) Chrome/138.0.0.0 Safari/537.36","WebKit","Chrome","138.0.0.0","Windows","10.0","https://app.prolific.com/","en-US,en;q=0.9","6786c32f329b1d694103f225","68764874ac79eee8c1d4cb03","687762f0300fae7356a5e444","2","0","6786c32f329b1d694103f225","2","0","2025-07-16T08:35:27.779Z","","","","","","","","","","","AttribQ","","50","","","","","","","","","","","","","","","","","","","","","","","","","","","","",""
"4792","","<div style=""width:500px;"">
  <p>How much control did you have over the ball?</p>
  </div>","100","html-slider-response","16","284266","0.0-5.0-2.1","66","1","2025-07-16 08:30:45","1f75c3e559b7213887762d5229550c2b","216.120.189.118","Mozilla/5.0 (Windows NT 10.0; Win64; x64) AppleWebKit/537.36 (KHTML, like Gecko) Chrome/138.0.0.0 Safari/537.36","WebKit","Chrome","138.0.0.0","Windows","10.0","https://app.prolific.com/","en-US,en;q=0.9","6786c32f329b1d694103f225","68764874ac79eee8c1d4cb03","687762f0300fae7356a5e444","2","0","6786c32f329b1d694103f225","2","0","2025-07-16T08:35:32.574Z","","","","","","","","","","","ControlQ","","50","","","","","","","","","","","","","","","","","","","","","","","","","","","","",""
"5426","","<div style=""width:500px;"">
  <p>How would you describe your current emotional state?</p>
  </div>","0","html-slider-response","17","289694","0.0-5.0-3.1","66","1","2025-07-16 08:30:45","1f75c3e559b7213887762d5229550c2b","216.120.189.118","Mozilla/5.0 (Windows NT 10.0; Win64; x64) AppleWebKit/537.36 (KHTML, like Gecko) Chrome/138.0.0.0 Safari/537.36","WebKit","Chrome","138.0.0.0","Windows","10.0","https://app.prolific.com/","en-US,en;q=0.9","6786c32f329b1d694103f225","68764874ac79eee8c1d4cb03","687762f0300fae7356a5e444","2","0","6786c32f329b1d694103f225","2","0","2025-07-16T08:35:38.002Z","","","","","","","","","","","StressQ","","50","","","","","","","","","","","","","","","","","","","","","","","","","","","","",""
"6229","","<div style=""width:500px;"">
  <p>What best describes how you currently feel?</p>
  </div>","100","html-slider-response","18","295925","0.0-5.0-4.1","66","1","2025-07-16 08:30:45","1f75c3e559b7213887762d5229550c2b","216.120.189.118","Mozilla/5.0 (Windows NT 10.0; Win64; x64) AppleWebKit/537.36 (KHTML, like Gecko) Chrome/138.0.0.0 Safari/537.36","WebKit","Chrome","138.0.0.0","Windows","10.0","https://app.prolific.com/","en-US,en;q=0.9","6786c32f329b1d694103f225","68764874ac79eee8c1d4cb03","687762f0300fae7356a5e444","2","0","6786c32f329b1d694103f225","2","0","2025-07-16T08:35:44.234Z","","","","","","","","","","","MotivationQ","","50","","","","","","","","","","","","","","","","","","","","","","","","","","","","",""
"","","","","ctl-task-cpt","19","321618","0.0-5.0-0.2","66","1","2025-07-16 08:30:45","1f75c3e559b7213887762d5229550c2b","216.120.189.118","Mozilla/5.0 (Windows NT 10.0; Win64; x64) AppleWebKit/537.36 (KHTML, like Gecko) Chrome/138.0.0.0 Safari/537.36","WebKit","Chrome","138.0.0.0","Windows","10.0","https://app.prolific.com/","en-US,en;q=0.9","6786c32f329b1d694103f225","68764874ac79eee8c1d4cb03","687762f0300fae7356a5e444","2","0","6786c32f329b1d694103f225","2","0","2025-07-16T08:36:09.926Z","","","","","","","","","","","","","","win-only","0","g1:NW,g2:SE","0.8","3","0","300445.5","1982.3","6990.9","22677.6","1","4","8","6","2","8","7","8","1","0.06060606060606061","5008.6","3000","1635","[""down"",""right""]","{""num_key_presses"":6,""num_perfect"":5,""num_errors"":1,""num_randdir"":0,""num_randdir_good_moves"":0,""num_whilered"":0,""num_whileblue"":1,""num_blue"":1,""num_good_moves"":6}","[296.22232142857143,296.12857142857143,1.2,296.22232142857143,296.12857142857143,101,296.22232142857143,296.12857142857143,206,296.22232142857143,296.12857142857143,309.5,296.22232142857143,296.12857142857143,410.6,296.22232142857143,296.12857142857143,523.9,296.22232142857143,296.12857142857143,630.4,296.22232142857143,296.12857142857143,731.1,296.22232142857143,296.12857142857143,832.8,296.22232142857143,296.12857142857143,936.3,296.22232142857143,296.12857142857143,1038.7,296.22232142857143,296.12857142857143,1140.4,296.22232142857143,296.12857142857143,1241.5,296.22232142857143,296.12857142857143,1356.4,296.22232142857143,296.12857142857143,1458,296.22232142857143,296.12857142857143,1558,296.22232142857143,296.12857142857143,1667.4,296.22232142857143,296.12857142857143,1770.6,296.22232142857143,296.12857142857143,1875,296.22232142857143,296.12857142857143,1976.5,296.22232142857143,296.12857142857143,2087,296.22232142857143,296.12857142857143,2192.6,296.22232142857143,296.12857142857143,2298.4,296.22232142857143,296.12857142857143,2399.8,296.22232142857143,296.12857142857143,2500.1,296.22232142857143,296.12857142857143,2612.3,296.22232142857143,296.12857142857143,2712.8,296.22232142857143,296.12857142857143,2818.8,296.22232142857143,296.12857142857143,2920.7,296.22232142857143,296.12857142857143,3021.1,296.22232142857143,296.12857142857143,3126.4,296.22232142857143,296.12857142857143,3226.9,296.22232142857143,296.12857142857143,3336.2,296.22232142857143,296.12857142857143,3436.5,296.22232142857143,296.12857142857143,3540.7,296.22232142857143,296.12857142857143,3642.5,296.22232142857143,296.12857142857143,3745.7,296.22232142857143,296.12857142857143,3849.9,296.22232142857143,296.12857142857143,3960.7,296.22232142857143,296.12857142857143,4062.6,296.22232142857143,296.12857142857143,4165.9,296.22232142857143,296.12857142857143,4269.4,296.22232142857143,296.12857142857143,4371.1,296.22232142857143,296.12857142857143,4471.7,296.22232142857143,296.12857142857143,4576.1,296.22232142857143,296.12857142857143,4685.6,296.22232142857143,296.12857142857143,4802.3,296.22232142857143,296.12857142857143,4904.5]","[1385.6,1385.6,1000,0,385.6,""smooth"",""right"",""right"",""good_move"",4126.2,2738,2340.6,1388.2,397.4,""smooth"",""right"",""right"",""good_move"",6803.9,2676.2,2283.9,4127.7,392.4,""smooth"",""right"",""right"",""good_move"",9053.4,2231.3,1813.7,6822.2,417.5,""smooth"",""down"",""down"",""good_move"",11916.8,2861.9,2518.4,9054.9,343.5,""while_blue"",""down"",""down"",""good_move"",15539.4,3620.9,3194,11918.5,426.9,""smooth"",""down"",""down"",""good_move""]","",""
"4102","","<div style=""width:500px;"">
  <p>What determined the result of this run?</p>
  </div>","100","html-slider-response","20","325726","0.0-5.0-1.2","66","1","2025-07-16 08:30:45","1f75c3e559b7213887762d5229550c2b","216.120.189.118","Mozilla/5.0 (Windows NT 10.0; Win64; x64) AppleWebKit/537.36 (KHTML, like Gecko) Chrome/138.0.0.0 Safari/537.36","WebKit","Chrome","138.0.0.0","Windows","10.0","https://app.prolific.com/","en-US,en;q=0.9","6786c32f329b1d694103f225","68764874ac79eee8c1d4cb03","687762f0300fae7356a5e444","2","0","6786c32f329b1d694103f225","2","0","2025-07-16T08:36:14.040Z","","","","","","","","","","","AttribQ","","50","","","","","","","","","","","","","","","","","","","","","","","","","","","","",""
"3429","","<div style=""width:500px;"">
  <p>How much control did you have over the ball?</p>
  </div>","100","html-slider-response","21","329179","0.0-5.0-2.2","66","1","2025-07-16 08:30:45","1f75c3e559b7213887762d5229550c2b","216.120.189.118","Mozilla/5.0 (Windows NT 10.0; Win64; x64) AppleWebKit/537.36 (KHTML, like Gecko) Chrome/138.0.0.0 Safari/537.36","WebKit","Chrome","138.0.0.0","Windows","10.0","https://app.prolific.com/","en-US,en;q=0.9","6786c32f329b1d694103f225","68764874ac79eee8c1d4cb03","687762f0300fae7356a5e444","2","0","6786c32f329b1d694103f225","2","0","2025-07-16T08:36:17.487Z","","","","","","","","","","","ControlQ","","50","","","","","","","","","","","","","","","","","","","","","","","","","","","","",""
"3968","","<div style=""width:500px;"">
  <p>How would you describe your current emotional state?</p>
  </div>","0","html-slider-response","22","333164","0.0-5.0-3.2","66","1","2025-07-16 08:30:45","1f75c3e559b7213887762d5229550c2b","216.120.189.118","Mozilla/5.0 (Windows NT 10.0; Win64; x64) AppleWebKit/537.36 (KHTML, like Gecko) Chrome/138.0.0.0 Safari/537.36","WebKit","Chrome","138.0.0.0","Windows","10.0","https://app.prolific.com/","en-US,en;q=0.9","6786c32f329b1d694103f225","68764874ac79eee8c1d4cb03","687762f0300fae7356a5e444","2","0","6786c32f329b1d694103f225","2","0","2025-07-16T08:36:21.473Z","","","","","","","","","","","StressQ","","50","","","","","","","","","","","","","","","","","","","","","","","","","","","","",""
"4273","","<div style=""width:500px;"">
  <p>What best describes how you currently feel?</p>
  </div>","100","html-slider-response","23","337443","0.0-5.0-4.2","66","1","2025-07-16 08:30:45","1f75c3e559b7213887762d5229550c2b","216.120.189.118","Mozilla/5.0 (Windows NT 10.0; Win64; x64) AppleWebKit/537.36 (KHTML, like Gecko) Chrome/138.0.0.0 Safari/537.36","WebKit","Chrome","138.0.0.0","Windows","10.0","https://app.prolific.com/","en-US,en;q=0.9","6786c32f329b1d694103f225","68764874ac79eee8c1d4cb03","687762f0300fae7356a5e444","2","0","6786c32f329b1d694103f225","2","0","2025-07-16T08:36:25.751Z","","","","","","","","","","","MotivationQ","","50","","","","","","","","","","","","","","","","","","","","","","","","","","","","",""
"","","","","ctl-task-cpt","24","368865","0.0-5.0-0.3","66","1","2025-07-16 08:30:45","1f75c3e559b7213887762d5229550c2b","216.120.189.118","Mozilla/5.0 (Windows NT 10.0; Win64; x64) AppleWebKit/537.36 (KHTML, like Gecko) Chrome/138.0.0.0 Safari/537.36","WebKit","Chrome","138.0.0.0","Windows","10.0","https://app.prolific.com/","en-US,en;q=0.9","6786c32f329b1d694103f225","68764874ac79eee8c1d4cb03","687762f0300fae7356a5e444","2","0","6786c32f329b1d694103f225","2","0","2025-07-16T08:36:57.175Z","","","","","","","","","","","","","","win-only","0","g1:NW,g2:SE","0.7","4","0","341963.9","3270.5","8278.5","28396.6","1","4","4","6","1","1","1","9","8","0.06818181818181818","5008","3000","1735","[""left"",""up""]","{""num_key_presses"":6,""num_perfect"":4,""num_errors"":0,""num_randdir"":2,""num_randdir_good_moves"":1,""num_whilered"":0,""num_whileblue"":0,""num_blue"":0,""num_good_moves"":5}","[294.22232142857143,291.12857142857143,1.5,294.22232142857143,291.12857142857143,103.4,294.22232142857143,291.12857142857143,209.3,294.22232142857143,291.12857142857143,310.4,294.22232142857143,291.12857142857143,410.4,294.22232142857143,291.12857142857143,516,294.22232142857143,291.12857142857143,617.9,294.22232142857143,291.12857142857143,728.8,294.22232142857143,291.12857142857143,838,294.22232142857143,291.12857142857143,947,329.22232142857143,317.12857142857143,1055.3,614.2223214285714,654.1285714285714,1158.9,614.2223214285714,654.1285714285714,1259,614.2223214285714,654.1285714285714,1362.9,614.2223214285714,654.1285714285714,1467.9,614.2223214285714,654.1285714285714,1568.1,614.2223214285714,654.1285714285714,1671.8,614.2223214285714,654.1285714285714,1774.3,614.2223214285714,654.1285714285714,1874.9,614.2223214285714,654.1285714285714,1977.3,614.2223214285714,654.1285714285714,2083.4,614.2223214285714,654.1285714285714,2188.4,614.2223214285714,654.1285714285714,2291.9,614.2223214285714,654.1285714285714,2398.3,614.2223214285714,654.1285714285714,2499.5,614.2223214285714,654.1285714285714,2605.5,614.2223214285714,654.1285714285714,2709.9,614.2223214285714,654.1285714285714,2810.1,614.2223214285714,654.1285714285714,2916.2,614.2223214285714,654.1285714285714,3024.3,614.2223214285714,654.1285714285714,3125.5,614.2223214285714,654.1285714285714,3243.5,614.2223214285714,654.1285714285714,3358.1,614.2223214285714,654.1285714285714,3462.3,614.2223214285714,654.1285714285714,3570.3,614.2223214285714,654.1285714285714,3671.4,614.2223214285714,654.1285714285714,3787.8,614.2223214285714,654.1285714285714,3892.1,614.2223214285714,654.1285714285714,3993.2,614.2223214285714,654.1285714285714,4094.1,614.2223214285714,654.1285714285714,4200.3,614.2223214285714,654.1285714285714,4318,614.2223214285714,654.1285714285714,4425.9,614.2223214285714,654.1285714285714,4537.3,614.2223214285714,654.1285714285714,4641.8,614.2223214285714,654.1285714285714,4742.1,614.2223214285714,654.1285714285714,4851.3,614.2223214285714,654.1285714285714,4961.9]","[1523.3,1523.3,1000,0,523.3,""oops"",""left"",""down"",""bad_move"",4666.8,3133.6,2742.1,1533.3,391.5,""oops"",""up"",""left"",""good_move"",7458.1,2788.1,2432.8,4670,355.3,""smooth"",""up"",""up"",""good_move"",10591.8,3132,2617.3,7459.8,514.7,""smooth"",""up"",""up"",""good_move"",14085,3491.7,2851.4,10593.3,640.3,""smooth"",""up"",""up"",""good_move"",19618.9,5522.7,3018.2,14096.2,2504.6,""smooth"",""left"",""left"",""good_move""]","",""
"6234","","<div style=""width:500px;"">
  <p>What determined the result of this run?</p>
  </div>","100","html-slider-response","25","375107","0.0-5.0-1.3","66","1","2025-07-16 08:30:45","1f75c3e559b7213887762d5229550c2b","216.120.189.118","Mozilla/5.0 (Windows NT 10.0; Win64; x64) AppleWebKit/537.36 (KHTML, like Gecko) Chrome/138.0.0.0 Safari/537.36","WebKit","Chrome","138.0.0.0","Windows","10.0","https://app.prolific.com/","en-US,en;q=0.9","6786c32f329b1d694103f225","68764874ac79eee8c1d4cb03","687762f0300fae7356a5e444","2","0","6786c32f329b1d694103f225","2","0","2025-07-16T08:37:03.416Z","","","","","","","","","","","AttribQ","","50","","","","","","","","","","","","","","","","","","","","","","","","","","","","",""
"18351","","<div style=""width:500px;"">
  <p>How much control did you have over the ball?</p>
  </div>","100","html-slider-response","26","393463","0.0-5.0-2.3","66","1","2025-07-16 08:30:45","1f75c3e559b7213887762d5229550c2b","216.120.189.118","Mozilla/5.0 (Windows NT 10.0; Win64; x64) AppleWebKit/537.36 (KHTML, like Gecko) Chrome/138.0.0.0 Safari/537.36","WebKit","Chrome","138.0.0.0","Windows","10.0","https://app.prolific.com/","en-US,en;q=0.9","6786c32f329b1d694103f225","68764874ac79eee8c1d4cb03","687762f0300fae7356a5e444","2","0","6786c32f329b1d694103f225","2","0","2025-07-16T08:37:21.772Z","","","","","","","","","","","ControlQ","","50","","","","","","","","","","","","","","","","","","","","","","","","","","","","",""
"5551","","<div style=""width:500px;"">
  <p>How would you describe your current emotional state?</p>
  </div>","1","html-slider-response","27","399022","0.0-5.0-3.3","66","1","2025-07-16 08:30:45","1f75c3e559b7213887762d5229550c2b","216.120.189.118","Mozilla/5.0 (Windows NT 10.0; Win64; x64) AppleWebKit/537.36 (KHTML, like Gecko) Chrome/138.0.0.0 Safari/537.36","WebKit","Chrome","138.0.0.0","Windows","10.0","https://app.prolific.com/","en-US,en;q=0.9","6786c32f329b1d694103f225","68764874ac79eee8c1d4cb03","687762f0300fae7356a5e444","2","0","6786c32f329b1d694103f225","2","0","2025-07-16T08:37:27.330Z","","","","","","","","","","","StressQ","","50","","","","","","","","","","","","","","","","","","","","","","","","","","","","",""
"5730","","<div style=""width:500px;"">
  <p>What best describes how you currently feel?</p>
  </div>","100","html-slider-response","28","404756","0.0-5.0-4.3","66","1","2025-07-16 08:30:45","1f75c3e559b7213887762d5229550c2b","216.120.189.118","Mozilla/5.0 (Windows NT 10.0; Win64; x64) AppleWebKit/537.36 (KHTML, like Gecko) Chrome/138.0.0.0 Safari/537.36","WebKit","Chrome","138.0.0.0","Windows","10.0","https://app.prolific.com/","en-US,en;q=0.9","6786c32f329b1d694103f225","68764874ac79eee8c1d4cb03","687762f0300fae7356a5e444","2","0","6786c32f329b1d694103f225","2","0","2025-07-16T08:37:33.064Z","","","","","","","","","","","MotivationQ","","50","","","","","","","","","","","","","","","","","","","","","","","","","","","","",""
"","","","","ctl-task-cpt","29","477906","0.0-5.0-0.4","66","1","2025-07-16 08:30:45","1f75c3e559b7213887762d5229550c2b","216.120.189.118","Mozilla/5.0 (Windows NT 10.0; Win64; x64) AppleWebKit/537.36 (KHTML, like Gecko) Chrome/138.0.0.0 Safari/537.36","WebKit","Chrome","138.0.0.0","Windows","10.0","https://app.prolific.com/","en-US,en;q=0.9","6786c32f329b1d694103f225","68764874ac79eee8c1d4cb03","687762f0300fae7356a5e444","2","0","6786c32f329b1d694103f225","2","0","2025-07-16T08:38:46.215Z","","","","","","","","","","","","","","win-only","2","g1:SE,g2:NW","0.6","5","0","409277.5","2314.2","7318.5","70117.1","1","4","8","6","2","8","8","17","9","0.12878787878787878","5004.3","3000","135","[""left"",""up""]","{""num_key_presses"":18,""num_perfect"":11,""num_errors"":0,""num_randdir"":7,""num_randdir_good_moves"":2,""num_whilered"":0,""num_whileblue"":0,""num_blue"":3,""num_good_moves"":12}","[298.22232142857143,291.12857142857143,12.5,298.22232142857143,291.12857142857143,102,298.22232142857143,291.12857142857143,209.3,298.22232142857143,291.12857142857143,313.7,298.22232142857143,291.12857142857143,417.3,298.22232142857143,291.12857142857143,527.3,298.22232142857143,291.12857142857143,634,298.22232142857143,291.12857142857143,747.5,298.22232142857143,291.12857142857143,847.5,298.22232142857143,291.12857142857143,957.5,298.22232142857143,291.12857142857143,1069.6,298.22232142857143,291.12857142857143,1177.4,298.22232142857143,291.12857142857143,1282.2,298.22232142857143,291.12857142857143,1391.9,298.22232142857143,291.12857142857143,1496.2,298.22232142857143,291.12857142857143,1601.4,298.22232142857143,291.12857142857143,1708.6,298.22232142857143,291.12857142857143,1810.8,298.22232142857143,291.12857142857143,1913.6,298.22232142857143,291.12857142857143,2024.1,298.22232142857143,291.12857142857143,2131.1,298.22232142857143,291.12857142857143,2231.2,298.22232142857143,291.12857142857143,2340.7,298.22232142857143,291.12857142857143,2446.6,298.22232142857143,291.12857142857143,2547.8,298.22232142857143,291.12857142857143,2658.7,298.22232142857143,291.12857142857143,2765.7,298.22232142857143,291.12857142857143,2894.6,298.22232142857143,291.12857142857143,2995.2,298.22232142857143,291.12857142857143,3095.7,298.22232142857143,291.12857142857143,3199.2,298.22232142857143,291.12857142857143,3300.3,298.22232142857143,291.12857142857143,3405.9,298.22232142857143,291.12857142857143,3509.4,298.22232142857143,291.12857142857143,3610,298.22232142857143,291.12857142857143,3715.3,298.22232142857143,291.12857142857143,3821.7,298.22232142857143,291.12857142857143,3932.2,298.22232142857143,291.12857142857143,4032.5,298.22232142857143,291.12857142857143,4138.9,298.22232142857143,291.12857142857143,4241.8,298.22232142857143,291.12857142857143,4344.2,298.22232142857143,291.12857142857143,4449.7,298.22232142857143,291.12857142857143,4559.9,298.22232142857143,291.12857142857143,4665.1,298.22232142857143,291.12857142857143,4767.3,298.22232142857143,291.12857142857143,4871.6,298.22232142857143,291.12857142857143,4971.6]","[1451.9,1452,1000,0,452,""smooth"",""up"",""up"",""good_move"",4356,2899.9,2448,1456.2,451.9,""smooth"",""up"",""up"",""good_move"",7110.2,2753.1,2367.5,4357.2,385.5,""smooth"",""up"",""up"",""good_move"",9674.9,2555.5,2174.1,7119.4,381.4,""oops"",""left"",""right"",""bad_move"",12185.7,2509.1,2066.3,9676.6,442.8,""oops"",""left"",""down"",""bad_move"",15911.9,3724.7,3326.2,12187.2,398.6,""oops"",""left"",""right"",""bad_move"",18897.2,2979.9,2617.8,15917.3,362.1,""smooth"",""right"",""down"",""bad_move"",21319.8,2418.2,2057.7,18901.7,360.5,""smooth"",""left"",""left"",""good_move"",24109.7,2788.2,2445.7,21321.5,342.6,""smooth"",""left"",""left"",""good_move"",31122.4,7010.1,3027.3,27685.4,409.8,""oops"",""left"",""up"",""good_move"",34537.4,3411,2583.8,31126.4,827.2,""oops"",""left"",""down"",""bad_move"",38329.6,3791.1,3406.4,34538.7,384.5,""oops"",""left"",""down"",""bad_move"",44323.5,5992,1700.3,42135.5,487.8,""smooth"",""up"",""up"",""good_move"",51386.2,7061.4,2287.7,48617.4,481.1,""smooth"",""up"",""up"",""good_move"",53895.6,2503.4,2090.1,51392.2,413.3,""oops"",""up"",""up"",""good_move"",57167.1,3270.1,2923.8,53897,346.3,""smooth"",""left"",""left"",""good_move"",59628,2459.7,2115.9,57168.4,343.7,""smooth"",""left"",""left"",""good_move"",62569.2,2936.7,2606.9,59632.5,329.8,""smooth"",""left"",""left"",""good_move""]","",""
"6078","","<div style=""width:500px;"">
  <p>What determined the result of this run?</p>
  </div>","100","html-slider-response","30","483988","0.0-5.0-1.4","66","1","2025-07-16 08:30:45","1f75c3e559b7213887762d5229550c2b","216.120.189.118","Mozilla/5.0 (Windows NT 10.0; Win64; x64) AppleWebKit/537.36 (KHTML, like Gecko) Chrome/138.0.0.0 Safari/537.36","WebKit","Chrome","138.0.0.0","Windows","10.0","https://app.prolific.com/","en-US,en;q=0.9","6786c32f329b1d694103f225","68764874ac79eee8c1d4cb03","687762f0300fae7356a5e444","2","0","6786c32f329b1d694103f225","2","0","2025-07-16T08:38:52.296Z","","","","","","","","","","","AttribQ","","50","","","","","","","","","","","","","","","","","","","","","","","","","","","","",""
"5793","","<div style=""width:500px;"">
  <p>How much control did you have over the ball?</p>
  </div>","88","html-slider-response","31","489785","0.0-5.0-2.4","66","1","2025-07-16 08:30:45","1f75c3e559b7213887762d5229550c2b","216.120.189.118","Mozilla/5.0 (Windows NT 10.0; Win64; x64) AppleWebKit/537.36 (KHTML, like Gecko) Chrome/138.0.0.0 Safari/537.36","WebKit","Chrome","138.0.0.0","Windows","10.0","https://app.prolific.com/","en-US,en;q=0.9","6786c32f329b1d694103f225","68764874ac79eee8c1d4cb03","687762f0300fae7356a5e444","2","0","6786c32f329b1d694103f225","2","0","2025-07-16T08:38:58.093Z","","","","","","","","","","","ControlQ","","50","","","","","","","","","","","","","","","","","","","","","","","","","","","","",""
"5795","","<div style=""width:500px;"">
  <p>How would you describe your current emotional state?</p>
  </div>","19","html-slider-response","32","495585","0.0-5.0-3.4","66","1","2025-07-16 08:30:45","1f75c3e559b7213887762d5229550c2b","216.120.189.118","Mozilla/5.0 (Windows NT 10.0; Win64; x64) AppleWebKit/537.36 (KHTML, like Gecko) Chrome/138.0.0.0 Safari/537.36","WebKit","Chrome","138.0.0.0","Windows","10.0","https://app.prolific.com/","en-US,en;q=0.9","6786c32f329b1d694103f225","68764874ac79eee8c1d4cb03","687762f0300fae7356a5e444","2","0","6786c32f329b1d694103f225","2","0","2025-07-16T08:39:03.893Z","","","","","","","","","","","StressQ","","50","","","","","","","","","","","","","","","","","","","","","","","","","","","","",""
"4664","","<div style=""width:500px;"">
  <p>What best describes how you currently feel?</p>
  </div>","100","html-slider-response","33","500252","0.0-5.0-4.4","66","1","2025-07-16 08:30:45","1f75c3e559b7213887762d5229550c2b","216.120.189.118","Mozilla/5.0 (Windows NT 10.0; Win64; x64) AppleWebKit/537.36 (KHTML, like Gecko) Chrome/138.0.0.0 Safari/537.36","WebKit","Chrome","138.0.0.0","Windows","10.0","https://app.prolific.com/","en-US,en;q=0.9","6786c32f329b1d694103f225","68764874ac79eee8c1d4cb03","687762f0300fae7356a5e444","2","0","6786c32f329b1d694103f225","2","0","2025-07-16T08:39:08.560Z","","","","","","","","","","","MotivationQ","","50","","","","","","","","","","","","","","","","","","","","","","","","","","","","",""
"","","","","ctl-task-cpt","34","548205","0.0-5.0-0.5","66","1","2025-07-16 08:30:45","1f75c3e559b7213887762d5229550c2b","216.120.189.118","Mozilla/5.0 (Windows NT 10.0; Win64; x64) AppleWebKit/537.36 (KHTML, like Gecko) Chrome/138.0.0.0 Safari/537.36","WebKit","Chrome","138.0.0.0","Windows","10.0","https://app.prolific.com/","en-US,en;q=0.9","6786c32f329b1d694103f225","68764874ac79eee8c1d4cb03","687762f0300fae7356a5e444","2","0","6786c32f329b1d694103f225","2","0","2025-07-16T08:39:56.513Z","","","","","","","","","","","","","","win-only","3","g1:SW,g2:NE","0.5","6","0","504772.4","2240.5","7260.5","44914.5","1","4","4","6","1","1","0","17","17","0.12878787878787878","5019.9","3000","1945","[""down"",""left""]","{""num_key_presses"":8,""num_perfect"":5,""num_errors"":1,""num_randdir"":2,""num_randdir_good_moves"":1,""num_whilered"":0,""num_whileblue"":1,""num_blue"":5,""num_good_moves"":6}","[292.22232142857143,289.12857142857143,1.2,292.22232142857143,289.12857142857143,110.3,292.22232142857143,289.12857142857143,213.7,292.22232142857143,289.12857142857143,316,292.22232142857143,289.12857142857143,417,292.22232142857143,289.12857142857143,519,292.22232142857143,289.12857142857143,619.9,292.22232142857143,289.12857142857143,730.3,292.22232142857143,289.12857142857143,847.9,292.22232142857143,289.12857142857143,950.5,292.22232142857143,289.12857142857143,1064.7,292.22232142857143,289.12857142857143,1176.4,292.22232142857143,289.12857142857143,1290.1,292.22232142857143,289.12857142857143,1405.2,292.22232142857143,289.12857142857143,1512.3,292.22232142857143,289.12857142857143,1625.1,292.22232142857143,289.12857142857143,1733,292.22232142857143,289.12857142857143,1847.8,292.22232142857143,289.12857142857143,1959.3,292.22232142857143,289.12857142857143,2069.6,292.22232142857143,289.12857142857143,2170,292.22232142857143,289.12857142857143,2271.3,292.22232142857143,289.12857142857143,2385.5,292.22232142857143,289.12857142857143,2491.9,292.22232142857143,289.12857142857143,2591.9,292.22232142857143,289.12857142857143,2705.9,292.22232142857143,289.12857142857143,2817.4,292.22232142857143,289.12857142857143,2925.2,292.22232142857143,289.12857142857143,3042.1,292.22232142857143,289.12857142857143,3149.5,292.22232142857143,289.12857142857143,3249.9,292.22232142857143,289.12857142857143,3350.9,292.22232142857143,289.12857142857143,3466.6,292.22232142857143,289.12857142857143,3579.8,292.22232142857143,289.12857142857143,3679.9,292.22232142857143,289.12857142857143,3780.1,292.22232142857143,289.12857142857143,3895.4,292.22232142857143,289.12857142857143,3996.2,292.22232142857143,289.12857142857143,4107.2,292.22232142857143,289.12857142857143,4221.1,292.22232142857143,289.12857142857143,4332.5,292.22232142857143,289.12857142857143,4447.6,292.22232142857143,289.12857142857143,4559,292.22232142857143,289.12857142857143,4673.8,292.22232142857143,289.12857142857143,4785.3,292.22232142857143,289.12857142857143,4896.4,292.22232142857143,289.12857142857143,4999.6]","[1442.5,1442.6,1000,0,442.6,""oops"",""left"",""right"",""bad_move"",4353.8,2892.5,2430.6,1461.3,461.9,""oops"",""down"",""left"",""good_move"",12296.7,7940.4,3178.7,8792,326,""smooth"",""down"",""down"",""good_move"",14380.2,2082.5,1672.4,12297.7,410.1,""smooth"",""down"",""down"",""good_move"",17661,3274.2,2914.7,14386.8,359.5,""while_blue"",""left"",""right"",""bad_move"",26999.3,9337,1841.7,24608.2,549.4,""smooth"",""left"",""left"",""good_move"",33920.7,6920.5,2607.8,30822.1,490.8,""smooth"",""left"",""left"",""good_move"",37307.3,3380.1,1568.8,33927.2,1811.3,""smooth"",""left"",""left"",""good_move""]","",""
"5248","","<div style=""width:500px;"">
  <p>What determined the result of this run?</p>
  </div>","100","html-slider-response","35","553459","0.0-5.0-1.5","66","1","2025-07-16 08:30:45","1f75c3e559b7213887762d5229550c2b","216.120.189.118","Mozilla/5.0 (Windows NT 10.0; Win64; x64) AppleWebKit/537.36 (KHTML, like Gecko) Chrome/138.0.0.0 Safari/537.36","WebKit","Chrome","138.0.0.0","Windows","10.0","https://app.prolific.com/","en-US,en;q=0.9","6786c32f329b1d694103f225","68764874ac79eee8c1d4cb03","687762f0300fae7356a5e444","2","0","6786c32f329b1d694103f225","2","0","2025-07-16T08:40:01.767Z","","","","","","","","","","","AttribQ","","50","","","","","","","","","","","","","","","","","","","","","","","","","","","","",""
"4622","","<div style=""width:500px;"">
  <p>How much control did you have over the ball?</p>
  </div>","91","html-slider-response","36","558085","0.0-5.0-2.5","66","1","2025-07-16 08:30:45","1f75c3e559b7213887762d5229550c2b","216.120.189.118","Mozilla/5.0 (Windows NT 10.0; Win64; x64) AppleWebKit/537.36 (KHTML, like Gecko) Chrome/138.0.0.0 Safari/537.36","WebKit","Chrome","138.0.0.0","Windows","10.0","https://app.prolific.com/","en-US,en;q=0.9","6786c32f329b1d694103f225","68764874ac79eee8c1d4cb03","687762f0300fae7356a5e444","2","0","6786c32f329b1d694103f225","2","0","2025-07-16T08:40:06.393Z","","","","","","","","","","","ControlQ","","50","","","","","","","","","","","","","","","","","","","","","","","","","","","","",""
"6101","","<div style=""width:500px;"">
  <p>How would you describe your current emotional state?</p>
  </div>","0","html-slider-response","37","564191","0.0-5.0-3.5","66","1","2025-07-16 08:30:45","1f75c3e559b7213887762d5229550c2b","216.120.189.118","Mozilla/5.0 (Windows NT 10.0; Win64; x64) AppleWebKit/537.36 (KHTML, like Gecko) Chrome/138.0.0.0 Safari/537.36","WebKit","Chrome","138.0.0.0","Windows","10.0","https://app.prolific.com/","en-US,en;q=0.9","6786c32f329b1d694103f225","68764874ac79eee8c1d4cb03","687762f0300fae7356a5e444","2","0","6786c32f329b1d694103f225","2","0","2025-07-16T08:40:12.499Z","","","","","","","","","","","StressQ","","50","","","","","","","","","","","","","","","","","","","","","","","","","","","","",""
"6646","","<div style=""width:500px;"">
  <p>What best describes how you currently feel?</p>
  </div>","99","html-slider-response","38","570841","0.0-5.0-4.5","66","1","2025-07-16 08:30:45","1f75c3e559b7213887762d5229550c2b","216.120.189.118","Mozilla/5.0 (Windows NT 10.0; Win64; x64) AppleWebKit/537.36 (KHTML, like Gecko) Chrome/138.0.0.0 Safari/537.36","WebKit","Chrome","138.0.0.0","Windows","10.0","https://app.prolific.com/","en-US,en;q=0.9","6786c32f329b1d694103f225","68764874ac79eee8c1d4cb03","687762f0300fae7356a5e444","2","0","6786c32f329b1d694103f225","2","0","2025-07-16T08:40:19.150Z","","","","","","","","","","","MotivationQ","","50","","","","","","","","","","","","","","","","","","","","","","","","","","","","",""
"","","","","ctl-task-cpt","39","616835","0.0-5.0-0.6","66","1","2025-07-16 08:30:45","1f75c3e559b7213887762d5229550c2b","216.120.189.118","Mozilla/5.0 (Windows NT 10.0; Win64; x64) AppleWebKit/537.36 (KHTML, like Gecko) Chrome/138.0.0.0 Safari/537.36","WebKit","Chrome","138.0.0.0","Windows","10.0","https://app.prolific.com/","en-US,en;q=0.9","6786c32f329b1d694103f225","68764874ac79eee8c1d4cb03","687762f0300fae7356a5e444","2","0","6786c32f329b1d694103f225","2","0","2025-07-16T08:41:05.143Z","","","","","","","","","","","","","","win-only","0","g1:NW,g2:SE","0.4","7","0","575365","12052.7","17064.7","42944.1","1","4","8","6","2","8","8","25","17","0.1893939393939394","5012","3000","2525","[""down"",""right""]","{""num_key_presses"":6,""num_perfect"":2,""num_errors"":0,""num_randdir"":4,""num_randdir_good_moves"":4,""num_whilered"":0,""num_whileblue"":0,""num_blue"":2,""num_good_moves"":6}","[296.22232142857143,290.12857142857143,1.8,296.22232142857143,290.12857142857143,133.2,296.22232142857143,290.12857142857143,243.6,296.22232142857143,290.12857142857143,346,296.22232142857143,290.12857142857143,461,296.22232142857143,290.12857142857143,576.9,296.22232142857143,290.12857142857143,685.2,296.22232142857143,290.12857142857143,791.7,296.22232142857143,290.12857142857143,902.1,296.22232142857143,290.12857142857143,1012.1,296.22232142857143,290.12857142857143,1127.4,296.22232142857143,290.12857142857143,1235.1,296.22232142857143,290.12857142857143,1341.3,296.22232142857143,290.12857142857143,1444.9,296.22232142857143,290.12857142857143,1550.1,296.22232142857143,290.12857142857143,1656.9,296.22232142857143,290.12857142857143,1764.1,296.22232142857143,290.12857142857143,1871,296.22232142857143,290.12857142857143,1976.7,296.22232142857143,290.12857142857143,2095.8,296.22232142857143,290.12857142857143,2205.4,296.22232142857143,290.12857142857143,2306.8,296.22232142857143,290.12857142857143,2409.9,296.22232142857143,290.12857142857143,2518.2,296.22232142857143,290.12857142857143,2624.5,296.22232142857143,290.12857142857143,2728.2,296.22232142857143,290.12857142857143,2833.3,296.22232142857143,290.12857142857143,2938.8,296.22232142857143,290.12857142857143,3048.1,296.22232142857143,290.12857142857143,3172.6,296.22232142857143,290.12857142857143,3274.8,296.22232142857143,290.12857142857143,3381.8,296.22232142857143,290.12857142857143,3484.2,296.22232142857143,290.12857142857143,3594,296.22232142857143,290.12857142857143,3729.5,296.22232142857143,290.12857142857143,3836.4,296.22232142857143,290.12857142857143,3945.4,296.22232142857143,290.12857142857143,4056.2,296.22232142857143,290.12857142857143,4183.9,296.22232142857143,290.12857142857143,4292.2,296.22232142857143,290.12857142857143,4394.9,296.22232142857143,290.12857142857143,4505.8,296.22232142857143,290.12857142857143,4612,296.22232142857143,290.12857142857143,4721.9,296.22232142857143,290.12857142857143,4828.1,296.22232142857143,290.12857142857143,4938]","[1852.8,1852.8,1000,0,852.8,""smooth"",""right"",""right"",""good_move"",4811.7,2957.6,2250,1854.1,707.6,""smooth"",""right"",""right"",""good_move"",7631,2818.1,2312.9,4813,505.1,""oops"",""right"",""right"",""good_move"",14104.1,6471.8,2422.3,11115.1,566.7,""oops"",""down"",""down"",""good_move"",17627.7,3522.5,2794.8,14105.2,727.7,""oops"",""down"",""down"",""good_move"",25227,7597.4,2801.7,21951.8,473.5,""oops"",""down"",""down"",""good_move""]","",""
"7812","","<div style=""width:500px;"">
  <p>What determined the result of this run?</p>
  </div>","100","html-slider-response","40","624653","0.0-5.0-1.6","66","1","2025-07-16 08:30:45","1f75c3e559b7213887762d5229550c2b","216.120.189.118","Mozilla/5.0 (Windows NT 10.0; Win64; x64) AppleWebKit/537.36 (KHTML, like Gecko) Chrome/138.0.0.0 Safari/537.36","WebKit","Chrome","138.0.0.0","Windows","10.0","https://app.prolific.com/","en-US,en;q=0.9","6786c32f329b1d694103f225","68764874ac79eee8c1d4cb03","687762f0300fae7356a5e444","2","0","6786c32f329b1d694103f225","2","0","2025-07-16T08:41:12.961Z","","","","","","","","","","","AttribQ","","50","","","","","","","","","","","","","","","","","","","","","","","","","","","","",""
"3839","","<div style=""width:500px;"">
  <p>How much control did you have over the ball?</p>
  </div>","86","html-slider-response","41","628499","0.0-5.0-2.6","66","1","2025-07-16 08:30:45","1f75c3e559b7213887762d5229550c2b","216.120.189.118","Mozilla/5.0 (Windows NT 10.0; Win64; x64) AppleWebKit/537.36 (KHTML, like Gecko) Chrome/138.0.0.0 Safari/537.36","WebKit","Chrome","138.0.0.0","Windows","10.0","https://app.prolific.com/","en-US,en;q=0.9","6786c32f329b1d694103f225","68764874ac79eee8c1d4cb03","687762f0300fae7356a5e444","2","0","6786c32f329b1d694103f225","2","0","2025-07-16T08:41:16.807Z","","","","","","","","","","","ControlQ","","50","","","","","","","","","","","","","","","","","","","","","","","","","","","","",""
"4343","","<div style=""width:500px;"">
  <p>How would you describe your current emotional state?</p>
  </div>","1","html-slider-response","42","632849","0.0-5.0-3.6","66","1","2025-07-16 08:30:45","1f75c3e559b7213887762d5229550c2b","216.120.189.118","Mozilla/5.0 (Windows NT 10.0; Win64; x64) AppleWebKit/537.36 (KHTML, like Gecko) Chrome/138.0.0.0 Safari/537.36","WebKit","Chrome","138.0.0.0","Windows","10.0","https://app.prolific.com/","en-US,en;q=0.9","6786c32f329b1d694103f225","68764874ac79eee8c1d4cb03","687762f0300fae7356a5e444","2","0","6786c32f329b1d694103f225","2","0","2025-07-16T08:41:21.157Z","","","","","","","","","","","StressQ","","50","","","","","","","","","","","","","","","","","","","","","","","","","","","","",""
"5255","","<div style=""width:500px;"">
  <p>What best describes how you currently feel?</p>
  </div>","100","html-slider-response","43","638112","0.0-5.0-4.6","66","1","2025-07-16 08:30:45","1f75c3e559b7213887762d5229550c2b","216.120.189.118","Mozilla/5.0 (Windows NT 10.0; Win64; x64) AppleWebKit/537.36 (KHTML, like Gecko) Chrome/138.0.0.0 Safari/537.36","WebKit","Chrome","138.0.0.0","Windows","10.0","https://app.prolific.com/","en-US,en;q=0.9","6786c32f329b1d694103f225","68764874ac79eee8c1d4cb03","687762f0300fae7356a5e444","2","0","6786c32f329b1d694103f225","2","0","2025-07-16T08:41:26.420Z","","","","","","","","","","","MotivationQ","","50","","","","","","","","","","","","","","","","","","","","","","","","","","","","",""
"","","","","ctl-task-cpt","44","884125","0.0-5.0-0.7","66","1","2025-07-16 08:30:45","1f75c3e559b7213887762d5229550c2b","216.120.189.118","Mozilla/5.0 (Windows NT 10.0; Win64; x64) AppleWebKit/537.36 (KHTML, like Gecko) Chrome/138.0.0.0 Safari/537.36","WebKit","Chrome","138.0.0.0","Windows","10.0","https://app.prolific.com/","en-US,en;q=0.9","6786c32f329b1d694103f225","68764874ac79eee8c1d4cb03","687762f0300fae7356a5e444","2","0","6786c32f329b1d694103f225","2","0","2025-07-16T08:45:32.433Z","","","","","","","","","","","","","","win-only","0","g1:NW,g2:SE","0.3","8","0","642679.8","2198.5","7205.7","242871.5","1","4","4","6","2","4","4","29","25","0.2196969696969697","5007.2","3000","1415","[""down"",""right""]","{""num_key_presses"":32,""num_perfect"":10,""num_errors"":0,""num_randdir"":22,""num_randdir_good_moves"":10,""num_whilered"":0,""num_whileblue"":0,""num_blue"":9,""num_good_moves"":20}","[290.22232142857143,289.12857142857143,0.9,290.22232142857143,289.12857142857143,130.6,290.22232142857143,289.12857142857143,263.2,290.22232142857143,289.12857142857143,402,290.22232142857143,289.12857142857143,541.2,290.22232142857143,289.12857142857143,680.8,290.22232142857143,289.12857142857143,815.7,290.22232142857143,289.12857142857143,945.6,290.22232142857143,289.12857142857143,1082.9,290.22232142857143,289.12857142857143,1211.6,290.22232142857143,289.12857142857143,1341,290.22232142857143,289.12857142857143,1470.8,290.22232142857143,289.12857142857143,1605.8,290.22232142857143,289.12857142857143,1740.3,290.22232142857143,289.12857142857143,1866.1,290.22232142857143,289.12857142857143,1992.2,290.22232142857143,289.12857142857143,2118,290.22232142857143,289.12857142857143,2218.7,290.22232142857143,289.12857142857143,2346.1,290.22232142857143,289.12857142857143,2477.1,290.22232142857143,289.12857142857143,2609.5,290.22232142857143,289.12857142857143,2743.4,290.22232142857143,289.12857142857143,2881.5,290.22232142857143,289.12857142857143,3011.4,290.22232142857143,289.12857142857143,3160.4,290.22232142857143,289.12857142857143,3299.4,290.22232142857143,289.12857142857143,3434.4,290.22232142857143,289.12857142857143,3569.8,290.22232142857143,289.12857142857143,3710.8,290.22232142857143,289.12857142857143,3839.7,290.22232142857143,289.12857142857143,3977.2,290.22232142857143,289.12857142857143,4113.1,290.22232142857143,289.12857142857143,4214.3,290.22232142857143,289.12857142857143,4352.3,290.22232142857143,289.12857142857143,4491.7,290.22232142857143,289.12857142857143,4623.9,290.22232142857143,289.12857142857143,4731.5,290.22232142857143,289.12857142857143,4865.3]","[1611.5,1611.5,1000,0,611.5,""oops"",""right"",""up"",""bad_move"",9834.9,8209.5,3133.1,1625.4,5076.4,""oops"",""right"",""left"",""bad_move"",18179.1,8343.1,1678.3,9836,6664.8,""oops"",""down"",""down"",""good_move"",23904.7,5724.7,2158.9,21092.6,653.2,""oops"",""down"",""right"",""good_move"",27337,3431.4,2304.3,23905.6,1127.1,""smooth"",""down"",""down"",""good_move"",30674.4,3336.2,2645.6,27338.3,690.5,""oops"",""down"",""left"",""bad_move"",39842.8,9166.9,2642.9,30676,6523.9,""oops"",""down"",""up"",""bad_move"",49002,9158.3,2285.3,39843.7,6873,""smooth"",""down"",""down"",""good_move"",51899.8,2896.8,2077.6,49003,819.2,""smooth"",""down"",""down"",""good_move"",59186.5,7285,3080.6,55600.8,505.2,""oops"",""right"",""left"",""bad_move"",69840.2,10652.8,2944.7,59187.5,7708,""oops"",""left"",""up"",""bad_move"",81841.2,11991,1680.2,69850.2,10310.8,""smooth"",""down"",""down"",""good_move"",87941.9,6099.8,2315.8,84933.1,693,""smooth"",""down"",""down"",""good_move"",95388.2,7442.4,2590.3,92231.5,566.4,""smooth"",""right"",""right"",""good_move"",102304.2,6914.6,3077.4,98505.7,721.1,""oops"",""right"",""right"",""good_move"",108987.8,6682.1,2292.8,105876.5,818.5,""oops"",""right"",""left"",""bad_move"",125402.4,16413.2,2407.6,122418.3,576.5,""oops"",""right"",""up"",""bad_move"",138781.1,13377.8,2143,125403.3,11234.8,""oops"",""down"",""up"",""bad_move"",151606.8,12825.1,2932.7,138781.9,9892.3,""oops"",""right"",""up"",""bad_move"",165866.7,14243.1,2577.6,151623.6,11665.5,""oops"",""right"",""left"",""bad_move"",182922,17054.7,2295.9,179857.9,768.2,""oops"",""down"",""right"",""good_move"",186451.4,3528.6,2750.3,182922.8,778.3,""oops"",""down"",""down"",""good_move"",189137.1,2684.3,1931.8,186452.8,752.5,""smooth"",""down"",""down"",""good_move"",192165.2,3026.6,2289.7,189138.6,736.9,""oops"",""down"",""up"",""bad_move"",206175.9,14009.6,2026.5,192166.4,11983,""oops"",""right"",""right"",""good_move"",213033.6,6856.8,2420.9,210010.2,602.5,""oops"",""right"",""right"",""good_move"",216260.2,3225.6,2522.5,213034.6,703.2,""oops"",""right"",""right"",""good_move"",219177.3,2915.4,2110,216262,805.4,""smooth"",""right"",""right"",""good_move"",223677.1,4498.6,3992.9,219178.5,505.7,""smooth"",""right"",""right"",""good_move"",227339.2,3660.9,3014.6,223678.4,646.2,""oops"",""down"",""down"",""good_move"",230249,2908.5,2131.3,227340.6,777.1,""smooth"",""down"",""down"",""good_move"",233719,3468.8,2852.4,230250.2,616.5,""oops"",""down"",""down"",""good_move""]","",""
"5785","","<div style=""width:500px;"">
  <p>What determined the result of this run?</p>
  </div>","69","html-slider-response","45","889921","0.0-5.0-1.7","66","1","2025-07-16 08:30:45","1f75c3e559b7213887762d5229550c2b","216.120.189.118","Mozilla/5.0 (Windows NT 10.0; Win64; x64) AppleWebKit/537.36 (KHTML, like Gecko) Chrome/138.0.0.0 Safari/537.36","WebKit","Chrome","138.0.0.0","Windows","10.0","https://app.prolific.com/","en-US,en;q=0.9","6786c32f329b1d694103f225","68764874ac79eee8c1d4cb03","687762f0300fae7356a5e444","2","0","6786c32f329b1d694103f225","2","0","2025-07-16T08:45:38.229Z","","","","","","","","","","","AttribQ","","50","","","","","","","","","","","","","","","","","","","","","","","","","","","","",""
"8446","","<div style=""width:500px;"">
  <p>How much control did you have over the ball?</p>
  </div>","41","html-slider-response","46","898379","0.0-5.0-2.7","66","1","2025-07-16 08:30:45","1f75c3e559b7213887762d5229550c2b","216.120.189.118","Mozilla/5.0 (Windows NT 10.0; Win64; x64) AppleWebKit/537.36 (KHTML, like Gecko) Chrome/138.0.0.0 Safari/537.36","WebKit","Chrome","138.0.0.0","Windows","10.0","https://app.prolific.com/","en-US,en;q=0.9","6786c32f329b1d694103f225","68764874ac79eee8c1d4cb03","687762f0300fae7356a5e444","2","0","6786c32f329b1d694103f225","2","0","2025-07-16T08:45:46.687Z","","","","","","","","","","","ControlQ","","50","","","","","","","","","","","","","","","","","","","","","","","","","","","","",""
"11268","","<div style=""width:500px;"">
  <p>How would you describe your current emotional state?</p>
  </div>","36","html-slider-response","47","909659","0.0-5.0-3.7","66","1","2025-07-16 08:30:45","1f75c3e559b7213887762d5229550c2b","216.120.189.118","Mozilla/5.0 (Windows NT 10.0; Win64; x64) AppleWebKit/537.36 (KHTML, like Gecko) Chrome/138.0.0.0 Safari/537.36","WebKit","Chrome","138.0.0.0","Windows","10.0","https://app.prolific.com/","en-US,en;q=0.9","6786c32f329b1d694103f225","68764874ac79eee8c1d4cb03","687762f0300fae7356a5e444","2","0","6786c32f329b1d694103f225","2","0","2025-07-16T08:45:57.967Z","","","","","","","","","","","StressQ","","50","","","","","","","","","","","","","","","","","","","","","","","","","","","","",""
"4330","","<div style=""width:500px;"">
  <p>What best describes how you currently feel?</p>
  </div>","99","html-slider-response","48","914001","0.0-5.0-4.7","66","1","2025-07-16 08:30:45","1f75c3e559b7213887762d5229550c2b","216.120.189.118","Mozilla/5.0 (Windows NT 10.0; Win64; x64) AppleWebKit/537.36 (KHTML, like Gecko) Chrome/138.0.0.0 Safari/537.36","WebKit","Chrome","138.0.0.0","Windows","10.0","https://app.prolific.com/","en-US,en;q=0.9","6786c32f329b1d694103f225","68764874ac79eee8c1d4cb03","687762f0300fae7356a5e444","2","0","6786c32f329b1d694103f225","2","0","2025-07-16T08:46:02.309Z","","","","","","","","","","","MotivationQ","","50","","","","","","","","","","","","","","","","","","","","","","","","","","","","",""
"","","","","ctl-task-cpt","49","1302208","0.0-5.0-0.8","66","1","2025-07-16 08:30:45","1f75c3e559b7213887762d5229550c2b","216.120.189.118","Mozilla/5.0 (Windows NT 10.0; Win64; x64) AppleWebKit/537.36 (KHTML, like Gecko) Chrome/138.0.0.0 Safari/537.36","WebKit","Chrome","138.0.0.0","Windows","10.0","https://app.prolific.com/","en-US,en;q=0.9","6786c32f329b1d694103f225","68764874ac79eee8c1d4cb03","687762f0300fae7356a5e444","2","0","6786c32f329b1d694103f225","2","0","2025-07-16T08:52:30.517Z","","","","","","","","","","","","","","win-only","3","g1:SW,g2:NE","0.2","9","0","918529.2","2404.7","7469.2","385166.8","1","4","4","6","1","-1","-3","26","29","0.19696969696969696","5064.5","3000","-830","[""down"",""left""]","{""num_key_presses"":41,""num_perfect"":8,""num_errors"":2,""num_randdir"":31,""num_randdir_good_moves"":12,""num_whilered"":0,""num_whileblue"":0,""num_blue"":8,""num_good_moves"":20}","[295.22232142857143,291.12857142857143,0.9,295.22232142857143,291.12857142857143,151.7,295.22232142857143,291.12857142857143,352,295.22232142857143,291.12857142857143,452.2,295.22232142857143,291.12857142857143,554.9,295.22232142857143,291.12857142857143,659.5,295.22232142857143,291.12857142857143,857.2,295.22232142857143,291.12857142857143,1056.5,295.22232142857143,291.12857142857143,1249.6,295.22232142857143,291.12857142857143,1449.2,295.22232142857143,291.12857142857143,1646.9,295.22232142857143,291.12857142857143,1841,295.22232142857143,291.12857142857143,2033.9,295.22232142857143,291.12857142857143,2133.9,295.22232142857143,291.12857142857143,2236.7,295.22232142857143,291.12857142857143,2429.4,295.22232142857143,291.12857142857143,2625.6,295.22232142857143,291.12857142857143,2816.8,295.22232142857143,291.12857142857143,3008.6,295.22232142857143,291.12857142857143,3206.4,295.22232142857143,291.12857142857143,3307.4,295.22232142857143,291.12857142857143,3497.4,295.22232142857143,291.12857142857143,3600.3,295.22232142857143,291.12857142857143,3792.1,295.22232142857143,291.12857142857143,3987.2,295.22232142857143,291.12857142857143,4178,295.22232142857143,291.12857142857143,4376.4,295.22232142857143,291.12857142857143,4580.7,295.22232142857143,291.12857142857143,4773.8,295.22232142857143,291.12857142857143,4965.6]","[6350.4,6350.4,2628,2144.3,1578.1,""smooth"",""down"",""down"",""good_move"",12380.6,6029.1,2801.6,9001.4,577.6,""oops"",""down"",""up"",""bad_move"",29716.7,17335.1,2543.1,12381.6,14792,""oops"",""down"",""left"",""good_move"",47037.9,17320.5,2974.7,29717.6,14345.7,""oops"",""down"",""right"",""bad_move"",54576.8,7538,2568.1,51364.8,643.9,""smooth"",""down"",""down"",""good_move"",61121.8,6543.8,2319.9,58105.4,696.5,""oops"",""down"",""down"",""good_move"",63823.3,2700.5,1265.9,61122.8,1434.6,""oops"",""left"",""down"",""good_move"",67477.3,3652.9,3017,63824.4,635.9,""oops"",""left"",""up"",""bad_move"",79393.1,11894.2,2906,67498.9,8988.3,""error"",""-"",""-"",""no_move"",85720.7,6326.2,2976.8,80422.4,2321.5,""oops"",""left"",""up"",""bad_move"",104310.9,18589.2,1757,85721.7,16832.3,""oops"",""down"",""down"",""good_move"",108199.4,3887.7,3099.5,104311.9,788,""oops"",""down"",""right"",""bad_move"",114316.5,6114.5,2486.3,111184.9,645.3,""oops"",""down"",""left"",""good_move"",127989.4,13671,2504.9,114318.5,11166,""error"",""-"",""-"",""no_move"",137644.4,9654.1,2989.9,133939.1,715.5,""smooth"",""down"",""down"",""good_move"",141028.5,3383.1,2507.7,137645.4,875.4,""oops"",""left"",""up"",""bad_move"",160982.4,19952.8,3051,141029.7,16901.8,""oops"",""left"",""right"",""bad_move"",166089.6,5106.3,2745.7,160983.3,2360.6,""oops"",""down"",""right"",""bad_move"",169612.3,3521.4,2137.7,166090.9,1383.7,""oops"",""left"",""down"",""good_move"",173122.8,3509.3,2952.8,169613.5,556.5,""oops"",""left"",""up"",""bad_move"",192717.5,19593.4,2583.1,173124.1,17010.3,""oops"",""down"",""down"",""good_move"",196451,3732.6,2715,192718.4,1017.6,""smooth"",""down"",""down"",""good_move"",200038.2,3578.4,2913.7,196459.8,664.7,""oops"",""left"",""right"",""bad_move"",203409.5,3370.1,2801.5,200039.4,568.6,""oops"",""left"",""left"",""good_move"",223088,19677.1,2486.5,203410.9,17190.6,""oops"",""left"",""right"",""bad_move"",229807.7,6718.9,2515.6,226715.6,576.5,""oops"",""left"",""up"",""bad_move"",252632.8,22824.3,3010.3,229808.6,19813.9,""smooth"",""left"",""left"",""good_move"",276685,24051.2,2873.8,252633.8,21177.4,""smooth"",""left"",""left"",""good_move"",301044.9,24358.9,3007.9,276686,21351,""oops"",""left"",""up"",""bad_move"",319427.7,18381.8,1971.8,301045.9,16410,""oops"",""left"",""up"",""bad_move"",324762.2,5333.4,2803.1,319428.8,2530.3,""oops"",""down"",""left"",""good_move"",330876.7,6113.2,2328.3,324763.5,3784.9,""oops"",""down"",""down"",""good_move"",334181.7,3303.8,2541.7,330877.9,762.2,""smooth"",""down"",""down"",""good_move"",342059.5,7874.9,2947.7,338678.2,433.7,""smooth"",""down"",""down"",""good_move"",344763.3,2702.9,2116.9,342060.4,586,""oops"",""left"",""right"",""bad_move"",348654.7,3890.2,2646.1,344764.6,1244,""oops"",""right"",""right"",""bad_move"",351541.4,2883.9,2381.6,348657.5,502.3,""oops"",""left"",""right"",""bad_move"",355008.9,3466.3,2840.1,351542.7,626.2,""oops"",""left"",""right"",""bad_move"",357650.1,2630.1,1860.9,355020,769.2,""oops"",""left"",""left"",""good_move"",364986.6,7335.3,3205.2,357651.3,4130.1,""oops"",""left"",""right"",""bad_move"",368483.3,3493.4,2447.4,364989.9,1046,""oops"",""left"",""left"",""good_move""]","",""
"6783","","<div style=""width:500px;"">
  <p>What determined the result of this run?</p>
  </div>","24","html-slider-response","50","1308995","0.0-5.0-1.8","66","1","2025-07-16 08:30:45","1f75c3e559b7213887762d5229550c2b","216.120.189.118","Mozilla/5.0 (Windows NT 10.0; Win64; x64) AppleWebKit/537.36 (KHTML, like Gecko) Chrome/138.0.0.0 Safari/537.36","WebKit","Chrome","138.0.0.0","Windows","10.0","https://app.prolific.com/","en-US,en;q=0.9","6786c32f329b1d694103f225","68764874ac79eee8c1d4cb03","687762f0300fae7356a5e444","2","0","6786c32f329b1d694103f225","2","0","2025-07-16T08:52:37.303Z","","","","","","","","","","","AttribQ","","50","","","","","","","","","","","","","","","","","","","","","","","","","","","","",""
"3654","","<div style=""width:500px;"">
  <p>How much control did you have over the ball?</p>
  </div>","0","html-slider-response","51","1312652","0.0-5.0-2.8","66","1","2025-07-16 08:30:45","1f75c3e559b7213887762d5229550c2b","216.120.189.118","Mozilla/5.0 (Windows NT 10.0; Win64; x64) AppleWebKit/537.36 (KHTML, like Gecko) Chrome/138.0.0.0 Safari/537.36","WebKit","Chrome","138.0.0.0","Windows","10.0","https://app.prolific.com/","en-US,en;q=0.9","6786c32f329b1d694103f225","68764874ac79eee8c1d4cb03","687762f0300fae7356a5e444","2","0","6786c32f329b1d694103f225","2","0","2025-07-16T08:52:40.961Z","","","","","","","","","","","ControlQ","","50","","","","","","","","","","","","","","","","","","","","","","","","","","","","",""
"3652","","<div style=""width:500px;"">
  <p>How would you describe your current emotional state?</p>
  </div>","96","html-slider-response","52","1316309","0.0-5.0-3.8","66","1","2025-07-16 08:30:45","1f75c3e559b7213887762d5229550c2b","216.120.189.118","Mozilla/5.0 (Windows NT 10.0; Win64; x64) AppleWebKit/537.36 (KHTML, like Gecko) Chrome/138.0.0.0 Safari/537.36","WebKit","Chrome","138.0.0.0","Windows","10.0","https://app.prolific.com/","en-US,en;q=0.9","6786c32f329b1d694103f225","68764874ac79eee8c1d4cb03","687762f0300fae7356a5e444","2","0","6786c32f329b1d694103f225","2","0","2025-07-16T08:52:44.617Z","","","","","","","","","","","StressQ","","50","","","","","","","","","","","","","","","","","","","","","","","","","","","","",""
"4647","","<div style=""width:500px;"">
  <p>What best describes how you currently feel?</p>
  </div>","89","html-slider-response","53","1320961","0.0-5.0-4.8","66","1","2025-07-16 08:30:45","1f75c3e559b7213887762d5229550c2b","216.120.189.118","Mozilla/5.0 (Windows NT 10.0; Win64; x64) AppleWebKit/537.36 (KHTML, like Gecko) Chrome/138.0.0.0 Safari/537.36","WebKit","Chrome","138.0.0.0","Windows","10.0","https://app.prolific.com/","en-US,en;q=0.9","6786c32f329b1d694103f225","68764874ac79eee8c1d4cb03","687762f0300fae7356a5e444","2","0","6786c32f329b1d694103f225","2","0","2025-07-16T08:52:49.270Z","","","","","","","","","","","MotivationQ","","50","","","","","","","","","","","","","","","","","","","","","","","","","","","","",""
"","","","","ctl-task-cpt","54","1411629","0.0-5.0-0.9","66","1","2025-07-16 08:30:45","1f75c3e559b7213887762d5229550c2b","216.120.189.118","Mozilla/5.0 (Windows NT 10.0; Win64; x64) AppleWebKit/537.36 (KHTML, like Gecko) Chrome/138.0.0.0 Safari/537.36","WebKit","Chrome","138.0.0.0","Windows","10.0","https://app.prolific.com/","en-US,en;q=0.9","6786c32f329b1d694103f225","68764874ac79eee8c1d4cb03","687762f0300fae7356a5e444","2","0","6786c32f329b1d694103f225","2","0","2025-07-16T08:54:19.938Z","","","","","","","","","","","","","","win-only","3","g1:SW,g2:NE","0.4","10","0","1325482.7","2604.7","7613.2","87641.9","1","4","8","6","2","8","8","34","26","0.25757575757575757","5008.5","3000","1630","[""up"",""right""]","{""num_key_presses"":14,""num_perfect"":6,""num_errors"":0,""num_randdir"":8,""num_randdir_good_moves"":4,""num_whilered"":0,""num_whileblue"":0,""num_blue"":4,""num_good_moves"":10}","[299.22232142857143,297.12857142857143,1.3,299.22232142857143,297.12857142857143,115.5,299.22232142857143,297.12857142857143,225.6,299.22232142857143,297.12857142857143,336.8,299.22232142857143,297.12857142857143,437.1,299.22232142857143,297.12857142857143,564.9,299.22232142857143,297.12857142857143,676.6,299.22232142857143,297.12857142857143,788.6,299.22232142857143,297.12857142857143,888.8,299.22232142857143,297.12857142857143,990.8,299.22232142857143,297.12857142857143,1104.5,299.22232142857143,297.12857142857143,1205.1,299.22232142857143,297.12857142857143,1317.2,299.22232142857143,297.12857142857143,1428.3,299.22232142857143,297.12857142857143,1532.2,299.22232142857143,297.12857142857143,1646.7,299.22232142857143,297.12857142857143,1746.7,299.22232142857143,297.12857142857143,1854,299.22232142857143,297.12857142857143,1968.2,299.22232142857143,297.12857142857143,2075.8,299.22232142857143,297.12857142857143,2188.8,299.22232142857143,297.12857142857143,2296.9,299.22232142857143,297.12857142857143,2421.5,299.22232142857143,297.12857142857143,2524.5,299.22232142857143,297.12857142857143,2630.3,299.22232142857143,297.12857142857143,2746.5,299.22232142857143,297.12857142857143,2847.6,299.22232142857143,297.12857142857143,2949.5,299.22232142857143,297.12857142857143,3055.3,299.22232142857143,297.12857142857143,3169.8,299.22232142857143,297.12857142857143,3271.6,299.22232142857143,297.12857142857143,3371.7,299.22232142857143,297.12857142857143,3487.3,299.22232142857143,297.12857142857143,3601.1,299.22232142857143,297.12857142857143,3701.9,299.22232142857143,297.12857142857143,3803.9,299.22232142857143,297.12857142857143,3909.7,299.22232142857143,297.12857142857143,4016.7,299.22232142857143,297.12857142857143,4133.4,299.22232142857143,297.12857142857143,4237.4,299.22232142857143,297.12857142857143,4342.7,299.22232142857143,297.12857142857143,4447.5,299.22232142857143,297.12857142857143,4556.5,299.22232142857143,297.12857142857143,4670,299.22232142857143,297.12857142857143,4784.3,299.22232142857143,297.12857142857143,4897]","[2161.7,2161.7,1000,0,1161.7,""oops"",""right"",""down"",""bad_move"",5635.3,3471.2,2998.8,2164.1,472.4,""smooth"",""up"",""up"",""good_move"",10460.2,4823.3,2873.6,5636.9,1949.7,""smooth"",""up"",""up"",""good_move"",15646.5,5164.9,2536.2,10481.7,2628.7,""oops"",""up"",""right"",""good_move"",18947.8,3300,1800.4,15647.8,1499.7,""smooth"",""up"",""up"",""good_move"",25286.5,6336.7,1831.8,18949.8,4504.9,""oops"",""up"",""right"",""good_move"",28658.5,3371.1,2799.8,25287.4,571.4,""oops"",""up"",""left"",""bad_move"",38534.9,9874.9,1933.5,36155.3,446.1,""oops"",""up"",""right"",""good_move"",41776.7,3240.9,2468.6,38535.9,772.2,""smooth"",""up"",""up"",""good_move"",49359.2,7580.4,2158.6,41778.8,5421.8,""oops"",""right"",""left"",""bad_move"",60942.7,11582.8,2125.4,58424.2,393.1,""smooth"",""right"",""right"",""good_move"",64384.9,3441.2,2989.5,60943.7,451.8,""oops"",""right"",""left"",""bad_move"",73232.4,8845,2671.9,70136.9,423.6,""oops"",""right"",""right"",""good_move"",79205.6,5972.3,2576.4,76124.6,504.6,""smooth"",""right"",""right"",""good_move""]","",""
"2983","","<div style=""width:500px;"">
  <p>What determined the result of this run?</p>
  </div>","86","html-slider-response","55","1414616","0.0-5.0-1.9","66","1","2025-07-16 08:30:45","1f75c3e559b7213887762d5229550c2b","216.120.189.118","Mozilla/5.0 (Windows NT 10.0; Win64; x64) AppleWebKit/537.36 (KHTML, like Gecko) Chrome/138.0.0.0 Safari/537.36","WebKit","Chrome","138.0.0.0","Windows","10.0","https://app.prolific.com/","en-US,en;q=0.9","6786c32f329b1d694103f225","68764874ac79eee8c1d4cb03","687762f0300fae7356a5e444","2","0","6786c32f329b1d694103f225","2","0","2025-07-16T08:54:22.924Z","","","","","","","","","","","AttribQ","","50","","","","","","","","","","","","","","","","","","","","","","","","","","","","",""
"2767","","<div style=""width:500px;"">
  <p>How much control did you have over the ball?</p>
  </div>","86","html-slider-response","56","1417387","0.0-5.0-2.9","66","1","2025-07-16 08:30:45","1f75c3e559b7213887762d5229550c2b","216.120.189.118","Mozilla/5.0 (Windows NT 10.0; Win64; x64) AppleWebKit/537.36 (KHTML, like Gecko) Chrome/138.0.0.0 Safari/537.36","WebKit","Chrome","138.0.0.0","Windows","10.0","https://app.prolific.com/","en-US,en;q=0.9","6786c32f329b1d694103f225","68764874ac79eee8c1d4cb03","687762f0300fae7356a5e444","2","0","6786c32f329b1d694103f225","2","0","2025-07-16T08:54:25.696Z","","","","","","","","","","","ControlQ","","50","","","","","","","","","","","","","","","","","","","","","","","","","","","","",""
"3213","","<div style=""width:500px;"">
  <p>How would you describe your current emotional state?</p>
  </div>","17","html-slider-response","57","1420604","0.0-5.0-3.9","66","1","2025-07-16 08:30:45","1f75c3e559b7213887762d5229550c2b","216.120.189.118","Mozilla/5.0 (Windows NT 10.0; Win64; x64) AppleWebKit/537.36 (KHTML, like Gecko) Chrome/138.0.0.0 Safari/537.36","WebKit","Chrome","138.0.0.0","Windows","10.0","https://app.prolific.com/","en-US,en;q=0.9","6786c32f329b1d694103f225","68764874ac79eee8c1d4cb03","687762f0300fae7356a5e444","2","0","6786c32f329b1d694103f225","2","0","2025-07-16T08:54:28.913Z","","","","","","","","","","","StressQ","","50","","","","","","","","","","","","","","","","","","","","","","","","","","","","",""
"2827","","<div style=""width:500px;"">
  <p>What best describes how you currently feel?</p>
  </div>","80","html-slider-response","58","1423435","0.0-5.0-4.9","66","1","2025-07-16 08:30:45","1f75c3e559b7213887762d5229550c2b","216.120.189.118","Mozilla/5.0 (Windows NT 10.0; Win64; x64) AppleWebKit/537.36 (KHTML, like Gecko) Chrome/138.0.0.0 Safari/537.36","WebKit","Chrome","138.0.0.0","Windows","10.0","https://app.prolific.com/","en-US,en;q=0.9","6786c32f329b1d694103f225","68764874ac79eee8c1d4cb03","687762f0300fae7356a5e444","2","0","6786c32f329b1d694103f225","2","0","2025-07-16T08:54:31.744Z","","","","","","","","","","","MotivationQ","","50","","","","","","","","","","","","","","","","","","","","","","","","","","","","",""
"","","","","ctl-task-cpt","59","1485185","0.0-5.0-0.10","66","1","2025-07-16 08:30:45","1f75c3e559b7213887762d5229550c2b","216.120.189.118","Mozilla/5.0 (Windows NT 10.0; Win64; x64) AppleWebKit/537.36 (KHTML, like Gecko) Chrome/138.0.0.0 Safari/537.36","WebKit","Chrome","138.0.0.0","Windows","10.0","https://app.prolific.com/","en-US,en;q=0.9","6786c32f329b1d694103f225","68764874ac79eee8c1d4cb03","687762f0300fae7356a5e444","2","0","6786c32f329b1d694103f225","2","0","2025-07-16T08:55:33.493Z","","","","","","","","","","","","","","win-only","3","g1:SW,g2:NE","0.5","11","0","1427956.2","3216.6","8235.4","58714","1","4","8","6","2","8","8","42","34","0.3181818181818182","5018.8","3000","1995","[""up"",""right""]","{""num_key_presses"":10,""num_perfect"":5,""num_errors"":0,""num_randdir"":5,""num_randdir_good_moves"":3,""num_whilered"":0,""num_whileblue"":0,""num_blue"":3,""num_good_moves"":8}","[298.22232142857143,296.12857142857143,5.1,298.22232142857143,296.12857142857143,119,298.22232142857143,296.12857142857143,240.5,298.22232142857143,296.12857142857143,365.7,298.22232142857143,296.12857142857143,477.7,298.22232142857143,296.12857142857143,602.4,298.22232142857143,296.12857142857143,725.1,298.22232142857143,296.12857142857143,839.7,298.22232142857143,296.12857142857143,963.2,298.22232142857143,296.12857142857143,1086,298.22232142857143,296.12857142857143,1197.7,298.22232142857143,296.12857142857143,1318.4,298.22232142857143,296.12857142857143,1428.1,298.22232142857143,296.12857142857143,1548,298.22232142857143,296.12857142857143,1664.7,298.22232142857143,296.12857142857143,1777.2,298.22232142857143,296.12857142857143,1891.3,298.22232142857143,296.12857142857143,1997.3,298.22232142857143,296.12857142857143,2112.2,298.22232142857143,296.12857142857143,2223.4,298.22232142857143,296.12857142857143,2327.2,298.22232142857143,296.12857142857143,2438.9,298.22232142857143,296.12857142857143,2539.1,298.22232142857143,296.12857142857143,2644.3,298.22232142857143,296.12857142857143,2744.3,298.22232142857143,296.12857142857143,2848.4,298.22232142857143,296.12857142857143,2950,298.22232142857143,296.12857142857143,3053,298.22232142857143,296.12857142857143,3171.9,298.22232142857143,296.12857142857143,3277.3,298.22232142857143,296.12857142857143,3381.5,298.22232142857143,296.12857142857143,3501.7,298.22232142857143,296.12857142857143,3602.5,298.22232142857143,296.12857142857143,3705.6,298.22232142857143,296.12857142857143,3812.4,298.22232142857143,296.12857142857143,3915.1,298.22232142857143,296.12857142857143,4022.8,298.22232142857143,296.12857142857143,4147.7,298.22232142857143,296.12857142857143,4258,298.22232142857143,296.12857142857143,4376.2,298.22232142857143,296.12857142857143,4501.5,298.22232142857143,296.12857142857143,4606.1,298.22232142857143,296.12857142857143,4719.8,298.22232142857143,296.12857142857143,4826,298.22232142857143,296.12857142857143,4933.6]","[4741.3,4741.2,2144.2,2048.5,548.6,""smooth"",""right"",""right"",""good_move"",15396.4,10651.5,3012.5,11895.5,488.5,""oops"",""right"",""up"",""good_move"",23067,7657.2,2296.7,15409.8,5360.5,""smooth"",""right"",""right"",""good_move"",26115.1,3047.3,2436.7,23067.8,610.6,""smooth"",""right"",""right"",""good_move"",29017.8,2901.1,2312.1,26116.8,588.9,""smooth"",""up"",""up"",""good_move"",34117,5097.9,2041.2,29019.1,3056.7,""oops"",""up"",""down"",""bad_move"",37389.9,3271.4,2640.4,34118.5,631,""oops"",""up"",""left"",""bad_move"",41754.1,4353.8,2824.9,37400.3,1528.9,""oops"",""right"",""right"",""good_move"",44583.5,2827.6,2332.5,41755.9,495.1,""smooth"",""up"",""up"",""good_move"",49962.4,5374.7,1678.4,44587.7,3696.3,""oops"",""up"",""up"",""good_move""]","",""
"4420","","<div style=""width:500px;"">
  <p>What determined the result of this run?</p>
  </div>","93","html-slider-response","60","1489608","0.0-5.0-1.10","66","1","2025-07-16 08:30:45","1f75c3e559b7213887762d5229550c2b","216.120.189.118","Mozilla/5.0 (Windows NT 10.0; Win64; x64) AppleWebKit/537.36 (KHTML, like Gecko) Chrome/138.0.0.0 Safari/537.36","WebKit","Chrome","138.0.0.0","Windows","10.0","https://app.prolific.com/","en-US,en;q=0.9","6786c32f329b1d694103f225","68764874ac79eee8c1d4cb03","687762f0300fae7356a5e444","2","0","6786c32f329b1d694103f225","2","0","2025-07-16T08:55:37.916Z","","","","","","","","","","","AttribQ","","50","","","","","","","","","","","","","","","","","","","","","","","","","","","","",""
"7392","","<div style=""width:500px;"">
  <p>How much control did you have over the ball?</p>
  </div>","76","html-slider-response","61","1497003","0.0-5.0-2.10","66","1","2025-07-16 08:30:45","1f75c3e559b7213887762d5229550c2b","216.120.189.118","Mozilla/5.0 (Windows NT 10.0; Win64; x64) AppleWebKit/537.36 (KHTML, like Gecko) Chrome/138.0.0.0 Safari/537.36","WebKit","Chrome","138.0.0.0","Windows","10.0","https://app.prolific.com/","en-US,en;q=0.9","6786c32f329b1d694103f225","68764874ac79eee8c1d4cb03","687762f0300fae7356a5e444","2","0","6786c32f329b1d694103f225","2","0","2025-07-16T08:55:45.311Z","","","","","","","","","","","ControlQ","","50","","","","","","","","","","","","","","","","","","","","","","","","","","","","",""
"3843","","<div style=""width:500px;"">
  <p>How would you describe your current emotional state?</p>
  </div>","5","html-slider-response","62","1500850","0.0-5.0-3.10","66","1","2025-07-16 08:30:45","1f75c3e559b7213887762d5229550c2b","216.120.189.118","Mozilla/5.0 (Windows NT 10.0; Win64; x64) AppleWebKit/537.36 (KHTML, like Gecko) Chrome/138.0.0.0 Safari/537.36","WebKit","Chrome","138.0.0.0","Windows","10.0","https://app.prolific.com/","en-US,en;q=0.9","6786c32f329b1d694103f225","68764874ac79eee8c1d4cb03","687762f0300fae7356a5e444","2","0","6786c32f329b1d694103f225","2","0","2025-07-16T08:55:49.159Z","","","","","","","","","","","StressQ","","50","","","","","","","","","","","","","","","","","","","","","","","","","","","","",""
"3753","","<div style=""width:500px;"">
  <p>What best describes how you currently feel?</p>
  </div>","77","html-slider-response","63","1504607","0.0-5.0-4.10","66","1","2025-07-16 08:30:45","1f75c3e559b7213887762d5229550c2b","216.120.189.118","Mozilla/5.0 (Windows NT 10.0; Win64; x64) AppleWebKit/537.36 (KHTML, like Gecko) Chrome/138.0.0.0 Safari/537.36","WebKit","Chrome","138.0.0.0","Windows","10.0","https://app.prolific.com/","en-US,en;q=0.9","6786c32f329b1d694103f225","68764874ac79eee8c1d4cb03","687762f0300fae7356a5e444","2","0","6786c32f329b1d694103f225","2","0","2025-07-16T08:55:52.916Z","","","","","","","","","","","MotivationQ","","50","","","","","","","","","","","","","","","","","","","","","","","","","","","","",""
"","","","","ctl-task-cpt","64","1571547","0.0-5.0-0.11","66","1","2025-07-16 08:30:45","1f75c3e559b7213887762d5229550c2b","216.120.189.118","Mozilla/5.0 (Windows NT 10.0; Win64; x64) AppleWebKit/537.36 (KHTML, like Gecko) Chrome/138.0.0.0 Safari/537.36","WebKit","Chrome","138.0.0.0","Windows","10.0","https://app.prolific.com/","en-US,en;q=0.9","6786c32f329b1d694103f225","68764874ac79eee8c1d4cb03","687762f0300fae7356a5e444","2","0","6786c32f329b1d694103f225","2","0","2025-07-16T08:56:59.856Z","","","","","","","","","","","","","","win-only","2","g1:SE,g2:NW","0.6","12","0","1509129.6","2234.9","7267.6","63845","1","4","4","6","1","1","1","43","42","0.32575757575757575","5032.7","3000","2030","[""down"",""right""]","{""num_key_presses"":8,""num_perfect"":5,""num_errors"":0,""num_randdir"":3,""num_randdir_good_moves"":1,""num_whilered"":0,""num_whileblue"":0,""num_blue"":3,""num_good_moves"":6}","[293.22232142857143,299.12857142857143,1.1,293.22232142857143,299.12857142857143,114.9,293.22232142857143,299.12857142857143,216.5,293.22232142857143,299.12857142857143,354.8,293.22232142857143,299.12857142857143,492.4,293.22232142857143,299.12857142857143,629.6,293.22232142857143,299.12857142857143,758.3,293.22232142857143,299.12857142857143,889.8,293.22232142857143,299.12857142857143,1025.3,293.22232142857143,299.12857142857143,1159.1,293.22232142857143,299.12857142857143,1298,293.22232142857143,299.12857142857143,1426.1,293.22232142857143,299.12857142857143,1555,293.22232142857143,299.12857142857143,1679.6,293.22232142857143,299.12857142857143,1811.5,293.22232142857143,299.12857142857143,1939.2,293.22232142857143,299.12857142857143,2064.9,293.22232142857143,299.12857142857143,2165,293.22232142857143,299.12857142857143,2266.5,293.22232142857143,299.12857142857143,2394.3,293.22232142857143,299.12857142857143,2525.4,293.22232142857143,299.12857142857143,2653.7,293.22232142857143,299.12857142857143,2787,293.22232142857143,299.12857142857143,2914.6,293.22232142857143,299.12857142857143,3043.6,293.22232142857143,299.12857142857143,3194.9,293.22232142857143,299.12857142857143,3334.6,293.22232142857143,299.12857142857143,3464.2,293.22232142857143,299.12857142857143,3595.8,293.22232142857143,299.12857142857143,3728.2,293.22232142857143,299.12857142857143,3858.1,293.22232142857143,299.12857142857143,3990.1,293.22232142857143,299.12857142857143,4129.4,293.22232142857143,299.12857142857143,4268.7,293.22232142857143,299.12857142857143,4400.3,293.22232142857143,299.12857142857143,4533.3,293.22232142857143,299.12857142857143,4664.8,293.22232142857143,299.12857142857143,4797.5,293.22232142857143,299.12857142857143,4941.6]","[1575.7,1575.8,1000,0,575.8,""smooth"",""right"",""right"",""good_move"",5034.7,3448.6,2603.1,1586.1,845.5,""oops"",""right"",""up"",""bad_move"",17938.4,12902.7,2372.4,14428.9,1137.1,""smooth"",""down"",""down"",""good_move"",24722.1,6782.9,2504.2,21197.7,1020.2,""oops"",""down"",""left"",""bad_move"",41989.3,17266.3,2446.8,36294.7,3247.8,""smooth"",""down"",""down"",""good_move"",46254.7,4264.5,2298.8,41990.3,1965.6,""oops"",""down"",""down"",""good_move"",50195.9,3939.9,2034.7,46256.1,1905.2,""smooth"",""right"",""right"",""good_move"",54881.7,4684.4,2787.8,50197.3,1896.6,""smooth"",""right"",""right"",""good_move""]","",""
"4845","","<div style=""width:500px;"">
  <p>What determined the result of this run?</p>
  </div>","98","html-slider-response","65","1576400","0.0-5.0-1.11","66","1","2025-07-16 08:30:45","1f75c3e559b7213887762d5229550c2b","216.120.189.118","Mozilla/5.0 (Windows NT 10.0; Win64; x64) AppleWebKit/537.36 (KHTML, like Gecko) Chrome/138.0.0.0 Safari/537.36","WebKit","Chrome","138.0.0.0","Windows","10.0","https://app.prolific.com/","en-US,en;q=0.9","6786c32f329b1d694103f225","68764874ac79eee8c1d4cb03","687762f0300fae7356a5e444","2","0","6786c32f329b1d694103f225","2","0","2025-07-16T08:57:04.709Z","","","","","","","","","","","AttribQ","","50","","","","","","","","","","","","","","","","","","","","","","","","","","","","",""
"3432","","<div style=""width:500px;"">
  <p>How much control did you have over the ball?</p>
  </div>","79","html-slider-response","66","1579840","0.0-5.0-2.11","66","1","2025-07-16 08:30:45","1f75c3e559b7213887762d5229550c2b","216.120.189.118","Mozilla/5.0 (Windows NT 10.0; Win64; x64) AppleWebKit/537.36 (KHTML, like Gecko) Chrome/138.0.0.0 Safari/537.36","WebKit","Chrome","138.0.0.0","Windows","10.0","https://app.prolific.com/","en-US,en;q=0.9","6786c32f329b1d694103f225","68764874ac79eee8c1d4cb03","687762f0300fae7356a5e444","2","0","6786c32f329b1d694103f225","2","0","2025-07-16T08:57:08.149Z","","","","","","","","","","","ControlQ","","50","","","","","","","","","","","","","","","","","","","","","","","","","","","","",""
"4180","","<div style=""width:500px;"">
  <p>How would you describe your current emotional state?</p>
  </div>","21","html-slider-response","67","1584029","0.0-5.0-3.11","66","1","2025-07-16 08:30:45","1f75c3e559b7213887762d5229550c2b","216.120.189.118","Mozilla/5.0 (Windows NT 10.0; Win64; x64) AppleWebKit/537.36 (KHTML, like Gecko) Chrome/138.0.0.0 Safari/537.36","WebKit","Chrome","138.0.0.0","Windows","10.0","https://app.prolific.com/","en-US,en;q=0.9","6786c32f329b1d694103f225","68764874ac79eee8c1d4cb03","687762f0300fae7356a5e444","2","0","6786c32f329b1d694103f225","2","0","2025-07-16T08:57:12.337Z","","","","","","","","","","","StressQ","","50","","","","","","","","","","","","","","","","","","","","","","","","","","","","",""
"3691","","<div style=""width:500px;"">
  <p>What best describes how you currently feel?</p>
  </div>","74","html-slider-response","68","1587727","0.0-5.0-4.11","66","1","2025-07-16 08:30:45","1f75c3e559b7213887762d5229550c2b","216.120.189.118","Mozilla/5.0 (Windows NT 10.0; Win64; x64) AppleWebKit/537.36 (KHTML, like Gecko) Chrome/138.0.0.0 Safari/537.36","WebKit","Chrome","138.0.0.0","Windows","10.0","https://app.prolific.com/","en-US,en;q=0.9","6786c32f329b1d694103f225","68764874ac79eee8c1d4cb03","687762f0300fae7356a5e444","2","0","6786c32f329b1d694103f225","2","0","2025-07-16T08:57:16.035Z","","","","","","","","","","","MotivationQ","","50","","","","","","","","","","","","","","","","","","","","","","","","","","","","",""
"","","","","ctl-task-cpt","69","1662074","0.0-5.0-0.12","66","1","2025-07-16 08:30:45","1f75c3e559b7213887762d5229550c2b","216.120.189.118","Mozilla/5.0 (Windows NT 10.0; Win64; x64) AppleWebKit/537.36 (KHTML, like Gecko) Chrome/138.0.0.0 Safari/537.36","WebKit","Chrome","138.0.0.0","Windows","10.0","https://app.prolific.com/","en-US,en;q=0.9","6786c32f329b1d694103f225","68764874ac79eee8c1d4cb03","687762f0300fae7356a5e444","2","0","6786c32f329b1d694103f225","2","0","2025-07-16T08:58:30.383Z","","","","","","","","","","","","","","win-only","3","g1:SW,g2:NE","0.7","13","0","1592250.6","1982.3","7017.5","71304.6","1","4","4","6","2","4","4","47","43","0.3560606060606061","5035.2","3000","2205","[""up"",""right""]","{""num_key_presses"":6,""num_perfect"":5,""num_errors"":0,""num_randdir"":1,""num_randdir_good_moves"":1,""num_whilered"":0,""num_whileblue"":0,""num_blue"":3,""num_good_moves"":6}","[297.22232142857143,295.12857142857143,0.8,297.22232142857143,295.12857142857143,110.4,297.22232142857143,295.12857142857143,287.5,297.22232142857143,295.12857142857143,387.7,297.22232142857143,295.12857142857143,556.3,297.22232142857143,295.12857142857143,722.8,297.22232142857143,295.12857142857143,887.1,297.22232142857143,295.12857142857143,1052.6,297.22232142857143,295.12857142857143,1233.3,297.22232142857143,295.12857142857143,1409.2,297.22232142857143,295.12857142857143,1569.7,297.22232142857143,295.12857142857143,1729.2,297.22232142857143,295.12857142857143,1891.1,297.22232142857143,295.12857142857143,2057.1,297.22232142857143,295.12857142857143,2223.4,297.22232142857143,295.12857142857143,2394.3,297.22232142857143,295.12857142857143,2553,297.22232142857143,295.12857142857143,2714.7,297.22232142857143,295.12857142857143,2880.2,297.22232142857143,295.12857142857143,3042.1,297.22232142857143,295.12857142857143,3217.5,297.22232142857143,295.12857142857143,3390,297.22232142857143,295.12857142857143,3551.1,297.22232142857143,295.12857142857143,3713.9,297.22232142857143,295.12857142857143,3876.8,297.22232142857143,295.12857142857143,4036.8,297.22232142857143,295.12857142857143,4211,297.22232142857143,295.12857142857143,4379.5,297.22232142857143,295.12857142857143,4543.3,297.22232142857143,295.12857142857143,4711.7,297.22232142857143,295.12857142857143,4869.6]","[2403.6,2403.6,1000,0,1403.6,""smooth"",""up"",""up"",""good_move"",17525.3,15120.2,3848.1,2405.3,11272,""smooth"",""up"",""up"",""good_move"",39617.4,22091.2,2861.8,17526.3,19229.4,""smooth"",""right"",""right"",""good_move"",44390.9,4772.5,2363,39618.4,2409.5,""oops"",""right"",""right"",""good_move"",51033.1,6640.9,2477.5,47979.4,576.2,""smooth"",""up"",""up"",""good_move"",63465.8,12431.3,2079.2,60767.5,619.1,""smooth"",""right"",""right"",""good_move""]","",""
"6013","","<div style=""width:500px;"">
  <p>What determined the result of this run?</p>
  </div>","80","html-slider-response","70","1668091","0.0-5.0-1.12","66","1","2025-07-16 08:30:45","1f75c3e559b7213887762d5229550c2b","216.120.189.118","Mozilla/5.0 (Windows NT 10.0; Win64; x64) AppleWebKit/537.36 (KHTML, like Gecko) Chrome/138.0.0.0 Safari/537.36","WebKit","Chrome","138.0.0.0","Windows","10.0","https://app.prolific.com/","en-US,en;q=0.9","6786c32f329b1d694103f225","68764874ac79eee8c1d4cb03","687762f0300fae7356a5e444","2","0","6786c32f329b1d694103f225","2","0","2025-07-16T08:58:36.399Z","","","","","","","","","","","AttribQ","","50","","","","","","","","","","","","","","","","","","","","","","","","","","","","",""
"2847","","<div style=""width:500px;"">
  <p>How much control did you have over the ball?</p>
  </div>","88","html-slider-response","71","1670942","0.0-5.0-2.12","66","1","2025-07-16 08:30:45","1f75c3e559b7213887762d5229550c2b","216.120.189.118","Mozilla/5.0 (Windows NT 10.0; Win64; x64) AppleWebKit/537.36 (KHTML, like Gecko) Chrome/138.0.0.0 Safari/537.36","WebKit","Chrome","138.0.0.0","Windows","10.0","https://app.prolific.com/","en-US,en;q=0.9","6786c32f329b1d694103f225","68764874ac79eee8c1d4cb03","687762f0300fae7356a5e444","2","0","6786c32f329b1d694103f225","2","0","2025-07-16T08:58:39.251Z","","","","","","","","","","","ControlQ","","50","","","","","","","","","","","","","","","","","","","","","","","","","","","","",""
"5915","","<div style=""width:500px;"">
  <p>How would you describe your current emotional state?</p>
  </div>","61","html-slider-response","72","1676863","0.0-5.0-3.12","66","1","2025-07-16 08:30:45","1f75c3e559b7213887762d5229550c2b","216.120.189.118","Mozilla/5.0 (Windows NT 10.0; Win64; x64) AppleWebKit/537.36 (KHTML, like Gecko) Chrome/138.0.0.0 Safari/537.36","WebKit","Chrome","138.0.0.0","Windows","10.0","https://app.prolific.com/","en-US,en;q=0.9","6786c32f329b1d694103f225","68764874ac79eee8c1d4cb03","687762f0300fae7356a5e444","2","0","6786c32f329b1d694103f225","2","0","2025-07-16T08:58:45.171Z","","","","","","","","","","","StressQ","","50","","","","","","","","","","","","","","","","","","","","","","","","","","","","",""
"4468","","<div style=""width:500px;"">
  <p>What best describes how you currently feel?</p>
  </div>","89","html-slider-response","73","1681335","0.0-5.0-4.12","66","1","2025-07-16 08:30:45","1f75c3e559b7213887762d5229550c2b","216.120.189.118","Mozilla/5.0 (Windows NT 10.0; Win64; x64) AppleWebKit/537.36 (KHTML, like Gecko) Chrome/138.0.0.0 Safari/537.36","WebKit","Chrome","138.0.0.0","Windows","10.0","https://app.prolific.com/","en-US,en;q=0.9","6786c32f329b1d694103f225","68764874ac79eee8c1d4cb03","687762f0300fae7356a5e444","2","0","6786c32f329b1d694103f225","2","0","2025-07-16T08:58:49.643Z","","","","","","","","","","","MotivationQ","","50","","","","","","","","","","","","","","","","","","","","","","","","","","","","",""
