"rt","response_timestamp","stimulus","response","trial_type","trial_index","time_elapsed","internal_node_id","run_id","condition","recorded_at","source_code_version","ip","user_agent","device","browser","browser_version","platform","platform_version","referer","accept_language","PROLIFIC_PID","STUDY_ID","SESSION_ID","WEEK","BATCH","prolific_id","week","batch","realtime","success","responses","item_order","radio_event_ids","radio_event_times","key_event_times","mouse_event_times","straightlining","zigzagging","honeypot","eventType","view_history","slider_start","which_type","canvas_config","goals_layout","control_level","trial_number","tutorial_trial_number","trial_start_time","phase1_start_time","phase2_start_time","phase3_start_time","goal_1_value","goal_1_distance","goal_2_value","goal_2_distance","goal_selected","outcome","outcome_total","participant_final_score","participant_initial_score","participant_final_score_prop","goal_choice_rt","allocated_time","allocated_time_remaining","goal_direction","counts","mouse_movements","key_presses","question_order","question_id"
"8080","1752654334986","<p style='font-size:40px;line-height:1.25'><strong>Welcome to the experiment!</strong></p><p style='font-size:1.1em;line-height:1.25'>Thank you for participanting in our experiment again! You will be asked to play the Dysfunctional Ball Game again. We will briefly recap the rules before we start.</p><p style='font-size:1.1em;line-height:1.25'>Press <strong>Next</strong> to continue.</p>","0","custom-html-button-response","0","8083","0.0-0.0","58","1","2025-07-16 08:25:24","1f75c3e559b7213887762d5229550c2b","136.185.210.208","Mozilla/5.0 (Windows NT 10.0; Win64; x64) AppleWebKit/537.36 (KHTML, like Gecko) Chrome/137.0.0.0 Safari/537.36","WebKit","Chrome","137.0.0.0","Windows","10.0","https://app.prolific.com/","en-US,en;q=0.9","664b3888f484550fe6d377bc","686e379bc37a29ffa5cdc956","687761a00701d5b07a938bed","1","1","664b3888f484550fe6d377bc","1","1","2025-07-16T08:25:34.987Z","","","","","","","","","","","","","","","","","","","","","","","","","","","","","","","","","","","","","","","","","",""
"3357","","","","fullscreen","1","12448","0.0-1.0","58","1","2025-07-16 08:25:24","1f75c3e559b7213887762d5229550c2b","136.185.210.208","Mozilla/5.0 (Windows NT 10.0; Win64; x64) AppleWebKit/537.36 (KHTML, like Gecko) Chrome/137.0.0.0 Safari/537.36","WebKit","Chrome","137.0.0.0","Windows","10.0","https://app.prolific.com/","en-US,en;q=0.9","664b3888f484550fe6d377bc","686e379bc37a29ffa5cdc956","687761a00701d5b07a938bed","1","1","664b3888f484550fe6d377bc","1","1","","true","","","","","","","","","","","","","","","","","","","","","","","","","","","","","","","","","","","","","","","","",""
"961","1752654340314","<p style='font-size:1.1em;line-height:1.25'>In the following, we will ask you a few questions relating to your feelings in the last 24 hours.<br></p><p style='font-size:1.1em;line-height:1.25'>Press the <strong>Next</strong> button to continue.</p>","0","custom-html-button-response","2","13410","0.0-2.0-0.0","58","1","2025-07-16 08:25:24","1f75c3e559b7213887762d5229550c2b","136.185.210.208","Mozilla/5.0 (Windows NT 10.0; Win64; x64) AppleWebKit/537.36 (KHTML, like Gecko) Chrome/137.0.0.0 Safari/537.36","WebKit","Chrome","137.0.0.0","Windows","10.0","https://app.prolific.com/","en-US,en;q=0.9","664b3888f484550fe6d377bc","686e379bc37a29ffa5cdc956","687761a00701d5b07a938bed","1","1","664b3888f484550fe6d377bc","1","1","2025-07-16T08:25:40.314Z","","","","","","","","","","","","","","","","","","","","","","","","","","","","","","","","","","","","","","","","","",""
"102857.80000007153","","","","survey-template","3","116274","0.0-2.0-1.0","58","1","2025-07-16 08:25:24","1f75c3e559b7213887762d5229550c2b","136.185.210.208","Mozilla/5.0 (Windows NT 10.0; Win64; x64) AppleWebKit/537.36 (KHTML, like Gecko) Chrome/137.0.0.0 Safari/537.36","WebKit","Chrome","137.0.0.0","Windows","10.0","https://app.prolific.com/","en-US,en;q=0.9","664b3888f484550fe6d377bc","686e379bc37a29ffa5cdc956","687761a00701d5b07a938bed","1","1","664b3888f484550fe6d377bc","1","1","2025-07-16T08:27:23.178Z","","{""Q01"":""3"",""Q02"":""3"",""Q03"":""1"",""Q04"":""4"",""Q05"":""3"",""Q06"":""4"",""Q07"":""5"",""Q08"":""2"",""Q09"":""4"",""Q10"":""3"",""Q11"":""3"",""Q12"":""4"",""Q13"":""5"",""Q14"":""0"",""Q15"":""1"",""Q16"":""2"",""Q17"":""3"",""Q18"":""3"",""Q19"":""2"",""Q20"":""2"",""Q21"":""2"",""Q22"":""2""}","[0,1,2,3,4,5,6,7,8,9,10,11,12,13,14,15,16,17,18,19,20,21]","[""Q01"",""Q02"",""Q03"",""Q04"",""Q05"",""Q06"",""Q07"",""Q08"",""Q09"",""Q10"",""Q11"",""Q12"",""Q13"",""Q14"",""Q15"",""Q16"",""Q17"",""Q18"",""Q19"",""Q20"",""Q21"",""Q22""]","[5813,7811.800000071526,8996.300000071526,10164.100000023842,11852.399999976158,15156.300000071526,16003.300000071526,18003.700000047684,20323.399999976158,22700.200000047684,24787.300000071526,26643.700000047684,29427.700000047684,33420.300000071526,37563.300000071526,41443.10000002384,42956.300000071526,44956.200000047684,90716.10000002384,96683.70000004768,101027.60000002384,102235.89999997616]","[]","[0.20000004768371582,5813,7012.399999976158,7811.800000071526,8996.300000071526,10164.100000023842,11852.399999976158,13924.100000023842,14811.200000047684,15156.300000071526,16003.300000071526,17564.600000023842,18003.700000047684,20323.399999976158,22700.200000047684,24787.300000071526,25660.700000047684,26643.700000047684,28804.200000047684,29427.700000047684,33420.300000071526,36267.5,37563.300000071526,38323.800000071526,39674.800000071526,41443.10000002384,42956.300000071526,44052.10000002384,44956.200000047684,45643.60000002384,90716.10000002384,96683.70000004768,99508.30000007153,101027.60000002384,102235.89999997616,102852.5]","0.3181818181818182","0.5238095238095238","0","drsp","","","","","","","","","","","","","","","","","","","","","","","","","","","","","","",""
"11613.299999952316","","","","survey-template","4","127890","0.0-2.0-2.0","58","1","2025-07-16 08:25:24","1f75c3e559b7213887762d5229550c2b","136.185.210.208","Mozilla/5.0 (Windows NT 10.0; Win64; x64) AppleWebKit/537.36 (KHTML, like Gecko) Chrome/137.0.0.0 Safari/537.36","WebKit","Chrome","137.0.0.0","Windows","10.0","https://app.prolific.com/","en-US,en;q=0.9","664b3888f484550fe6d377bc","686e379bc37a29ffa5cdc956","687761a00701d5b07a938bed","1","1","664b3888f484550fe6d377bc","1","1","2025-07-16T08:27:34.794Z","","{""Q01"":""4"",""Q02"":""4"",""Q03"":""2""}","[0,1,2]","[""Q01"",""Q02"",""Q03""]","[3324.899999976158,7365.799999952316,10629]","[]","[3324.899999976158,7365.799999952316,10629,11612.600000023842]","0.3333333333333333","0.5","0","stress","","","","","","","","","","","","","","","","","","","","","","","","","","","","","","",""
"29559","","","","instructions","5","157450","0.0-3.0-0.0","58","1","2025-07-16 08:25:24","1f75c3e559b7213887762d5229550c2b","136.185.210.208","Mozilla/5.0 (Windows NT 10.0; Win64; x64) AppleWebKit/537.36 (KHTML, like Gecko) Chrome/137.0.0.0 Safari/537.36","WebKit","Chrome","137.0.0.0","Windows","10.0","https://app.prolific.com/","en-US,en;q=0.9","664b3888f484550fe6d377bc","686e379bc37a29ffa5cdc956","687761a00701d5b07a938bed","1","1","664b3888f484550fe6d377bc","1","1","","","","","","","","","","","","","[{""page_index"":0,""viewing_time"":29559}]","","","","","","","","","","","","","","","","","","","","","","","","","","","","","",""
"5006","","<p>Before you start with this game please answer the following three questions yourself. </p>
  <p>Through this game, we measure several aspects of your cognitive performance, such as reaction times, multi-tasking capabilities </p>
  <p>and the ability to assess the situation you are in.</p>
  <p></p>
  <p><b>How good do you usually are in such tasks?</b></p>","81","html-slider-response","6","162458","0.0-4.0-0.0","58","1","2025-07-16 08:25:24","1f75c3e559b7213887762d5229550c2b","136.185.210.208","Mozilla/5.0 (Windows NT 10.0; Win64; x64) AppleWebKit/537.36 (KHTML, like Gecko) Chrome/137.0.0.0 Safari/537.36","WebKit","Chrome","137.0.0.0","Windows","10.0","https://app.prolific.com/","en-US,en;q=0.9","664b3888f484550fe6d377bc","686e379bc37a29ffa5cdc956","687761a00701d5b07a938bed","1","1","664b3888f484550fe6d377bc","1","1","2025-07-16T08:28:09.362Z","","","","","","","","","","","PreSkillQ","","50","","","","","","","","","","","","","","","","","","","","","","","","","","","","",""
"2165","","<div style=""width:500px;"">
  <p>How well do you think you will perform in this task compared to other participants?</p>
  </div>","62","html-slider-response","7","164624","0.0-4.0-1.0","58","1","2025-07-16 08:25:24","1f75c3e559b7213887762d5229550c2b","136.185.210.208","Mozilla/5.0 (Windows NT 10.0; Win64; x64) AppleWebKit/537.36 (KHTML, like Gecko) Chrome/137.0.0.0 Safari/537.36","WebKit","Chrome","137.0.0.0","Windows","10.0","https://app.prolific.com/","en-US,en;q=0.9","664b3888f484550fe6d377bc","686e379bc37a29ffa5cdc956","687761a00701d5b07a938bed","1","1","664b3888f484550fe6d377bc","1","1","2025-07-16T08:28:11.529Z","","","","","","","","","","","PrePerfQ","","50","","","","","","","","","","","","","","","","","","","","","","","","","","","","",""
"1487","","<div style=""width:500px;"">
  <p>What best describes how you currently feel?</p>
  </div>","67","html-slider-response","8","166113","0.0-4.0-2.0","58","1","2025-07-16 08:25:24","1f75c3e559b7213887762d5229550c2b","136.185.210.208","Mozilla/5.0 (Windows NT 10.0; Win64; x64) AppleWebKit/537.36 (KHTML, like Gecko) Chrome/137.0.0.0 Safari/537.36","WebKit","Chrome","137.0.0.0","Windows","10.0","https://app.prolific.com/","en-US,en;q=0.9","664b3888f484550fe6d377bc","686e379bc37a29ffa5cdc956","687761a00701d5b07a938bed","1","1","664b3888f484550fe6d377bc","1","1","2025-07-16T08:28:13.017Z","","","","","","","","","","","PreMotivationQ","","50","","","","","","","","","","","","","","","","","","","","","","","","","","","","",""
"","","","","ctl-task-cpt","9","199963","0.0-5.0-0.0","58","1","2025-07-16 08:25:24","1f75c3e559b7213887762d5229550c2b","136.185.210.208","Mozilla/5.0 (Windows NT 10.0; Win64; x64) AppleWebKit/537.36 (KHTML, like Gecko) Chrome/137.0.0.0 Safari/537.36","WebKit","Chrome","137.0.0.0","Windows","10.0","https://app.prolific.com/","en-US,en;q=0.9","664b3888f484550fe6d377bc","686e379bc37a29ffa5cdc956","687761a00701d5b07a938bed","1","1","664b3888f484550fe6d377bc","1","1","2025-07-16T08:28:46.867Z","","","","","","","","","","","","","","win-only","2","g1:SE,g2:NW","1","1","0","170431.9","2719.5","7723.9","30844.5","1","4","8","6","2","8","8","8","0","0.06060606060606061","1214.4","3000","1230","[""left"",""up""]","{""num_key_presses"":6,""num_perfect"":6,""num_errors"":0,""num_randdir"":0,""num_randdir_good_moves"":0,""num_whilered"":0,""num_whileblue"":0,""num_blue"":2,""num_good_moves"":6}","[419.0714133126395,424.07142761775424,0.2,419.0714133126395,424.07142761775424,120.9,419.0714133126395,424.07142761775424,224.4,419.0714133126395,424.07142761775424,331.7,419.0714133126395,424.07142761775424,432,419.0714133126395,424.07142761775424,533.4,419.0714133126395,435.32142761775424,637.4,396.5714133126395,447.82142761775424,741.4,245.3214133126395,296.57142761775424,841.6,166.5714133126395,181.57142761775424,949,86.5714133126395,76.57142761775425,1052.6,69.0714133126395,59.07142761775425,1162.4,69.0714133126395,59.07142761775425,1264.2,69.0714133126395,59.07142761775425,1367.8,69.0714133126395,59.07142761775425,1470.3,69.0714133126395,59.07142761775425,1574.9,69.0714133126395,59.07142761775425,1679.4,69.0714133126395,59.07142761775425,1781.2,69.0714133126395,59.07142761775425,1885.8,69.0714133126395,59.07142761775425,1986,69.0714133126395,59.07142761775425,2088.3,69.0714133126395,59.07142761775425,2192.4,69.0714133126395,59.07142761775425,2297.2,69.0714133126395,59.07142761775425,2403.6,69.0714133126395,59.07142761775425,2505,69.0714133126395,59.07142761775425,2607.3,69.0714133126395,59.07142761775425,2710.5,69.0714133126395,59.07142761775425,2813.1,69.0714133126395,59.07142761775425,2922.8,69.0714133126395,59.07142761775425,3029.2,69.0714133126395,59.07142761775425,3133.7,69.0714133126395,59.07142761775425,3236.9,69.0714133126395,59.07142761775425,3345.3,69.0714133126395,59.07142761775425,3446.7,69.0714133126395,59.07142761775425,3546.9,69.0714133126395,59.07142761775425,3647.7,69.0714133126395,59.07142761775425,3758.3,69.0714133126395,59.07142761775425,3858.7,69.0714133126395,59.07142761775425,3959.6,69.0714133126395,59.07142761775425,4062.9,69.0714133126395,59.07142761775425,4163.6,69.0714133126395,59.07142761775425,4264,69.0714133126395,59.07142761775425,4371.6,69.0714133126395,59.07142761775425,4479.3,69.0714133126395,59.07142761775425,4582.9,69.0714133126395,59.07142761775425,4689.7,69.0714133126395,59.07142761775425,4795.9,69.0714133126395,59.07142761775425,4896.8]","[1474.8,1474.9,1000,0,474.9,""smooth"",""left"",""left"",""good_move"",4491.8,3016.3,2584.1,1475.5,432.2,""smooth"",""left"",""left"",""good_move"",7723.9,3231.6,2846.1,4492.3,385.5,""smooth"",""left"",""left"",""good_move"",16481.5,8757.3,1704.4,14377.8,399.3,""smooth"",""up"",""up"",""good_move"",19659,3177,2696.6,16482,480.4,""smooth"",""up"",""up"",""good_move"",22989.7,3330.3,2912.8,19659.4,417.5,""smooth"",""up"",""up"",""good_move""]","",""
"5613","","<div style=""width:500px;"">
  <p>What determined the result of this run?</p>
  </div>","98","html-slider-response","10","205577","0.0-5.0-1.0","58","1","2025-07-16 08:25:24","1f75c3e559b7213887762d5229550c2b","136.185.210.208","Mozilla/5.0 (Windows NT 10.0; Win64; x64) AppleWebKit/537.36 (KHTML, like Gecko) Chrome/137.0.0.0 Safari/537.36","WebKit","Chrome","137.0.0.0","Windows","10.0","https://app.prolific.com/","en-US,en;q=0.9","664b3888f484550fe6d377bc","686e379bc37a29ffa5cdc956","687761a00701d5b07a938bed","1","1","664b3888f484550fe6d377bc","1","1","2025-07-16T08:28:52.482Z","","","","","","","","","","","AttribQ","","50","","","","","","","","","","","","","","","","","","","","","","","","","","","","",""
"2806","","<div style=""width:500px;"">
  <p>How much control did you have over the ball?</p>
  </div>","99","html-slider-response","11","208385","0.0-5.0-2.0","58","1","2025-07-16 08:25:24","1f75c3e559b7213887762d5229550c2b","136.185.210.208","Mozilla/5.0 (Windows NT 10.0; Win64; x64) AppleWebKit/537.36 (KHTML, like Gecko) Chrome/137.0.0.0 Safari/537.36","WebKit","Chrome","137.0.0.0","Windows","10.0","https://app.prolific.com/","en-US,en;q=0.9","664b3888f484550fe6d377bc","686e379bc37a29ffa5cdc956","687761a00701d5b07a938bed","1","1","664b3888f484550fe6d377bc","1","1","2025-07-16T08:28:55.289Z","","","","","","","","","","","ControlQ","","50","","","","","","","","","","","","","","","","","","","","","","","","","","","","",""
"3047","","<div style=""width:500px;"">
  <p>How would you describe your current emotional state?</p>
  </div>","6","html-slider-response","12","211433","0.0-5.0-3.0","58","1","2025-07-16 08:25:24","1f75c3e559b7213887762d5229550c2b","136.185.210.208","Mozilla/5.0 (Windows NT 10.0; Win64; x64) AppleWebKit/537.36 (KHTML, like Gecko) Chrome/137.0.0.0 Safari/537.36","WebKit","Chrome","137.0.0.0","Windows","10.0","https://app.prolific.com/","en-US,en;q=0.9","664b3888f484550fe6d377bc","686e379bc37a29ffa5cdc956","687761a00701d5b07a938bed","1","1","664b3888f484550fe6d377bc","1","1","2025-07-16T08:28:58.337Z","","","","","","","","","","","StressQ","","50","","","","","","","","","","","","","","","","","","","","","","","","","","","","",""
"2646","","<div style=""width:500px;"">
  <p>What best describes how you currently feel?</p>
  </div>","96","html-slider-response","13","214080","0.0-5.0-4.0","58","1","2025-07-16 08:25:24","1f75c3e559b7213887762d5229550c2b","136.185.210.208","Mozilla/5.0 (Windows NT 10.0; Win64; x64) AppleWebKit/537.36 (KHTML, like Gecko) Chrome/137.0.0.0 Safari/537.36","WebKit","Chrome","137.0.0.0","Windows","10.0","https://app.prolific.com/","en-US,en;q=0.9","664b3888f484550fe6d377bc","686e379bc37a29ffa5cdc956","687761a00701d5b07a938bed","1","1","664b3888f484550fe6d377bc","1","1","2025-07-16T08:29:00.984Z","","","","","","","","","","","MotivationQ","","50","","","","","","","","","","","","","","","","","","","","","","","","","","","","",""
"","","","","ctl-task-cpt","14","248129","0.0-5.0-0.1","58","1","2025-07-16 08:25:24","1f75c3e559b7213887762d5229550c2b","136.185.210.208","Mozilla/5.0 (Windows NT 10.0; Win64; x64) AppleWebKit/537.36 (KHTML, like Gecko) Chrome/137.0.0.0 Safari/537.36","WebKit","Chrome","137.0.0.0","Windows","10.0","https://app.prolific.com/","en-US,en;q=0.9","664b3888f484550fe6d377bc","686e379bc37a29ffa5cdc956","687761a00701d5b07a938bed","1","1","664b3888f484550fe6d377bc","1","1","2025-07-16T08:29:35.033Z","","","","","","","","","","","","","","win-only","2","g1:SE,g2:NW","0.9","2","0","218397.3","1079.2","6089.4","31039.1","1","4","4","6","2","4","4","12","8","0.09090909090909091","1564.8","3000","775","[""left"",""up""]","{""num_key_presses"":8,""num_perfect"":7,""num_errors"":0,""num_randdir"":1,""num_randdir_good_moves"":0,""num_whilered"":0,""num_whileblue"":0,""num_blue"":1,""num_good_moves"":7}","[414.0714133126395,425.32142761775424,0.2,414.0714133126395,425.32142761775424,100.7,414.0714133126395,425.32142761775424,203.6,414.0714133126395,425.32142761775424,306,230.3214133126395,306.57142761775424,407.2,232.8214133126395,330.32142761775424,515.8,286.5714133126395,380.32142761775424,622.6,406.5714133126395,549.0714276177542,730.4,652.8214133126395,692.8214276177542,830.4,669.0714133126395,716.5714276177542,936.7,651.5714133126395,677.8214276177542,1038.4,86.5714133126395,136.57142761775424,1147.9,30.321413312639507,82.82142761775425,1260.3,5.321413312639507,62.82142761775425,1365.5,26.571413312639507,62.82142761775425,1471.6,34.07141331263951,64.07142761775425,1573.5,34.07141331263951,64.07142761775425,1673.9,34.07141331263951,64.07142761775425,1774.5,34.07141331263951,64.07142761775425,1876,34.07141331263951,64.07142761775425,1976.2,34.07141331263951,64.07142761775425,2076.3,34.07141331263951,64.07142761775425,2181.3,34.07141331263951,64.07142761775425,2281.4,34.07141331263951,64.07142761775425,2382.3,34.07141331263951,64.07142761775425,2482.9,34.07141331263951,64.07142761775425,2588.7,34.07141331263951,64.07142761775425,2696.7,34.07141331263951,64.07142761775425,2800.2,34.07141331263951,64.07142761775425,2908.9,34.07141331263951,64.07142761775425,3013.2,34.07141331263951,64.07142761775425,3116.8,34.07141331263951,64.07142761775425,3220.5,34.07141331263951,64.07142761775425,3328.7,34.07141331263951,64.07142761775425,3428.9,34.07141331263951,64.07142761775425,3538.6,34.07141331263951,64.07142761775425,3641,34.07141331263951,64.07142761775425,3743.4,34.07141331263951,64.07142761775425,3851,34.07141331263951,64.07142761775425,3953.7,34.07141331263951,64.07142761775425,4054.2,34.07141331263951,64.07142761775425,4163.1,34.07141331263951,64.07142761775425,4263.1,34.07141331263951,64.07142761775425,4368.4,34.07141331263951,64.07142761775425,4479,34.07141331263951,64.07142761775425,4585.2,34.07141331263951,64.07142761775425,4687.9,34.07141331263951,64.07142761775425,4793.9,34.07141331263951,64.07142761775425,4901.8]","[1632.7,1632.7,1000,0,632.7,""oops"",""left"",""right"",""bad_move"",4130.5,2497.4,2078.1,1633.1,419.3,""smooth"",""up"",""up"",""good_move"",10359.4,6228.1,3082.2,6958.8,318.4,""smooth"",""up"",""up"",""good_move"",13287.1,2927.3,2505.8,10359.8,421.5,""smooth"",""left"",""left"",""good_move"",16167.8,2880.2,2514.8,13287.6,365.6,""smooth"",""left"",""left"",""good_move"",18669.9,2501,2189.8,16168.9,311.2,""smooth"",""left"",""left"",""good_move"",21133.3,2463.1,2133.7,18670.3,329.4,""smooth"",""left"",""left"",""good_move"",24802.4,3668.3,3269.7,21134.1,398.6,""smooth"",""up"",""up"",""good_move""]","",""
"2942","","<div style=""width:500px;"">
  <p>What determined the result of this run?</p>
  </div>","88","html-slider-response","15","251073","0.0-5.0-1.1","58","1","2025-07-16 08:25:24","1f75c3e559b7213887762d5229550c2b","136.185.210.208","Mozilla/5.0 (Windows NT 10.0; Win64; x64) AppleWebKit/537.36 (KHTML, like Gecko) Chrome/137.0.0.0 Safari/537.36","WebKit","Chrome","137.0.0.0","Windows","10.0","https://app.prolific.com/","en-US,en;q=0.9","664b3888f484550fe6d377bc","686e379bc37a29ffa5cdc956","687761a00701d5b07a938bed","1","1","664b3888f484550fe6d377bc","1","1","2025-07-16T08:29:37.977Z","","","","","","","","","","","AttribQ","","50","","","","","","","","","","","","","","","","","","","","","","","","","","","","",""
"3518","","<div style=""width:500px;"">
  <p>How much control did you have over the ball?</p>
  </div>","87","html-slider-response","16","254592","0.0-5.0-2.1","58","1","2025-07-16 08:25:24","1f75c3e559b7213887762d5229550c2b","136.185.210.208","Mozilla/5.0 (Windows NT 10.0; Win64; x64) AppleWebKit/537.36 (KHTML, like Gecko) Chrome/137.0.0.0 Safari/537.36","WebKit","Chrome","137.0.0.0","Windows","10.0","https://app.prolific.com/","en-US,en;q=0.9","664b3888f484550fe6d377bc","686e379bc37a29ffa5cdc956","687761a00701d5b07a938bed","1","1","664b3888f484550fe6d377bc","1","1","2025-07-16T08:29:41.497Z","","","","","","","","","","","ControlQ","","50","","","","","","","","","","","","","","","","","","","","","","","","","","","","",""
"2031","","<div style=""width:500px;"">
  <p>How would you describe your current emotional state?</p>
  </div>","18","html-slider-response","17","256624","0.0-5.0-3.1","58","1","2025-07-16 08:25:24","1f75c3e559b7213887762d5229550c2b","136.185.210.208","Mozilla/5.0 (Windows NT 10.0; Win64; x64) AppleWebKit/537.36 (KHTML, like Gecko) Chrome/137.0.0.0 Safari/537.36","WebKit","Chrome","137.0.0.0","Windows","10.0","https://app.prolific.com/","en-US,en;q=0.9","664b3888f484550fe6d377bc","686e379bc37a29ffa5cdc956","687761a00701d5b07a938bed","1","1","664b3888f484550fe6d377bc","1","1","2025-07-16T08:29:43.528Z","","","","","","","","","","","StressQ","","50","","","","","","","","","","","","","","","","","","","","","","","","","","","","",""
"2127","","<div style=""width:500px;"">
  <p>What best describes how you currently feel?</p>
  </div>","89","html-slider-response","18","258753","0.0-5.0-4.1","58","1","2025-07-16 08:25:24","1f75c3e559b7213887762d5229550c2b","136.185.210.208","Mozilla/5.0 (Windows NT 10.0; Win64; x64) AppleWebKit/537.36 (KHTML, like Gecko) Chrome/137.0.0.0 Safari/537.36","WebKit","Chrome","137.0.0.0","Windows","10.0","https://app.prolific.com/","en-US,en;q=0.9","664b3888f484550fe6d377bc","686e379bc37a29ffa5cdc956","687761a00701d5b07a938bed","1","1","664b3888f484550fe6d377bc","1","1","2025-07-16T08:29:45.657Z","","","","","","","","","","","MotivationQ","","50","","","","","","","","","","","","","","","","","","","","","","","","","","","","",""
"","","","","ctl-task-cpt","19","300368","0.0-5.0-0.2","58","1","2025-07-16 08:25:24","1f75c3e559b7213887762d5229550c2b","136.185.210.208","Mozilla/5.0 (Windows NT 10.0; Win64; x64) AppleWebKit/537.36 (KHTML, like Gecko) Chrome/137.0.0.0 Safari/537.36","WebKit","Chrome","137.0.0.0","Windows","10.0","https://app.prolific.com/","en-US,en;q=0.9","664b3888f484550fe6d377bc","686e379bc37a29ffa5cdc956","687761a00701d5b07a938bed","1","1","664b3888f484550fe6d377bc","1","1","2025-07-16T08:30:27.272Z","","","","","","","","","","","","","","win-only","2","g1:SE,g2:NW","0.8","3","0","263071.5","932.9","5935.6","38610.3","1","4","4","6","2","4","4","16","12","0.12121212121212122","1981.2","3000","465","[""left"",""up""]","{""num_key_presses"":8,""num_perfect"":6,""num_errors"":0,""num_randdir"":2,""num_randdir_good_moves"":1,""num_whilered"":0,""num_whileblue"":0,""num_blue"":3,""num_good_moves"":7}","[424.0714133126395,410.32142761775424,0.3,424.0714133126395,410.32142761775424,107.6,424.0714133126395,414.07142761775424,215.6,616.5714133126395,625.3214276177542,321.9,686.5714133126395,710.3214276177542,427.6,482.8214133126395,561.5714276177542,531.5,111.5714133126395,225.32142761775424,639.1,104.0714133126395,199.07142761775424,743.5,104.0714133126395,199.07142761775424,846.7,374.0714133126395,371.57142761775424,951.4,712.8214133126395,696.5714276177542,1053,674.0714133126395,671.5714276177542,1159,-93.4285866873605,76.57142761775425,1259.5,-97.1785866873605,16.571427617754253,1360,-97.1785866873605,10.321427617754253,1465.1,-12.178586687360493,62.82142761775425,1566.6,16.571413312639507,66.57142761775425,1668.7,24.071413312639507,66.57142761775425,1774.9,24.071413312639507,66.57142761775425,1875.5,24.071413312639507,66.57142761775425,1976.3,24.071413312639507,66.57142761775425,2079.8,24.071413312639507,66.57142761775425,2180.4,24.071413312639507,66.57142761775425,2284.8,24.071413312639507,66.57142761775425,2386.8,24.071413312639507,66.57142761775425,2491.8,24.071413312639507,66.57142761775425,2592.7,24.071413312639507,66.57142761775425,2694.2,24.071413312639507,66.57142761775425,2796,24.071413312639507,66.57142761775425,2903.1,24.071413312639507,66.57142761775425,3004.3,24.071413312639507,66.57142761775425,3107.9,24.071413312639507,66.57142761775425,3211.2,24.071413312639507,66.57142761775425,3314.6,24.071413312639507,66.57142761775425,3423.1,24.071413312639507,66.57142761775425,3523.8,24.071413312639507,66.57142761775425,3626.7,24.071413312639507,66.57142761775425,3729.6,24.071413312639507,66.57142761775425,3830.4,24.071413312639507,66.57142761775425,3934.7,24.071413312639507,66.57142761775425,4042.8,24.071413312639507,66.57142761775425,4151.2,24.071413312639507,66.57142761775425,4253,24.071413312639507,66.57142761775425,4355.5,24.071413312639507,66.57142761775425,4460.5,24.071413312639507,66.57142761775425,4562.8,24.071413312639507,66.57142761775425,4664.4,24.071413312639507,66.57142761775425,4772.1,24.071413312639507,66.57142761775425,4872.3,24.071413312639507,66.57142761775425,4972.5]","[1431.9,1431.9,1000,0,431.9,""smooth"",""left"",""left"",""good_move"",7367.2,5934.4,2036.3,4928.8,402.1,""smooth"",""left"",""left"",""good_move"",10629.9,3260.3,2784.7,7369.6,475.6,""oops"",""up"",""down"",""bad_move"",13413.4,2782.8,2413,10630.6,369.8,""oops"",""left"",""left"",""good_move"",22621.3,9207.5,2254.9,20015.8,350.7,""smooth"",""up"",""up"",""good_move"",26083.6,3461.7,3034,22622,427.7,""smooth"",""up"",""up"",""good_move"",29094.5,3010.4,2435.4,26084.1,575,""smooth"",""up"",""up"",""good_move"",32539.9,3443.4,3016.1,29096.5,427.3,""smooth"",""up"",""up"",""good_move""]","",""
"3039","","<div style=""width:500px;"">
  <p>What determined the result of this run?</p>
  </div>","74","html-slider-response","20","303408","0.0-5.0-1.2","58","1","2025-07-16 08:25:24","1f75c3e559b7213887762d5229550c2b","136.185.210.208","Mozilla/5.0 (Windows NT 10.0; Win64; x64) AppleWebKit/537.36 (KHTML, like Gecko) Chrome/137.0.0.0 Safari/537.36","WebKit","Chrome","137.0.0.0","Windows","10.0","https://app.prolific.com/","en-US,en;q=0.9","664b3888f484550fe6d377bc","686e379bc37a29ffa5cdc956","687761a00701d5b07a938bed","1","1","664b3888f484550fe6d377bc","1","1","2025-07-16T08:30:30.312Z","","","","","","","","","","","AttribQ","","50","","","","","","","","","","","","","","","","","","","","","","","","","","","","",""
"3640","","<div style=""width:500px;"">
  <p>How much control did you have over the ball?</p>
  </div>","74","html-slider-response","21","307048","0.0-5.0-2.2","58","1","2025-07-16 08:25:24","1f75c3e559b7213887762d5229550c2b","136.185.210.208","Mozilla/5.0 (Windows NT 10.0; Win64; x64) AppleWebKit/537.36 (KHTML, like Gecko) Chrome/137.0.0.0 Safari/537.36","WebKit","Chrome","137.0.0.0","Windows","10.0","https://app.prolific.com/","en-US,en;q=0.9","664b3888f484550fe6d377bc","686e379bc37a29ffa5cdc956","687761a00701d5b07a938bed","1","1","664b3888f484550fe6d377bc","1","1","2025-07-16T08:30:33.953Z","","","","","","","","","","","ControlQ","","50","","","","","","","","","","","","","","","","","","","","","","","","","","","","",""
"3647","","<div style=""width:500px;"">
  <p>How would you describe your current emotional state?</p>
  </div>","15","html-slider-response","22","310696","0.0-5.0-3.2","58","1","2025-07-16 08:25:24","1f75c3e559b7213887762d5229550c2b","136.185.210.208","Mozilla/5.0 (Windows NT 10.0; Win64; x64) AppleWebKit/537.36 (KHTML, like Gecko) Chrome/137.0.0.0 Safari/537.36","WebKit","Chrome","137.0.0.0","Windows","10.0","https://app.prolific.com/","en-US,en;q=0.9","664b3888f484550fe6d377bc","686e379bc37a29ffa5cdc956","687761a00701d5b07a938bed","1","1","664b3888f484550fe6d377bc","1","1","2025-07-16T08:30:37.601Z","","","","","","","","","","","StressQ","","50","","","","","","","","","","","","","","","","","","","","","","","","","","","","",""
"3918","","<div style=""width:500px;"">
  <p>What best describes how you currently feel?</p>
  </div>","83","html-slider-response","23","314616","0.0-5.0-4.2","58","1","2025-07-16 08:25:24","1f75c3e559b7213887762d5229550c2b","136.185.210.208","Mozilla/5.0 (Windows NT 10.0; Win64; x64) AppleWebKit/537.36 (KHTML, like Gecko) Chrome/137.0.0.0 Safari/537.36","WebKit","Chrome","137.0.0.0","Windows","10.0","https://app.prolific.com/","en-US,en;q=0.9","664b3888f484550fe6d377bc","686e379bc37a29ffa5cdc956","687761a00701d5b07a938bed","1","1","664b3888f484550fe6d377bc","1","1","2025-07-16T08:30:41.520Z","","","","","","","","","","","MotivationQ","","50","","","","","","","","","","","","","","","","","","","","","","","","","","","","",""
"","","","","ctl-task-cpt","24","337554","0.0-5.0-0.3","58","1","2025-07-16 08:25:24","1f75c3e559b7213887762d5229550c2b","136.185.210.208","Mozilla/5.0 (Windows NT 10.0; Win64; x64) AppleWebKit/537.36 (KHTML, like Gecko) Chrome/137.0.0.0 Safari/537.36","WebKit","Chrome","137.0.0.0","Windows","10.0","https://app.prolific.com/","en-US,en;q=0.9","664b3888f484550fe6d377bc","686e379bc37a29ffa5cdc956","687761a00701d5b07a938bed","1","1","664b3888f484550fe6d377bc","1","1","2025-07-16T08:31:04.458Z","","","","","","","","","","","","","","win-only","2","g1:SE,g2:NW","0.7","4","0","318934.5","941.1","5947.3","19929.3","1","4","8","6","1","1","1","17","16","0.12878787878787878","1325.9","3000","1760","[""down"",""right""]","{""num_key_presses"":4,""num_perfect"":4,""num_errors"":0,""num_randdir"":0,""num_randdir_good_moves"":0,""num_whilered"":0,""num_whileblue"":0,""num_blue"":1,""num_good_moves"":4}","[411.5714133126395,407.82142761775424,0.3,411.5714133126395,407.82142761775424,102.7,432.8214133126395,425.32142761775424,203.6,896.5714133126395,847.8214276177542,306.9,944.0714133126395,884.0714276177542,408.1,949.0714133126395,894.0714276177542,512.1,886.5714133126395,862.8214276177542,616.4,741.5714133126395,752.8214276177542,719.4,730.3214133126395,746.5714276177542,820.4,730.3214133126395,746.5714276177542,924.5,730.3214133126395,746.5714276177542,1027.6,731.5714133126395,749.0714276177542,1135.6,731.5714133126395,749.0714276177542,1236.8,731.5714133126395,749.0714276177542,1343.4,731.5714133126395,749.0714276177542,1445.8,731.5714133126395,749.0714276177542,1553.3,731.5714133126395,749.0714276177542,1657.5,731.5714133126395,749.0714276177542,1759.9,731.5714133126395,749.0714276177542,1864.9,731.5714133126395,749.0714276177542,1965.4,731.5714133126395,749.0714276177542,2065.5,731.5714133126395,749.0714276177542,2173.4,731.5714133126395,749.0714276177542,2274.2,731.5714133126395,749.0714276177542,2374.8,731.5714133126395,749.0714276177542,2481.2,731.5714133126395,749.0714276177542,2582.8,731.5714133126395,749.0714276177542,2684.9,731.5714133126395,749.0714276177542,2786.5,731.5714133126395,749.0714276177542,2891.3,731.5714133126395,749.0714276177542,2993,731.5714133126395,749.0714276177542,3094,731.5714133126395,749.0714276177542,3198.5,731.5714133126395,749.0714276177542,3298.7,731.5714133126395,751.5714276177542,3399.9,731.5714133126395,751.5714276177542,3500.8,731.5714133126395,751.5714276177542,3607.1,731.5714133126395,751.5714276177542,3715.8,731.5714133126395,711.5714276177542,3820.5,731.5714133126395,711.5714276177542,3925.1,731.5714133126395,711.5714276177542,4026.1,731.5714133126395,711.5714276177542,4132,731.5714133126395,711.5714276177542,4232.9,731.5714133126395,711.5714276177542,4339.1,731.5714133126395,711.5714276177542,4445.2,731.5714133126395,711.5714276177542,4550.4,731.5714133126395,711.5714276177542,4656.7,731.5714133126395,711.5714276177542,4759.8,731.5714133126395,711.5714276177542,4866.6,731.5714133126395,711.5714276177542,4973.3]","[1481.2,1481.2,1000,0,481.2,""smooth"",""right"",""right"",""good_move"",7577.5,6095.9,1878.8,5237.7,461,""smooth"",""right"",""right"",""good_move"",11221.1,3643.4,3258,7577.7,385.4,""smooth"",""down"",""down"",""good_move"",13877.6,2656,2262.3,11221.6,393.7,""smooth"",""down"",""down"",""good_move""]","",""
"2997","","<div style=""width:500px;"">
  <p>What determined the result of this run?</p>
  </div>","98","html-slider-response","25","340553","0.0-5.0-1.3","58","1","2025-07-16 08:25:24","1f75c3e559b7213887762d5229550c2b","136.185.210.208","Mozilla/5.0 (Windows NT 10.0; Win64; x64) AppleWebKit/537.36 (KHTML, like Gecko) Chrome/137.0.0.0 Safari/537.36","WebKit","Chrome","137.0.0.0","Windows","10.0","https://app.prolific.com/","en-US,en;q=0.9","664b3888f484550fe6d377bc","686e379bc37a29ffa5cdc956","687761a00701d5b07a938bed","1","1","664b3888f484550fe6d377bc","1","1","2025-07-16T08:31:07.457Z","","","","","","","","","","","AttribQ","","50","","","","","","","","","","","","","","","","","","","","","","","","","","","","",""
"2270","","<div style=""width:500px;"">
  <p>How much control did you have over the ball?</p>
  </div>","100","html-slider-response","26","342824","0.0-5.0-2.3","58","1","2025-07-16 08:25:24","1f75c3e559b7213887762d5229550c2b","136.185.210.208","Mozilla/5.0 (Windows NT 10.0; Win64; x64) AppleWebKit/537.36 (KHTML, like Gecko) Chrome/137.0.0.0 Safari/537.36","WebKit","Chrome","137.0.0.0","Windows","10.0","https://app.prolific.com/","en-US,en;q=0.9","664b3888f484550fe6d377bc","686e379bc37a29ffa5cdc956","687761a00701d5b07a938bed","1","1","664b3888f484550fe6d377bc","1","1","2025-07-16T08:31:09.728Z","","","","","","","","","","","ControlQ","","50","","","","","","","","","","","","","","","","","","","","","","","","","","","","",""
"4022","","<div style=""width:500px;"">
  <p>How would you describe your current emotional state?</p>
  </div>","2","html-slider-response","27","346848","0.0-5.0-3.3","58","1","2025-07-16 08:25:24","1f75c3e559b7213887762d5229550c2b","136.185.210.208","Mozilla/5.0 (Windows NT 10.0; Win64; x64) AppleWebKit/537.36 (KHTML, like Gecko) Chrome/137.0.0.0 Safari/537.36","WebKit","Chrome","137.0.0.0","Windows","10.0","https://app.prolific.com/","en-US,en;q=0.9","664b3888f484550fe6d377bc","686e379bc37a29ffa5cdc956","687761a00701d5b07a938bed","1","1","664b3888f484550fe6d377bc","1","1","2025-07-16T08:31:13.752Z","","","","","","","","","","","StressQ","","50","","","","","","","","","","","","","","","","","","","","","","","","","","","","",""
"1927","","<div style=""width:500px;"">
  <p>What best describes how you currently feel?</p>
  </div>","89","html-slider-response","28","348776","0.0-5.0-4.3","58","1","2025-07-16 08:25:24","1f75c3e559b7213887762d5229550c2b","136.185.210.208","Mozilla/5.0 (Windows NT 10.0; Win64; x64) AppleWebKit/537.36 (KHTML, like Gecko) Chrome/137.0.0.0 Safari/537.36","WebKit","Chrome","137.0.0.0","Windows","10.0","https://app.prolific.com/","en-US,en;q=0.9","664b3888f484550fe6d377bc","686e379bc37a29ffa5cdc956","687761a00701d5b07a938bed","1","1","664b3888f484550fe6d377bc","1","1","2025-07-16T08:31:15.680Z","","","","","","","","","","","MotivationQ","","50","","","","","","","","","","","","","","","","","","","","","","","","","","","","",""
"","","","","ctl-task-cpt","29","384291","0.0-5.0-0.4","58","1","2025-07-16 08:25:24","1f75c3e559b7213887762d5229550c2b","136.185.210.208","Mozilla/5.0 (Windows NT 10.0; Win64; x64) AppleWebKit/537.36 (KHTML, like Gecko) Chrome/137.0.0.0 Safari/537.36","WebKit","Chrome","137.0.0.0","Windows","10.0","https://app.prolific.com/","en-US,en;q=0.9","664b3888f484550fe6d377bc","686e379bc37a29ffa5cdc956","687761a00701d5b07a938bed","1","1","664b3888f484550fe6d377bc","1","1","2025-07-16T08:31:51.195Z","","","","","","","","","","","","","","win-only","0","g1:NW,g2:SE","0.6","5","0","353094.5","1942.8","6947.4","32502.9","1","4","8","6","2","8","8","25","17","0.1893939393939394","897.6","3000","1105","[""down"",""right""]","{""num_key_presses"":6,""num_perfect"":3,""num_errors"":0,""num_randdir"":3,""num_randdir_good_moves"":3,""num_whilered"":0,""num_whileblue"":0,""num_blue"":3,""num_good_moves"":6}","[415.3214133126395,417.82142761775424,0.5,415.3214133126395,417.82142761775424,109.2,415.3214133126395,417.82142761775424,214.1,415.3214133126395,419.07142761775424,319.5,474.0714133126395,515.3214276177542,423,666.5714133126395,696.5714276177542,529.4,706.5714133126395,732.8214276177542,632.8,744.0714133126395,751.5714276177542,733.2,796.5714133126395,774.0714276177542,837.7,796.5714133126395,774.0714276177542,941.4,796.5714133126395,774.0714276177542,1047.2,796.5714133126395,774.0714276177542,1147.6,796.5714133126395,774.0714276177542,1252.3,780.3214133126395,756.5714276177542,1358.3,775.3214133126395,754.0714276177542,1458.9,775.3214133126395,754.0714276177542,1559,775.3214133126395,754.0714276177542,1662.7,775.3214133126395,754.0714276177542,1763.5,775.3214133126395,754.0714276177542,1865.9,775.3214133126395,754.0714276177542,1973.2,775.3214133126395,754.0714276177542,2080.5,775.3214133126395,754.0714276177542,2186.6,775.3214133126395,754.0714276177542,2290,775.3214133126395,754.0714276177542,2390.7,775.3214133126395,754.0714276177542,2491.6,775.3214133126395,754.0714276177542,2591.8,775.3214133126395,754.0714276177542,2698.6,775.3214133126395,754.0714276177542,2800.4,775.3214133126395,754.0714276177542,2904.5,775.3214133126395,754.0714276177542,3005.2,775.3214133126395,754.0714276177542,3106.8,775.3214133126395,754.0714276177542,3210.7,775.3214133126395,754.0714276177542,3317.2,775.3214133126395,754.0714276177542,3426.4,775.3214133126395,754.0714276177542,3530,775.3214133126395,754.0714276177542,3638.4,775.3214133126395,754.0714276177542,3739.4,775.3214133126395,754.0714276177542,3846.6,775.3214133126395,754.0714276177542,3947.2,775.3214133126395,754.0714276177542,4054.2,775.3214133126395,754.0714276177542,4154.3,775.3214133126395,754.0714276177542,4260.5,775.3214133126395,754.0714276177542,4366.6,775.3214133126395,754.0714276177542,4467.1,775.3214133126395,754.0714276177542,4568.1,775.3214133126395,754.0714276177542,4668.1,775.3214133126395,754.0714276177542,4775.4,775.3214133126395,754.0714276177542,4875.7,775.3214133126395,754.0714276177542,4979]","[1431.2,1431.2,1000,0,431.2,""oops"",""right"",""down"",""good_move"",7612.9,6181.3,2310.9,4888.4,413.6,""smooth"",""right"",""right"",""good_move"",17715.7,10102.1,2430,14959.8,325.9,""smooth"",""right"",""right"",""good_move"",20250.7,2534.7,1881.8,17716,652.9,""oops"",""right"",""down"",""good_move"",22994.2,2742.7,2360.5,20251.6,382.1,""oops"",""right"",""down"",""good_move"",25449.6,2455.1,2110.5,22994.5,344.7,""smooth"",""right"",""right"",""good_move""]","",""
"3444","","<div style=""width:500px;"">
  <p>What determined the result of this run?</p>
  </div>","65","html-slider-response","30","387736","0.0-5.0-1.4","58","1","2025-07-16 08:25:24","1f75c3e559b7213887762d5229550c2b","136.185.210.208","Mozilla/5.0 (Windows NT 10.0; Win64; x64) AppleWebKit/537.36 (KHTML, like Gecko) Chrome/137.0.0.0 Safari/537.36","WebKit","Chrome","137.0.0.0","Windows","10.0","https://app.prolific.com/","en-US,en;q=0.9","664b3888f484550fe6d377bc","686e379bc37a29ffa5cdc956","687761a00701d5b07a938bed","1","1","664b3888f484550fe6d377bc","1","1","2025-07-16T08:31:54.640Z","","","","","","","","","","","AttribQ","","50","","","","","","","","","","","","","","","","","","","","","","","","","","","","",""
"3623","","<div style=""width:500px;"">
  <p>How much control did you have over the ball?</p>
  </div>","62","html-slider-response","31","391360","0.0-5.0-2.4","58","1","2025-07-16 08:25:24","1f75c3e559b7213887762d5229550c2b","136.185.210.208","Mozilla/5.0 (Windows NT 10.0; Win64; x64) AppleWebKit/537.36 (KHTML, like Gecko) Chrome/137.0.0.0 Safari/537.36","WebKit","Chrome","137.0.0.0","Windows","10.0","https://app.prolific.com/","en-US,en;q=0.9","664b3888f484550fe6d377bc","686e379bc37a29ffa5cdc956","687761a00701d5b07a938bed","1","1","664b3888f484550fe6d377bc","1","1","2025-07-16T08:31:58.264Z","","","","","","","","","","","ControlQ","","50","","","","","","","","","","","","","","","","","","","","","","","","","","","","",""
"2103","","<div style=""width:500px;"">
  <p>How would you describe your current emotional state?</p>
  </div>","23","html-slider-response","32","393464","0.0-5.0-3.4","58","1","2025-07-16 08:25:24","1f75c3e559b7213887762d5229550c2b","136.185.210.208","Mozilla/5.0 (Windows NT 10.0; Win64; x64) AppleWebKit/537.36 (KHTML, like Gecko) Chrome/137.0.0.0 Safari/537.36","WebKit","Chrome","137.0.0.0","Windows","10.0","https://app.prolific.com/","en-US,en;q=0.9","664b3888f484550fe6d377bc","686e379bc37a29ffa5cdc956","687761a00701d5b07a938bed","1","1","664b3888f484550fe6d377bc","1","1","2025-07-16T08:32:00.368Z","","","","","","","","","","","StressQ","","50","","","","","","","","","","","","","","","","","","","","","","","","","","","","",""
"1735","","<div style=""width:500px;"">
  <p>What best describes how you currently feel?</p>
  </div>","85","html-slider-response","33","395200","0.0-5.0-4.4","58","1","2025-07-16 08:25:24","1f75c3e559b7213887762d5229550c2b","136.185.210.208","Mozilla/5.0 (Windows NT 10.0; Win64; x64) AppleWebKit/537.36 (KHTML, like Gecko) Chrome/137.0.0.0 Safari/537.36","WebKit","Chrome","137.0.0.0","Windows","10.0","https://app.prolific.com/","en-US,en;q=0.9","664b3888f484550fe6d377bc","686e379bc37a29ffa5cdc956","687761a00701d5b07a938bed","1","1","664b3888f484550fe6d377bc","1","1","2025-07-16T08:32:02.104Z","","","","","","","","","","","MotivationQ","","50","","","","","","","","","","","","","","","","","","","","","","","","","","","","",""
"","","","","ctl-task-cpt","34","414663","0.0-5.0-0.5","58","1","2025-07-16 08:25:24","1f75c3e559b7213887762d5229550c2b","136.185.210.208","Mozilla/5.0 (Windows NT 10.0; Win64; x64) AppleWebKit/537.36 (KHTML, like Gecko) Chrome/137.0.0.0 Safari/537.36","WebKit","Chrome","137.0.0.0","Windows","10.0","https://app.prolific.com/","en-US,en;q=0.9","664b3888f484550fe6d377bc","686e379bc37a29ffa5cdc956","687761a00701d5b07a938bed","1","1","664b3888f484550fe6d377bc","1","1","2025-07-16T08:32:21.567Z","","","","","","","","","","","","","","win-only","3","g1:SW,g2:NE","0.5","6","0","399518.2","1197.9","6200.9","16451.8","1","4","4","6","1","1","1","26","25","0.19696969696969696","1272.7","3000","1830","[""down"",""left""]","{""num_key_presses"":4,""num_perfect"":2,""num_errors"":0,""num_randdir"":2,""num_randdir_good_moves"":2,""num_whilered"":0,""num_whileblue"":0,""num_blue"":0,""num_good_moves"":4}","[410.3214133126395,425.32142761775424,0.5,410.3214133126395,425.32142761775424,100.9,410.3214133126395,425.32142761775424,204.6,409.0714133126395,430.32142761775424,311,664.0714133126395,322.82142761775424,412.5,792.8214133126395,116.57142761775425,518.4,795.3214133126395,96.57142761775425,620.1,512.8214133126395,315.32142761775424,722.8,185.3214133126395,711.5714276177542,825.6,137.8214133126395,755.3214276177542,928.2,131.5714133126395,757.8214276177542,1033.2,102.8214133126395,757.8214276177542,1137.8,86.5714133126395,761.5714276177542,1237.8,86.5714133126395,761.5714276177542,1339.4,86.5714133126395,761.5714276177542,1440.4,86.5714133126395,762.8214276177542,1542.5,86.5714133126395,762.8214276177542,1642.9,86.5714133126395,762.8214276177542,1743.6,86.5714133126395,762.8214276177542,1847.9,86.5714133126395,762.8214276177542,1953.5,86.5714133126395,762.8214276177542,2057.8,86.5714133126395,762.8214276177542,2159.5,86.5714133126395,762.8214276177542,2267.3,86.5714133126395,762.8214276177542,2369,86.5714133126395,762.8214276177542,2474.8,86.5714133126395,762.8214276177542,2575,86.5714133126395,762.8214276177542,2683.3,86.5714133126395,762.8214276177542,2790.3,86.5714133126395,762.8214276177542,2892.2,86.5714133126395,762.8214276177542,2998.3,86.5714133126395,762.8214276177542,3098.8,86.5714133126395,762.8214276177542,3202.6,86.5714133126395,762.8214276177542,3306.7,86.5714133126395,762.8214276177542,3407.2,86.5714133126395,762.8214276177542,3510.3,86.5714133126395,762.8214276177542,3612.1,86.5714133126395,762.8214276177542,3718,86.5714133126395,762.8214276177542,3822.7,86.5714133126395,762.8214276177542,3925.2,86.5714133126395,762.8214276177542,4026.4,86.5714133126395,762.8214276177542,4134.1,86.5714133126395,762.8214276177542,4239.9,86.5714133126395,762.8214276177542,4349.3,86.5714133126395,762.8214276177542,4449.4,86.5714133126395,762.8214276177542,4550.8,86.5714133126395,762.8214276177542,4657.8,86.5714133126395,762.8214276177542,4758.2,86.5714133126395,762.8214276177542,4866.4,86.5714133126395,762.8214276177542,4967.1]","[1433.1,1433.1,1000,0,433.1,""smooth"",""left"",""left"",""good_move"",3694.5,2261,1795.4,1433.5,465.6,""smooth"",""left"",""left"",""good_move"",7262.2,3567.2,3181.3,3695,385.9,""oops"",""down"",""down"",""good_move"",10142.5,2879.8,2432.7,7262.7,447.1,""oops"",""down"",""down"",""good_move""]","",""
"3951","","<div style=""width:500px;"">
  <p>What determined the result of this run?</p>
  </div>","62","html-slider-response","35","418615","0.0-5.0-1.5","58","1","2025-07-16 08:25:24","1f75c3e559b7213887762d5229550c2b","136.185.210.208","Mozilla/5.0 (Windows NT 10.0; Win64; x64) AppleWebKit/537.36 (KHTML, like Gecko) Chrome/137.0.0.0 Safari/537.36","WebKit","Chrome","137.0.0.0","Windows","10.0","https://app.prolific.com/","en-US,en;q=0.9","664b3888f484550fe6d377bc","686e379bc37a29ffa5cdc956","687761a00701d5b07a938bed","1","1","664b3888f484550fe6d377bc","1","1","2025-07-16T08:32:25.520Z","","","","","","","","","","","AttribQ","","50","","","","","","","","","","","","","","","","","","","","","","","","","","","","",""
"2769","","<div style=""width:500px;"">
  <p>How much control did you have over the ball?</p>
  </div>","62","html-slider-response","36","421385","0.0-5.0-2.5","58","1","2025-07-16 08:25:24","1f75c3e559b7213887762d5229550c2b","136.185.210.208","Mozilla/5.0 (Windows NT 10.0; Win64; x64) AppleWebKit/537.36 (KHTML, like Gecko) Chrome/137.0.0.0 Safari/537.36","WebKit","Chrome","137.0.0.0","Windows","10.0","https://app.prolific.com/","en-US,en;q=0.9","664b3888f484550fe6d377bc","686e379bc37a29ffa5cdc956","687761a00701d5b07a938bed","1","1","664b3888f484550fe6d377bc","1","1","2025-07-16T08:32:28.290Z","","","","","","","","","","","ControlQ","","50","","","","","","","","","","","","","","","","","","","","","","","","","","","","",""
"2317","","<div style=""width:500px;"">
  <p>How would you describe your current emotional state?</p>
  </div>","27","html-slider-response","37","423704","0.0-5.0-3.5","58","1","2025-07-16 08:25:24","1f75c3e559b7213887762d5229550c2b","136.185.210.208","Mozilla/5.0 (Windows NT 10.0; Win64; x64) AppleWebKit/537.36 (KHTML, like Gecko) Chrome/137.0.0.0 Safari/537.36","WebKit","Chrome","137.0.0.0","Windows","10.0","https://app.prolific.com/","en-US,en;q=0.9","664b3888f484550fe6d377bc","686e379bc37a29ffa5cdc956","687761a00701d5b07a938bed","1","1","664b3888f484550fe6d377bc","1","1","2025-07-16T08:32:30.608Z","","","","","","","","","","","StressQ","","50","","","","","","","","","","","","","","","","","","","","","","","","","","","","",""
"1710","","<div style=""width:500px;"">
  <p>What best describes how you currently feel?</p>
  </div>","65","html-slider-response","38","425416","0.0-5.0-4.5","58","1","2025-07-16 08:25:24","1f75c3e559b7213887762d5229550c2b","136.185.210.208","Mozilla/5.0 (Windows NT 10.0; Win64; x64) AppleWebKit/537.36 (KHTML, like Gecko) Chrome/137.0.0.0 Safari/537.36","WebKit","Chrome","137.0.0.0","Windows","10.0","https://app.prolific.com/","en-US,en;q=0.9","664b3888f484550fe6d377bc","686e379bc37a29ffa5cdc956","687761a00701d5b07a938bed","1","1","664b3888f484550fe6d377bc","1","1","2025-07-16T08:32:32.320Z","","","","","","","","","","","MotivationQ","","50","","","","","","","","","","","","","","","","","","","","","","","","","","","","",""
"","","","","ctl-task-cpt","39","468810","0.0-5.0-0.6","58","1","2025-07-16 08:25:24","1f75c3e559b7213887762d5229550c2b","136.185.210.208","Mozilla/5.0 (Windows NT 10.0; Win64; x64) AppleWebKit/537.36 (KHTML, like Gecko) Chrome/137.0.0.0 Safari/537.36","WebKit","Chrome","137.0.0.0","Windows","10.0","https://app.prolific.com/","en-US,en;q=0.9","664b3888f484550fe6d377bc","686e379bc37a29ffa5cdc956","687761a00701d5b07a938bed","1","1","664b3888f484550fe6d377bc","1","1","2025-07-16T08:33:15.714Z","","","","","","","","","","","","","","win-only","1","g1:NE,g2:SW","0.4","7","0","429734","853.6","5856.7","40373.2","1","4","4","6","2","-4","-4","22","26","0.16666666666666666","1064.1","3000","-2055","[""down"",""left""]","{""num_key_presses"":11,""num_perfect"":5,""num_errors"":0,""num_randdir"":6,""num_randdir_good_moves"":4,""num_whilered"":0,""num_whileblue"":0,""num_blue"":1,""num_good_moves"":8}","[421.5714133126395,417.82142761775424,0.2,421.5714133126395,417.82142761775424,102.3,421.5714133126395,417.82142761775424,210.6,442.8214133126395,422.82142761775424,310.7,467.8214133126395,407.82142761775424,411.8,404.0714133126395,441.57142761775424,512.6,204.0714133126395,676.5714276177542,613.5,191.5714133126395,696.5714276177542,728.2,131.5714133126395,741.5714276177542,830.9,95.3214133126395,747.8214276177542,933.8,95.3214133126395,747.8214276177542,1037.8,95.3214133126395,747.8214276177542,1144,95.3214133126395,747.8214276177542,1245.1,95.3214133126395,747.8214276177542,1352.8,95.3214133126395,747.8214276177542,1460.7,96.5714133126395,751.5714276177542,1561.1,96.5714133126395,751.5714276177542,1661.6,96.5714133126395,751.5714276177542,1762.2,96.5714133126395,751.5714276177542,1862.9,96.5714133126395,751.5714276177542,1971.1,96.5714133126395,751.5714276177542,2078,96.5714133126395,751.5714276177542,2181.8,96.5714133126395,751.5714276177542,2283.8,96.5714133126395,751.5714276177542,2386.3,96.5714133126395,751.5714276177542,2492,96.5714133126395,751.5714276177542,2592.3,96.5714133126395,751.5714276177542,2702.4,96.5714133126395,751.5714276177542,2804,96.5714133126395,751.5714276177542,2909.3,96.5714133126395,751.5714276177542,3009.4,96.5714133126395,751.5714276177542,3112.8,96.5714133126395,751.5714276177542,3218.7,96.5714133126395,751.5714276177542,3325.5,96.5714133126395,751.5714276177542,3425.7,96.5714133126395,751.5714276177542,3527.3,96.5714133126395,751.5714276177542,3630.3,96.5714133126395,751.5714276177542,3735.3,96.5714133126395,751.5714276177542,3840.7,96.5714133126395,751.5714276177542,3943,96.5714133126395,751.5714276177542,4057.6,96.5714133126395,751.5714276177542,4162.6,96.5714133126395,751.5714276177542,4263.5,96.5714133126395,751.5714276177542,4366.2,96.5714133126395,751.5714276177542,4473.3,96.5714133126395,751.5714276177542,4583.4,96.5714133126395,751.5714276177542,4691.4,96.5714133126395,751.5714276177542,4792.3,96.5714133126395,751.5714276177542,4906.5]","[5297.5,5297.5,2936.6,2017.1,343.8,""oops"",""left"",""left"",""good_move"",8158.1,2859.7,2437.4,5298.4,422.3,""smooth"",""left"",""left"",""good_move"",11254.4,3096.1,2703.3,8158.3,392.8,""oops"",""left"",""down"",""good_move"",13074.9,1819.8,1382.7,11255.1,437.1,""smooth"",""left"",""left"",""good_move"",16071.3,2995.9,2647.6,13075.4,348.3,""smooth"",""down"",""down"",""good_move"",18584.3,2512.9,2176.6,16071.4,336.3,""oops"",""down"",""up"",""bad_move"",21681,3096.3,2463.7,18584.7,632.6,""oops"",""down"",""down"",""good_move"",24281.9,2600.6,2257.2,21681.3,343.4,""oops"",""down"",""up"",""bad_move"",26518.6,2236.5,1833.4,24282.2,403.1,""smooth"",""right"",""right"",""bad_move"",29201.9,2682.9,2186.9,26519,496,""oops"",""up"",""left"",""good_move"",31646.5,2444.2,2107,29202.3,337.2,""smooth"",""down"",""down"",""good_move""]","",""
"8311","","<div style=""width:500px;"">
  <p>What determined the result of this run?</p>
  </div>","71","html-slider-response","40","477122","0.0-5.0-1.6","58","1","2025-07-16 08:25:24","1f75c3e559b7213887762d5229550c2b","136.185.210.208","Mozilla/5.0 (Windows NT 10.0; Win64; x64) AppleWebKit/537.36 (KHTML, like Gecko) Chrome/137.0.0.0 Safari/537.36","WebKit","Chrome","137.0.0.0","Windows","10.0","https://app.prolific.com/","en-US,en;q=0.9","664b3888f484550fe6d377bc","686e379bc37a29ffa5cdc956","687761a00701d5b07a938bed","1","1","664b3888f484550fe6d377bc","1","1","2025-07-16T08:33:24.027Z","","","","","","","","","","","AttribQ","","50","","","","","","","","","","","","","","","","","","","","","","","","","","","","",""
"3085","","<div style=""width:500px;"">
  <p>How much control did you have over the ball?</p>
  </div>","43","html-slider-response","41","480210","0.0-5.0-2.6","58","1","2025-07-16 08:25:24","1f75c3e559b7213887762d5229550c2b","136.185.210.208","Mozilla/5.0 (Windows NT 10.0; Win64; x64) AppleWebKit/537.36 (KHTML, like Gecko) Chrome/137.0.0.0 Safari/537.36","WebKit","Chrome","137.0.0.0","Windows","10.0","https://app.prolific.com/","en-US,en;q=0.9","664b3888f484550fe6d377bc","686e379bc37a29ffa5cdc956","687761a00701d5b07a938bed","1","1","664b3888f484550fe6d377bc","1","1","2025-07-16T08:33:27.114Z","","","","","","","","","","","ControlQ","","50","","","","","","","","","","","","","","","","","","","","","","","","","","","","",""
"4140","","<div style=""width:500px;"">
  <p>How would you describe your current emotional state?</p>
  </div>","39","html-slider-response","42","484352","0.0-5.0-3.6","58","1","2025-07-16 08:25:24","1f75c3e559b7213887762d5229550c2b","136.185.210.208","Mozilla/5.0 (Windows NT 10.0; Win64; x64) AppleWebKit/537.36 (KHTML, like Gecko) Chrome/137.0.0.0 Safari/537.36","WebKit","Chrome","137.0.0.0","Windows","10.0","https://app.prolific.com/","en-US,en;q=0.9","664b3888f484550fe6d377bc","686e379bc37a29ffa5cdc956","687761a00701d5b07a938bed","1","1","664b3888f484550fe6d377bc","1","1","2025-07-16T08:33:31.256Z","","","","","","","","","","","StressQ","","50","","","","","","","","","","","","","","","","","","","","","","","","","","","","",""
"2759","","<div style=""width:500px;"">
  <p>What best describes how you currently feel?</p>
  </div>","63","html-slider-response","43","487112","0.0-5.0-4.6","58","1","2025-07-16 08:25:24","1f75c3e559b7213887762d5229550c2b","136.185.210.208","Mozilla/5.0 (Windows NT 10.0; Win64; x64) AppleWebKit/537.36 (KHTML, like Gecko) Chrome/137.0.0.0 Safari/537.36","WebKit","Chrome","137.0.0.0","Windows","10.0","https://app.prolific.com/","en-US,en;q=0.9","664b3888f484550fe6d377bc","686e379bc37a29ffa5cdc956","687761a00701d5b07a938bed","1","1","664b3888f484550fe6d377bc","1","1","2025-07-16T08:33:34.016Z","","","","","","","","","","","MotivationQ","","50","","","","","","","","","","","","","","","","","","","","","","","","","","","","",""
"","","","","ctl-task-cpt","44","507884","0.0-5.0-0.7","58","1","2025-07-16 08:25:24","1f75c3e559b7213887762d5229550c2b","136.185.210.208","Mozilla/5.0 (Windows NT 10.0; Win64; x64) AppleWebKit/537.36 (KHTML, like Gecko) Chrome/137.0.0.0 Safari/537.36","WebKit","Chrome","137.0.0.0","Windows","10.0","https://app.prolific.com/","en-US,en;q=0.9","664b3888f484550fe6d377bc","686e379bc37a29ffa5cdc956","687761a00701d5b07a938bed","1","1","664b3888f484550fe6d377bc","1","1","2025-07-16T08:33:54.788Z","","","","","","","","","","","","","","win-only","1","g1:NE,g2:SW","0.3","8","0","491431.1","1115.7","6122.8","17760.9","1","4","8","6","1","1","0","22","22","0.16666666666666666","1240.5","3000","1725","[""up"",""right""]","{""num_key_presses"":5,""num_perfect"":2,""num_errors"":1,""num_randdir"":2,""num_randdir_good_moves"":2,""num_whilered"":0,""num_whileblue"":0,""num_blue"":0,""num_good_moves"":4}","[411.5714133126395,414.07142761775424,0.4,411.5714133126395,414.07142761775424,105.3,411.5714133126395,414.07142761775424,206.2,411.5714133126395,414.07142761775424,313.7,411.5714133126395,414.07142761775424,414.9,400.3214133126395,431.57142761775424,519.2,446.5714133126395,391.57142761775424,621.5,625.3214133126395,161.57142761775424,725.8,646.5714133126395,124.07142761775425,834.3,660.3214133126395,111.57142761775425,934.5,786.5714133126395,85.32142761775425,1034.5,791.5714133126395,85.32142761775425,1134.5,791.5714133126395,85.32142761775425,1236.6,791.5714133126395,85.32142761775425,1336.7,791.5714133126395,85.32142761775425,1436.9,779.0714133126395,90.32142761775425,1546.2,779.0714133126395,90.32142761775425,1650.7,779.0714133126395,90.32142761775425,1756.3,779.0714133126395,90.32142761775425,1860.7,779.0714133126395,90.32142761775425,1967.1,779.0714133126395,90.32142761775425,2069.4,779.0714133126395,90.32142761775425,2170.2,779.0714133126395,90.32142761775425,2274.7,779.0714133126395,90.32142761775425,2377,779.0714133126395,90.32142761775425,2485.3,779.0714133126395,90.32142761775425,2593.7,779.0714133126395,90.32142761775425,2698.6,779.0714133126395,90.32142761775425,2799.3,779.0714133126395,90.32142761775425,2901.5,779.0714133126395,90.32142761775425,3007.4,779.0714133126395,90.32142761775425,3114.2,779.0714133126395,90.32142761775425,3226.1,779.0714133126395,90.32142761775425,3327.4,779.0714133126395,90.32142761775425,3429.7,779.0714133126395,90.32142761775425,3529.9,779.0714133126395,90.32142761775425,3634.7,779.0714133126395,90.32142761775425,3734.9,779.0714133126395,90.32142761775425,3835.1,779.0714133126395,90.32142761775425,3936.3,779.0714133126395,90.32142761775425,4043.2,779.0714133126395,90.32142761775425,4144.8,779.0714133126395,90.32142761775425,4244.8,779.0714133126395,90.32142761775425,4346.4,779.0714133126395,90.32142761775425,4450.2,779.0714133126395,90.32142761775425,4550.7,779.0714133126395,90.32142761775425,4658.9,779.0714133126395,90.32142761775425,4765.8,779.0714133126395,90.32142761775425,4868.4,779.0714133126395,90.32142761775425,4973.6]","[1520.8,1520.8,1000,0,520.8,""smooth"",""up"",""up"",""good_move"",4467.3,2945.9,2515.7,1521.4,430.2,""oops"",""up"",""up"",""good_move"",7534.4,3066.8,2643.2,4467.6,423.7,""oops"",""right"",""right"",""good_move"",7669.4,134,2930.6,7535.4,-2796.6,""error"",""-"",""-"",""no_move"",11524.3,3854.5,2435.3,8674.8,414.2,""smooth"",""right"",""right"",""good_move""]","",""
"3315","","<div style=""width:500px;"">
  <p>What determined the result of this run?</p>
  </div>","72","html-slider-response","45","511201","0.0-5.0-1.7","58","1","2025-07-16 08:25:24","1f75c3e559b7213887762d5229550c2b","136.185.210.208","Mozilla/5.0 (Windows NT 10.0; Win64; x64) AppleWebKit/537.36 (KHTML, like Gecko) Chrome/137.0.0.0 Safari/537.36","WebKit","Chrome","137.0.0.0","Windows","10.0","https://app.prolific.com/","en-US,en;q=0.9","664b3888f484550fe6d377bc","686e379bc37a29ffa5cdc956","687761a00701d5b07a938bed","1","1","664b3888f484550fe6d377bc","1","1","2025-07-16T08:33:58.106Z","","","","","","","","","","","AttribQ","","50","","","","","","","","","","","","","","","","","","","","","","","","","","","","",""
"2334","","<div style=""width:500px;"">
  <p>How much control did you have over the ball?</p>
  </div>","58","html-slider-response","46","513538","0.0-5.0-2.7","58","1","2025-07-16 08:25:24","1f75c3e559b7213887762d5229550c2b","136.185.210.208","Mozilla/5.0 (Windows NT 10.0; Win64; x64) AppleWebKit/537.36 (KHTML, like Gecko) Chrome/137.0.0.0 Safari/537.36","WebKit","Chrome","137.0.0.0","Windows","10.0","https://app.prolific.com/","en-US,en;q=0.9","664b3888f484550fe6d377bc","686e379bc37a29ffa5cdc956","687761a00701d5b07a938bed","1","1","664b3888f484550fe6d377bc","1","1","2025-07-16T08:34:00.443Z","","","","","","","","","","","ControlQ","","50","","","","","","","","","","","","","","","","","","","","","","","","","","","","",""
"3354","","<div style=""width:500px;"">
  <p>How would you describe your current emotional state?</p>
  </div>","23","html-slider-response","47","516895","0.0-5.0-3.7","58","1","2025-07-16 08:25:24","1f75c3e559b7213887762d5229550c2b","136.185.210.208","Mozilla/5.0 (Windows NT 10.0; Win64; x64) AppleWebKit/537.36 (KHTML, like Gecko) Chrome/137.0.0.0 Safari/537.36","WebKit","Chrome","137.0.0.0","Windows","10.0","https://app.prolific.com/","en-US,en;q=0.9","664b3888f484550fe6d377bc","686e379bc37a29ffa5cdc956","687761a00701d5b07a938bed","1","1","664b3888f484550fe6d377bc","1","1","2025-07-16T08:34:03.799Z","","","","","","","","","","","StressQ","","50","","","","","","","","","","","","","","","","","","","","","","","","","","","","",""
"5330","","<div style=""width:500px;"">
  <p>What best describes how you currently feel?</p>
  </div>","63","html-slider-response","48","522226","0.0-5.0-4.7","58","1","2025-07-16 08:25:24","1f75c3e559b7213887762d5229550c2b","136.185.210.208","Mozilla/5.0 (Windows NT 10.0; Win64; x64) AppleWebKit/537.36 (KHTML, like Gecko) Chrome/137.0.0.0 Safari/537.36","WebKit","Chrome","137.0.0.0","Windows","10.0","https://app.prolific.com/","en-US,en;q=0.9","664b3888f484550fe6d377bc","686e379bc37a29ffa5cdc956","687761a00701d5b07a938bed","1","1","664b3888f484550fe6d377bc","1","1","2025-07-16T08:34:09.130Z","","","","","","","","","","","MotivationQ","","50","","","","","","","","","","","","","","","","","","","","","","","","","","","","",""
"","","","","ctl-task-cpt","49","572665","0.0-5.0-0.8","58","1","2025-07-16 08:25:24","1f75c3e559b7213887762d5229550c2b","136.185.210.208","Mozilla/5.0 (Windows NT 10.0; Win64; x64) AppleWebKit/537.36 (KHTML, like Gecko) Chrome/137.0.0.0 Safari/537.36","WebKit","Chrome","137.0.0.0","Windows","10.0","https://app.prolific.com/","en-US,en;q=0.9","664b3888f484550fe6d377bc","686e379bc37a29ffa5cdc956","687761a00701d5b07a938bed","1","1","664b3888f484550fe6d377bc","1","1","2025-07-16T08:34:59.569Z","","","","","","","","","","","","","","win-only","3","g1:SW,g2:NE","0.2","9","0","526546.2","1127.3","6131.1","47430.7","1","4","4","6","2","-4","-6","16","22","0.12121212121212122","1737.7","3000","-1995","[""up"",""right""]","{""num_key_presses"":13,""num_perfect"":2,""num_errors"":2,""num_randdir"":9,""num_randdir_good_moves"":6,""num_whilered"":0,""num_whileblue"":2,""num_blue"":3,""num_good_moves"":8}","[421.5714133126395,406.57142761775424,0.5,421.5714133126395,406.57142761775424,100.8,421.5714133126395,406.57142761775424,211.3,406.5714133126395,420.32142761775424,315.2,299.0714133126395,546.5714276177542,415.9,239.0714133126395,646.5714276177542,518.9,202.8214133126395,691.5714276177542,619.7,191.5714133126395,699.0714276177542,734.9,171.5714133126395,711.5714276177542,836.2,262.8214133126395,632.8214276177542,944.7,231.5714133126395,622.8214276177542,1044.9,99.0714133126395,726.5714276177542,1151.9,186.5714133126395,646.5714276177542,1253.3,477.8214133126395,311.57142761775424,1368.7,632.8214133126395,170.32142761775424,1469.7,720.3214133126395,86.57142761775425,1577.3,780.3214133126395,41.57142761775425,1683,780.3214133126395,41.57142761775425,1787.2,780.3214133126395,41.57142761775425,1901.2,780.3214133126395,41.57142761775425,2008.9,726.5714133126395,127.82142761775425,2109.3,661.5714133126395,236.57142761775424,2216.1,659.0714133126395,241.57142761775424,2317.9,659.0714133126395,241.57142761775424,2423.6,659.0714133126395,241.57142761775424,2530.8,659.0714133126395,241.57142761775424,2633,659.0714133126395,241.57142761775424,2734.6,659.0714133126395,241.57142761775424,2849.6,659.0714133126395,241.57142761775424,2958,659.0714133126395,241.57142761775424,3058.6,659.0714133126395,241.57142761775424,3159.5,659.0714133126395,241.57142761775424,3266.5,659.0714133126395,241.57142761775424,3375.6,659.0714133126395,241.57142761775424,3482.6,659.0714133126395,241.57142761775424,3584.2,659.0714133126395,241.57142761775424,3689.8,659.0714133126395,241.57142761775424,3791.9,659.0714133126395,241.57142761775424,3893.3,659.0714133126395,241.57142761775424,3999.3,659.0714133126395,241.57142761775424,4101.3,659.0714133126395,241.57142761775424,4207,659.0714133126395,241.57142761775424,4312.4,659.0714133126395,241.57142761775424,4415.1,659.0714133126395,241.57142761775424,4516.2,659.0714133126395,241.57142761775424,4624.2,659.0714133126395,241.57142761775424,4732,659.0714133126395,241.57142761775424,4832.5,659.0714133126395,241.57142761775424,4932.6]","[1413.2,1413.2,1000,0,413.2,""oops"",""up"",""up"",""good_move"",4379.4,2965.6,2531,1413.8,434.6,""oops"",""up"",""left"",""bad_move"",7085.6,2706,2291.7,4379.6,414.3,""oops"",""up"",""right"",""good_move"",9183.6,2097.6,1786.9,7086,310.7,""while_blue"",""up"",""down"",""bad_move"",12260.2,3076.1,2591.3,9184.1,484.8,""oops"",""up"",""right"",""good_move"",15967.5,3706.7,3293,12260.8,413.7,""oops"",""up"",""up"",""good_move"",19555.6,3587.7,3103,15967.9,484.7,""oops"",""right"",""right"",""good_move"",21708.3,2152.5,1753.8,19555.8,398.7,""oops"",""up"",""left"",""bad_move"",24205.9,2497.1,2076.3,21708.8,420.8,""smooth"",""up"",""up"",""good_move"",27335,3128.6,2824.7,24206.4,303.9,""oops"",""right"",""up"",""good_move"",30825.9,3490.8,3161.9,27335.2,328.9,""smooth"",""right"",""right"",""good_move"",36894.1,6067.4,2242.9,34355.4,295.8,""while_blue"",""right"",""down"",""bad_move"",39398.1,2503.6,2012.8,36894.5,490.8,""oops"",""up"",""down"",""bad_move""]","",""
"5720","","<div style=""width:500px;"">
  <p>What determined the result of this run?</p>
  </div>","25","html-slider-response","50","578386","0.0-5.0-1.8","58","1","2025-07-16 08:25:24","1f75c3e559b7213887762d5229550c2b","136.185.210.208","Mozilla/5.0 (Windows NT 10.0; Win64; x64) AppleWebKit/537.36 (KHTML, like Gecko) Chrome/137.0.0.0 Safari/537.36","WebKit","Chrome","137.0.0.0","Windows","10.0","https://app.prolific.com/","en-US,en;q=0.9","664b3888f484550fe6d377bc","686e379bc37a29ffa5cdc956","687761a00701d5b07a938bed","1","1","664b3888f484550fe6d377bc","1","1","2025-07-16T08:35:05.291Z","","","","","","","","","","","AttribQ","","50","","","","","","","","","","","","","","","","","","","","","","","","","","","","",""
"2578","","<div style=""width:500px;"">
  <p>How much control did you have over the ball?</p>
  </div>","26","html-slider-response","51","580967","0.0-5.0-2.8","58","1","2025-07-16 08:25:24","1f75c3e559b7213887762d5229550c2b","136.185.210.208","Mozilla/5.0 (Windows NT 10.0; Win64; x64) AppleWebKit/537.36 (KHTML, like Gecko) Chrome/137.0.0.0 Safari/537.36","WebKit","Chrome","137.0.0.0","Windows","10.0","https://app.prolific.com/","en-US,en;q=0.9","664b3888f484550fe6d377bc","686e379bc37a29ffa5cdc956","687761a00701d5b07a938bed","1","1","664b3888f484550fe6d377bc","1","1","2025-07-16T08:35:07.871Z","","","","","","","","","","","ControlQ","","50","","","","","","","","","","","","","","","","","","","","","","","","","","","","",""
"4975","","<div style=""width:500px;"">
  <p>How would you describe your current emotional state?</p>
  </div>","29","html-slider-response","52","585943","0.0-5.0-3.8","58","1","2025-07-16 08:25:24","1f75c3e559b7213887762d5229550c2b","136.185.210.208","Mozilla/5.0 (Windows NT 10.0; Win64; x64) AppleWebKit/537.36 (KHTML, like Gecko) Chrome/137.0.0.0 Safari/537.36","WebKit","Chrome","137.0.0.0","Windows","10.0","https://app.prolific.com/","en-US,en;q=0.9","664b3888f484550fe6d377bc","686e379bc37a29ffa5cdc956","687761a00701d5b07a938bed","1","1","664b3888f484550fe6d377bc","1","1","2025-07-16T08:35:12.847Z","","","","","","","","","","","StressQ","","50","","","","","","","","","","","","","","","","","","","","","","","","","","","","",""
"3281","","<div style=""width:500px;"">
  <p>What best describes how you currently feel?</p>
  </div>","74","html-slider-response","53","589226","0.0-5.0-4.8","58","1","2025-07-16 08:25:24","1f75c3e559b7213887762d5229550c2b","136.185.210.208","Mozilla/5.0 (Windows NT 10.0; Win64; x64) AppleWebKit/537.36 (KHTML, like Gecko) Chrome/137.0.0.0 Safari/537.36","WebKit","Chrome","137.0.0.0","Windows","10.0","https://app.prolific.com/","en-US,en;q=0.9","664b3888f484550fe6d377bc","686e379bc37a29ffa5cdc956","687761a00701d5b07a938bed","1","1","664b3888f484550fe6d377bc","1","1","2025-07-16T08:35:16.131Z","","","","","","","","","","","MotivationQ","","50","","","","","","","","","","","","","","","","","","","","","","","","","","","","",""
"","","","","ctl-task-cpt","54","635457","0.0-5.0-0.9","58","1","2025-07-16 08:25:24","1f75c3e559b7213887762d5229550c2b","136.185.210.208","Mozilla/5.0 (Windows NT 10.0; Win64; x64) AppleWebKit/537.36 (KHTML, like Gecko) Chrome/137.0.0.0 Safari/537.36","WebKit","Chrome","137.0.0.0","Windows","10.0","https://app.prolific.com/","en-US,en;q=0.9","664b3888f484550fe6d377bc","686e379bc37a29ffa5cdc956","687761a00701d5b07a938bed","1","1","664b3888f484550fe6d377bc","1","1","2025-07-16T08:36:02.361Z","","","","","","","","","","","","","","win-only","2","g1:SE,g2:NW","0.4","10","0","593547.3","1115.9","6118.7","43217.6","1","4","8","6","1","1","1","17","16","0.12878787878787878","755.9","3000","635","[""down"",""right""]","{""num_key_presses"":8,""num_perfect"":3,""num_errors"":0,""num_randdir"":5,""num_randdir_good_moves"":3,""num_whilered"":0,""num_whileblue"":0,""num_blue"":4,""num_good_moves"":6}","[416.5714133126395,414.07142761775424,0.6,416.5714133126395,414.07142761775424,100.5,416.5714133126395,414.07142761775424,213.3,475.3214133126395,529.0714276177542,317.5,636.5714133126395,680.3214276177542,418.5,716.5714133126395,716.5714276177542,524.6,737.8214133126395,730.3214276177542,626.9,761.5714133126395,745.3214276177542,732.9,761.5714133126395,745.3214276177542,833.6,761.5714133126395,745.3214276177542,934.9,754.0714133126395,731.5714276177542,1038.7,751.5714133126395,712.8214276177542,1139.6,751.5714133126395,712.8214276177542,1241.2,751.5714133126395,712.8214276177542,1342.1,751.5714133126395,712.8214276177542,1446,751.5714133126395,712.8214276177542,1551,751.5714133126395,712.8214276177542,1666.1,751.5714133126395,712.8214276177542,1768.8,751.5714133126395,712.8214276177542,1873.1,751.5714133126395,712.8214276177542,1983.3,751.5714133126395,712.8214276177542,2098.5,751.5714133126395,712.8214276177542,2199.7,751.5714133126395,712.8214276177542,2304.3,751.5714133126395,712.8214276177542,2408.2,751.5714133126395,712.8214276177542,2508.8,751.5714133126395,712.8214276177542,2615.7,751.5714133126395,712.8214276177542,2718.1,751.5714133126395,712.8214276177542,2834.5,751.5714133126395,712.8214276177542,2947.7,751.5714133126395,712.8214276177542,3048.9,751.5714133126395,712.8214276177542,3155.7,751.5714133126395,712.8214276177542,3255.7,751.5714133126395,712.8214276177542,3359.9,751.5714133126395,712.8214276177542,3462.5,751.5714133126395,712.8214276177542,3562.8,751.5714133126395,712.8214276177542,3664.4,751.5714133126395,712.8214276177542,3767.3,751.5714133126395,712.8214276177542,3871.8,751.5714133126395,712.8214276177542,3972.7,751.5714133126395,712.8214276177542,4078.4,751.5714133126395,712.8214276177542,4179.2,751.5714133126395,712.8214276177542,4285.3,751.5714133126395,712.8214276177542,4385.5,751.5714133126395,712.8214276177542,4488.5,751.5714133126395,712.8214276177542,4597.4,751.5714133126395,712.8214276177542,4704.7,751.5714133126395,712.8214276177542,4813.9,751.5714133126395,712.8214276177542,4920.2]","[1587.7,1587.8,1000,0,587.8,""oops"",""right"",""up"",""bad_move"",12064.4,10476.1,3400,8220.7,443.8,""oops"",""left"",""up"",""bad_move"",15729.2,3664.4,3182.3,12064.9,482,""oops"",""right"",""down"",""good_move"",18134.5,2405,1922.6,15729.6,482.4,""smooth"",""right"",""right"",""good_move"",29331.5,11196.1,2661.5,26205.5,464.5,""smooth"",""right"",""right"",""good_move"",31769.2,2437.4,1937.9,29331.9,499.5,""smooth"",""down"",""down"",""good_move"",34177.4,2403.9,1944.8,31773.5,459.1,""oops"",""down"",""down"",""good_move"",36966.5,2788.7,2339.4,34177.8,449.3,""oops"",""down"",""down"",""good_move""]","",""
"4423","","<div style=""width:500px;"">
  <p>What determined the result of this run?</p>
  </div>","62","html-slider-response","55","639880","0.0-5.0-1.9","58","1","2025-07-16 08:25:24","1f75c3e559b7213887762d5229550c2b","136.185.210.208","Mozilla/5.0 (Windows NT 10.0; Win64; x64) AppleWebKit/537.36 (KHTML, like Gecko) Chrome/137.0.0.0 Safari/537.36","WebKit","Chrome","137.0.0.0","Windows","10.0","https://app.prolific.com/","en-US,en;q=0.9","664b3888f484550fe6d377bc","686e379bc37a29ffa5cdc956","687761a00701d5b07a938bed","1","1","664b3888f484550fe6d377bc","1","1","2025-07-16T08:36:06.785Z","","","","","","","","","","","AttribQ","","50","","","","","","","","","","","","","","","","","","","","","","","","","","","","",""
"3894","","<div style=""width:500px;"">
  <p>How much control did you have over the ball?</p>
  </div>","59","html-slider-response","56","643777","0.0-5.0-2.9","58","1","2025-07-16 08:25:24","1f75c3e559b7213887762d5229550c2b","136.185.210.208","Mozilla/5.0 (Windows NT 10.0; Win64; x64) AppleWebKit/537.36 (KHTML, like Gecko) Chrome/137.0.0.0 Safari/537.36","WebKit","Chrome","137.0.0.0","Windows","10.0","https://app.prolific.com/","en-US,en;q=0.9","664b3888f484550fe6d377bc","686e379bc37a29ffa5cdc956","687761a00701d5b07a938bed","1","1","664b3888f484550fe6d377bc","1","1","2025-07-16T08:36:10.681Z","","","","","","","","","","","ControlQ","","50","","","","","","","","","","","","","","","","","","","","","","","","","","","","",""
"4934","","<div style=""width:500px;"">
  <p>How would you describe your current emotional state?</p>
  </div>","32","html-slider-response","57","648713","0.0-5.0-3.9","58","1","2025-07-16 08:25:24","1f75c3e559b7213887762d5229550c2b","136.185.210.208","Mozilla/5.0 (Windows NT 10.0; Win64; x64) AppleWebKit/537.36 (KHTML, like Gecko) Chrome/137.0.0.0 Safari/537.36","WebKit","Chrome","137.0.0.0","Windows","10.0","https://app.prolific.com/","en-US,en;q=0.9","664b3888f484550fe6d377bc","686e379bc37a29ffa5cdc956","687761a00701d5b07a938bed","1","1","664b3888f484550fe6d377bc","1","1","2025-07-16T08:36:15.618Z","","","","","","","","","","","StressQ","","50","","","","","","","","","","","","","","","","","","","","","","","","","","","","",""
"3885","","<div style=""width:500px;"">
  <p>What best describes how you currently feel?</p>
  </div>","65","html-slider-response","58","652601","0.0-5.0-4.9","58","1","2025-07-16 08:25:24","1f75c3e559b7213887762d5229550c2b","136.185.210.208","Mozilla/5.0 (Windows NT 10.0; Win64; x64) AppleWebKit/537.36 (KHTML, like Gecko) Chrome/137.0.0.0 Safari/537.36","WebKit","Chrome","137.0.0.0","Windows","10.0","https://app.prolific.com/","en-US,en;q=0.9","664b3888f484550fe6d377bc","686e379bc37a29ffa5cdc956","687761a00701d5b07a938bed","1","1","664b3888f484550fe6d377bc","1","1","2025-07-16T08:36:19.506Z","","","","","","","","","","","MotivationQ","","50","","","","","","","","","","","","","","","","","","","","","","","","","","","","",""
"","","","","ctl-task-cpt","59","694427","0.0-5.0-0.10","58","1","2025-07-16 08:25:24","1f75c3e559b7213887762d5229550c2b","136.185.210.208","Mozilla/5.0 (Windows NT 10.0; Win64; x64) AppleWebKit/537.36 (KHTML, like Gecko) Chrome/137.0.0.0 Safari/537.36","WebKit","Chrome","137.0.0.0","Windows","10.0","https://app.prolific.com/","en-US,en;q=0.9","664b3888f484550fe6d377bc","686e379bc37a29ffa5cdc956","687761a00701d5b07a938bed","1","1","664b3888f484550fe6d377bc","1","1","2025-07-16T08:37:01.331Z","","","","","","","","","","","","","","win-only","0","g1:NW,g2:SE","0.5","11","0","656921.2","1618.8","6623.1","38814","1","4","8","6","1","1","1","18","17","0.13636363636363635","1046.6","3000","425","[""left"",""up""]","{""num_key_presses"":8,""num_perfect"":4,""num_errors"":0,""num_randdir"":4,""num_randdir_good_moves"":2,""num_whilered"":0,""num_whileblue"":0,""num_blue"":3,""num_good_moves"":6}","[416.5714133126395,406.57142761775424,0.3,416.5714133126395,406.57142761775424,106.6,416.5714133126395,406.57142761775424,207.4,416.5714133126395,406.57142761775424,312.3,659.0714133126395,641.5714276177542,421.3,669.0714133126395,650.3214276177542,524.4,376.5714133126395,389.07142761775424,629.8,174.0714133126395,219.07142761775424,730,40.32141331263951,106.57142761775425,832.5,16.571413312639507,45.32142761775425,934.5,16.571413312639507,45.32142761775425,1037.2,16.571413312639507,45.32142761775425,1138.1,16.571413312639507,45.32142761775425,1240.6,16.571413312639507,45.32142761775425,1345.7,16.571413312639507,45.32142761775425,1446.6,17.821413312639507,45.32142761775425,1554.1,17.821413312639507,45.32142761775425,1655.9,17.821413312639507,45.32142761775425,1757.5,17.821413312639507,45.32142761775425,1864.1,17.821413312639507,45.32142761775425,1966,17.821413312639507,45.32142761775425,2069.3,17.821413312639507,45.32142761775425,2170.7,17.821413312639507,45.32142761775425,2275.6,17.821413312639507,45.32142761775425,2376.2,17.821413312639507,45.32142761775425,2478.4,17.821413312639507,45.32142761775425,2585.7,17.821413312639507,45.32142761775425,2686.8,17.821413312639507,45.32142761775425,2793.5,17.821413312639507,45.32142761775425,2899.7,17.821413312639507,45.32142761775425,3001.3,17.821413312639507,45.32142761775425,3102.5,17.821413312639507,45.32142761775425,3209.8,17.821413312639507,45.32142761775425,3318.7,17.821413312639507,45.32142761775425,3427.3,17.821413312639507,45.32142761775425,3527.4,17.821413312639507,45.32142761775425,3628,17.821413312639507,45.32142761775425,3728.3,17.821413312639507,45.32142761775425,3834.7,17.821413312639507,45.32142761775425,3935.8,17.821413312639507,45.32142761775425,4042.3,17.821413312639507,45.32142761775425,4149.7,17.821413312639507,45.32142761775425,4251.1,17.821413312639507,45.32142761775425,4359.3,17.821413312639507,45.32142761775425,4467.7,17.821413312639507,45.32142761775425,4567.7,17.821413312639507,45.32142761775425,4678.2,17.821413312639507,45.32142761775425,4782.7,17.821413312639507,45.32142761775425,4883.8,17.821413312639507,45.32142761775425,4983.8]","[9356.1,9356.1,3148.3,5353.4,854.4,""oops"",""left"",""right"",""bad_move"",11853,2496.4,2102.5,9356.6,393.9,""oops"",""up"",""up"",""good_move"",14849.8,2996.3,2514,11853.5,482.3,""oops"",""right"",""down"",""bad_move"",17961.2,3111.1,2758.6,14850.2,352.5,""smooth"",""left"",""left"",""good_move"",20337,2375.5,2012.3,17961.6,363.1,""smooth"",""left"",""left"",""good_move"",26750.4,6413,2853.4,23532.3,364.7,""smooth"",""left"",""left"",""good_move"",29814.3,3063.8,2679.2,26750.5,384.6,""smooth"",""up"",""up"",""good_move"",32060.3,2245.5,1846.8,29814.9,398.7,""oops"",""up"",""up"",""good_move""]","",""
"4053","","<div style=""width:500px;"">
  <p>What determined the result of this run?</p>
  </div>","60","html-slider-response","60","698481","0.0-5.0-1.10","58","1","2025-07-16 08:25:24","1f75c3e559b7213887762d5229550c2b","136.185.210.208","Mozilla/5.0 (Windows NT 10.0; Win64; x64) AppleWebKit/537.36 (KHTML, like Gecko) Chrome/137.0.0.0 Safari/537.36","WebKit","Chrome","137.0.0.0","Windows","10.0","https://app.prolific.com/","en-US,en;q=0.9","664b3888f484550fe6d377bc","686e379bc37a29ffa5cdc956","687761a00701d5b07a938bed","1","1","664b3888f484550fe6d377bc","1","1","2025-07-16T08:37:05.386Z","","","","","","","","","","","AttribQ","","50","","","","","","","","","","","","","","","","","","","","","","","","","","","","",""
"2044","","<div style=""width:500px;"">
  <p>How much control did you have over the ball?</p>
  </div>","63","html-slider-response","61","700529","0.0-5.0-2.10","58","1","2025-07-16 08:25:24","1f75c3e559b7213887762d5229550c2b","136.185.210.208","Mozilla/5.0 (Windows NT 10.0; Win64; x64) AppleWebKit/537.36 (KHTML, like Gecko) Chrome/137.0.0.0 Safari/537.36","WebKit","Chrome","137.0.0.0","Windows","10.0","https://app.prolific.com/","en-US,en;q=0.9","664b3888f484550fe6d377bc","686e379bc37a29ffa5cdc956","687761a00701d5b07a938bed","1","1","664b3888f484550fe6d377bc","1","1","2025-07-16T08:37:07.433Z","","","","","","","","","","","ControlQ","","50","","","","","","","","","","","","","","","","","","","","","","","","","","","","",""
"2838","","<div style=""width:500px;"">
  <p>How would you describe your current emotional state?</p>
  </div>","35","html-slider-response","62","703369","0.0-5.0-3.10","58","1","2025-07-16 08:25:24","1f75c3e559b7213887762d5229550c2b","136.185.210.208","Mozilla/5.0 (Windows NT 10.0; Win64; x64) AppleWebKit/537.36 (KHTML, like Gecko) Chrome/137.0.0.0 Safari/537.36","WebKit","Chrome","137.0.0.0","Windows","10.0","https://app.prolific.com/","en-US,en;q=0.9","664b3888f484550fe6d377bc","686e379bc37a29ffa5cdc956","687761a00701d5b07a938bed","1","1","664b3888f484550fe6d377bc","1","1","2025-07-16T08:37:10.273Z","","","","","","","","","","","StressQ","","50","","","","","","","","","","","","","","","","","","","","","","","","","","","","",""
"4862","","<div style=""width:500px;"">
  <p>What best describes how you currently feel?</p>
  </div>","62","html-slider-response","63","708233","0.0-5.0-4.10","58","1","2025-07-16 08:25:24","1f75c3e559b7213887762d5229550c2b","136.185.210.208","Mozilla/5.0 (Windows NT 10.0; Win64; x64) AppleWebKit/537.36 (KHTML, like Gecko) Chrome/137.0.0.0 Safari/537.36","WebKit","Chrome","137.0.0.0","Windows","10.0","https://app.prolific.com/","en-US,en;q=0.9","664b3888f484550fe6d377bc","686e379bc37a29ffa5cdc956","687761a00701d5b07a938bed","1","1","664b3888f484550fe6d377bc","1","1","2025-07-16T08:37:15.138Z","","","","","","","","","","","MotivationQ","","50","","","","","","","","","","","","","","","","","","","","","","","","","","","","",""
"","","","","ctl-task-cpt","64","743380","0.0-5.0-0.11","58","1","2025-07-16 08:25:24","1f75c3e559b7213887762d5229550c2b","136.185.210.208","Mozilla/5.0 (Windows NT 10.0; Win64; x64) AppleWebKit/537.36 (KHTML, like Gecko) Chrome/137.0.0.0 Safari/537.36","WebKit","Chrome","137.0.0.0","Windows","10.0","https://app.prolific.com/","en-US,en;q=0.9","664b3888f484550fe6d377bc","686e379bc37a29ffa5cdc956","687761a00701d5b07a938bed","1","1","664b3888f484550fe6d377bc","1","1","2025-07-16T08:37:50.284Z","","","","","","","","","","","","","","win-only","3","g1:SW,g2:NE","0.6","12","0","712553.8","1449.6","6460.9","32134.9","1","4","4","6","1","-1","-1","17","18","0.12878787878787878","1007.7","3000","-2250","[""down"",""left""]","{""num_key_presses"":7,""num_perfect"":5,""num_errors"":0,""num_randdir"":2,""num_randdir_good_moves"":0,""num_whilered"":0,""num_whileblue"":0,""num_blue"":1,""num_good_moves"":5}","[417.8214133126395,427.82142761775424,0.8,417.8214133126395,427.82142761775424,106.5,417.8214133126395,427.82142761775424,207.7,417.8214133126395,427.82142761775424,308.8,417.8214133126395,427.82142761775424,415,416.5714133126395,427.82142761775424,515.5,196.5714133126395,609.0714276177542,619,141.5714133126395,721.5714276177542,733.6,139.0714133126395,721.5714276177542,834.6,121.5714133126395,729.0714276177542,939.6,121.5714133126395,729.0714276177542,1039.8,121.5714133126395,729.0714276177542,1151.7,114.0714133126395,729.0714276177542,1255.6,114.0714133126395,729.0714276177542,1365,114.0714133126395,729.0714276177542,1465.5,114.0714133126395,729.0714276177542,1566.1,114.0714133126395,729.0714276177542,1680.2,114.0714133126395,729.0714276177542,1785.6,114.0714133126395,729.0714276177542,1887.2,114.0714133126395,729.0714276177542,1989.4,114.0714133126395,729.0714276177542,2091,114.0714133126395,729.0714276177542,2195.1,114.0714133126395,729.0714276177542,2296.7,114.0714133126395,729.0714276177542,2400.4,114.0714133126395,729.0714276177542,2504,114.0714133126395,729.0714276177542,2605.2,114.0714133126395,729.0714276177542,2705.7,114.0714133126395,729.0714276177542,2813.7,114.0714133126395,729.0714276177542,2921.4,114.0714133126395,729.0714276177542,3026.5,114.0714133126395,729.0714276177542,3129.9,114.0714133126395,729.0714276177542,3231.8,114.0714133126395,729.0714276177542,3337.8,114.0714133126395,729.0714276177542,3449.5,114.0714133126395,729.0714276177542,3564.5,114.0714133126395,729.0714276177542,3671.8,114.0714133126395,729.0714276177542,3779.8,114.0714133126395,729.0714276177542,3880.7,114.0714133126395,729.0714276177542,3985.7,114.0714133126395,729.0714276177542,4098.9,114.0714133126395,729.0714276177542,4209.3,114.0714133126395,729.0714276177542,4313,114.0714133126395,729.0714276177542,4430,114.0714133126395,729.0714276177542,4532.6,114.0714133126395,729.0714276177542,4646.4,114.0714133126395,729.0714276177542,4753.4,114.0714133126395,729.0714276177542,4860.2,114.0714133126395,729.0714276177542,4963.6]","[2183.7,2183.7,1000,0,1183.7,""oops"",""left"",""right"",""bad_move"",5339.4,3155.2,2712.8,2184.2,442.4,""smooth"",""down"",""down"",""good_move"",8617.4,3277.6,2878.4,5339.8,399.2,""smooth"",""left"",""left"",""good_move"",11695,3077.1,2699.1,8617.9,378,""smooth"",""left"",""left"",""good_move"",18382.2,6686.8,2532.2,15441.5,408.5,""oops"",""left"",""right"",""bad_move"",20417,2034.5,1595.9,18382.5,438.6,""smooth"",""down"",""down"",""good_move"",23106.3,2689,2272.7,20417.3,416.3,""smooth"",""left"",""left"",""good_move""]","",""
"13457","","<div style=""width:500px;"">
  <p>What determined the result of this run?</p>
  </div>","21","html-slider-response","65","756839","0.0-5.0-1.11","58","1","2025-07-16 08:25:24","1f75c3e559b7213887762d5229550c2b","136.185.210.208","Mozilla/5.0 (Windows NT 10.0; Win64; x64) AppleWebKit/537.36 (KHTML, like Gecko) Chrome/137.0.0.0 Safari/537.36","WebKit","Chrome","137.0.0.0","Windows","10.0","https://app.prolific.com/","en-US,en;q=0.9","664b3888f484550fe6d377bc","686e379bc37a29ffa5cdc956","687761a00701d5b07a938bed","1","1","664b3888f484550fe6d377bc","1","1","2025-07-16T08:38:03.743Z","","","","","","","","","","","AttribQ","","50","","","","","","","","","","","","","","","","","","","","","","","","","","","","",""
"4455","","<div style=""width:500px;"">
  <p>How much control did you have over the ball?</p>
  </div>","10","html-slider-response","66","761297","0.0-5.0-2.11","58","1","2025-07-16 08:25:24","1f75c3e559b7213887762d5229550c2b","136.185.210.208","Mozilla/5.0 (Windows NT 10.0; Win64; x64) AppleWebKit/537.36 (KHTML, like Gecko) Chrome/137.0.0.0 Safari/537.36","WebKit","Chrome","137.0.0.0","Windows","10.0","https://app.prolific.com/","en-US,en;q=0.9","664b3888f484550fe6d377bc","686e379bc37a29ffa5cdc956","687761a00701d5b07a938bed","1","1","664b3888f484550fe6d377bc","1","1","2025-07-16T08:38:08.201Z","","","","","","","","","","","ControlQ","","50","","","","","","","","","","","","","","","","","","","","","","","","","","","","",""
"11515","","<div style=""width:500px;"">
  <p>How would you describe your current emotional state?</p>
  </div>","39","html-slider-response","67","772815","0.0-5.0-3.11","58","1","2025-07-16 08:25:24","1f75c3e559b7213887762d5229550c2b","136.185.210.208","Mozilla/5.0 (Windows NT 10.0; Win64; x64) AppleWebKit/537.36 (KHTML, like Gecko) Chrome/137.0.0.0 Safari/537.36","WebKit","Chrome","137.0.0.0","Windows","10.0","https://app.prolific.com/","en-US,en;q=0.9","664b3888f484550fe6d377bc","686e379bc37a29ffa5cdc956","687761a00701d5b07a938bed","1","1","664b3888f484550fe6d377bc","1","1","2025-07-16T08:38:19.719Z","","","","","","","","","","","StressQ","","50","","","","","","","","","","","","","","","","","","","","","","","","","","","","",""
"5800","","<div style=""width:500px;"">
  <p>What best describes how you currently feel?</p>
  </div>","58","html-slider-response","68","778617","0.0-5.0-4.11","58","1","2025-07-16 08:25:24","1f75c3e559b7213887762d5229550c2b","136.185.210.208","Mozilla/5.0 (Windows NT 10.0; Win64; x64) AppleWebKit/537.36 (KHTML, like Gecko) Chrome/137.0.0.0 Safari/537.36","WebKit","Chrome","137.0.0.0","Windows","10.0","https://app.prolific.com/","en-US,en;q=0.9","664b3888f484550fe6d377bc","686e379bc37a29ffa5cdc956","687761a00701d5b07a938bed","1","1","664b3888f484550fe6d377bc","1","1","2025-07-16T08:38:25.522Z","","","","","","","","","","","MotivationQ","","50","","","","","","","","","","","","","","","","","","","","","","","","","","","","",""
"","","","","ctl-task-cpt","69","807321","0.0-5.0-0.12","58","1","2025-07-16 08:25:24","1f75c3e559b7213887762d5229550c2b","136.185.210.208","Mozilla/5.0 (Windows NT 10.0; Win64; x64) AppleWebKit/537.36 (KHTML, like Gecko) Chrome/137.0.0.0 Safari/537.36","WebKit","Chrome","137.0.0.0","Windows","10.0","https://app.prolific.com/","en-US,en;q=0.9","664b3888f484550fe6d377bc","686e379bc37a29ffa5cdc956","687761a00701d5b07a938bed","1","1","664b3888f484550fe6d377bc","1","1","2025-07-16T08:38:54.225Z","","","","","","","","","","","","","","win-only","1","g1:NE,g2:SW","0.7","13","0","782937.4","1080.8","6089.6","25692.1","1","4","4","6","1","1","1","18","17","0.13636363636363635","1159.7","3000","1380","[""up"",""right""]","{""num_key_presses"":4,""num_perfect"":3,""num_errors"":0,""num_randdir"":1,""num_randdir_good_moves"":1,""num_whilered"":0,""num_whileblue"":0,""num_blue"":2,""num_good_moves"":4}","[417.8214133126395,421.57142761775424,0.3,417.8214133126395,421.57142761775424,103,417.8214133126395,421.57142761775424,210.8,417.8214133126395,421.57142761775424,319.5,417.8214133126395,421.57142761775424,426.1,417.8214133126395,421.57142761775424,534.2,577.8214133126395,281.57142761775424,637.4,721.5714133126395,131.57142761775424,741,744.0714133126395,106.57142761775425,843,754.0714133126395,96.57142761775425,949.8,754.0714133126395,96.57142761775425,1051.9,754.0714133126395,96.57142761775425,1155.5,754.0714133126395,96.57142761775425,1266,754.0714133126395,96.57142761775425,1368.8,754.0714133126395,96.57142761775425,1477.4,754.0714133126395,96.57142761775425,1583.9,750.3214133126395,97.82142761775425,1690.1,750.3214133126395,97.82142761775425,1790.3,750.3214133126395,97.82142761775425,1896.5,750.3214133126395,97.82142761775425,2001.2,750.3214133126395,97.82142761775425,2107.1,750.3214133126395,97.82142761775425,2209,750.3214133126395,97.82142761775425,2315.2,750.3214133126395,97.82142761775425,2423.1,750.3214133126395,97.82142761775425,2523.6,750.3214133126395,97.82142761775425,2624.8,750.3214133126395,97.82142761775425,2725.4,750.3214133126395,97.82142761775425,2830.1,750.3214133126395,97.82142761775425,2930.3,750.3214133126395,97.82142761775425,3033.8,750.3214133126395,97.82142761775425,3145.1,750.3214133126395,97.82142761775425,3246,750.3214133126395,97.82142761775425,3347.1,750.3214133126395,97.82142761775425,3448.5,750.3214133126395,97.82142761775425,3556.1,750.3214133126395,97.82142761775425,3660.5,750.3214133126395,97.82142761775425,3765.4,750.3214133126395,97.82142761775425,3865.8,750.3214133126395,97.82142761775425,3971.8,750.3214133126395,97.82142761775425,4075.9,750.3214133126395,97.82142761775425,4176.7,750.3214133126395,97.82142761775425,4286.2,750.3214133126395,97.82142761775425,4389.2,750.3214133126395,97.82142761775425,4497.1,750.3214133126395,97.82142761775425,4606.3,750.3214133126395,97.82142761775425,4712.6,750.3214133126395,97.82142761775425,4813,750.3214133126395,97.82142761775425,4921.9]","[1944,1944,1000,0,944,""oops"",""up"",""up"",""good_move"",4961.2,3016.7,2555.3,1944.6,461.3,""smooth"",""up"",""up"",""good_move"",8591.6,3629.3,3193.1,4962.3,436.2,""smooth"",""right"",""right"",""good_move"",19472.9,10879.5,2578.3,16417.2,477.4,""smooth"",""right"",""right"",""good_move""]","",""
"2197","","<div style=""width:500px;"">
  <p>What determined the result of this run?</p>
  </div>","97","html-slider-response","70","809520","0.0-5.0-1.12","58","1","2025-07-16 08:25:24","1f75c3e559b7213887762d5229550c2b","136.185.210.208","Mozilla/5.0 (Windows NT 10.0; Win64; x64) AppleWebKit/537.36 (KHTML, like Gecko) Chrome/137.0.0.0 Safari/537.36","WebKit","Chrome","137.0.0.0","Windows","10.0","https://app.prolific.com/","en-US,en;q=0.9","664b3888f484550fe6d377bc","686e379bc37a29ffa5cdc956","687761a00701d5b07a938bed","1","1","664b3888f484550fe6d377bc","1","1","2025-07-16T08:38:56.424Z","","","","","","","","","","","AttribQ","","50","","","","","","","","","","","","","","","","","","","","","","","","","","","","",""
"2575","","<div style=""width:500px;"">
  <p>How much control did you have over the ball?</p>
  </div>","95","html-slider-response","71","812097","0.0-5.0-2.12","58","1","2025-07-16 08:25:24","1f75c3e559b7213887762d5229550c2b","136.185.210.208","Mozilla/5.0 (Windows NT 10.0; Win64; x64) AppleWebKit/537.36 (KHTML, like Gecko) Chrome/137.0.0.0 Safari/537.36","WebKit","Chrome","137.0.0.0","Windows","10.0","https://app.prolific.com/","en-US,en;q=0.9","664b3888f484550fe6d377bc","686e379bc37a29ffa5cdc956","687761a00701d5b07a938bed","1","1","664b3888f484550fe6d377bc","1","1","2025-07-16T08:38:59.001Z","","","","","","","","","","","ControlQ","","50","","","","","","","","","","","","","","","","","","","","","","","","","","","","",""
"3309","","<div style=""width:500px;"">
  <p>How would you describe your current emotional state?</p>
  </div>","15","html-slider-response","72","815408","0.0-5.0-3.12","58","1","2025-07-16 08:25:24","1f75c3e559b7213887762d5229550c2b","136.185.210.208","Mozilla/5.0 (Windows NT 10.0; Win64; x64) AppleWebKit/537.36 (KHTML, like Gecko) Chrome/137.0.0.0 Safari/537.36","WebKit","Chrome","137.0.0.0","Windows","10.0","https://app.prolific.com/","en-US,en;q=0.9","664b3888f484550fe6d377bc","686e379bc37a29ffa5cdc956","687761a00701d5b07a938bed","1","1","664b3888f484550fe6d377bc","1","1","2025-07-16T08:39:02.313Z","","","","","","","","","","","StressQ","","50","","","","","","","","","","","","","","","","","","","","","","","","","","","","",""
"1861","","<div style=""width:500px;"">
  <p>What best describes how you currently feel?</p>
  </div>","86","html-slider-response","73","817274","0.0-5.0-4.12","58","1","2025-07-16 08:25:24","1f75c3e559b7213887762d5229550c2b","136.185.210.208","Mozilla/5.0 (Windows NT 10.0; Win64; x64) AppleWebKit/537.36 (KHTML, like Gecko) Chrome/137.0.0.0 Safari/537.36","WebKit","Chrome","137.0.0.0","Windows","10.0","https://app.prolific.com/","en-US,en;q=0.9","664b3888f484550fe6d377bc","686e379bc37a29ffa5cdc956","687761a00701d5b07a938bed","1","1","664b3888f484550fe6d377bc","1","1","2025-07-16T08:39:04.178Z","","","","","","","","","","","MotivationQ","","50","","","","","","","","","","","","","","","","","","","","","","","","","","","","",""
"","","","","ctl-task-cpt","74","845936","0.0-5.0-0.13","58","1","2025-07-16 08:25:24","1f75c3e559b7213887762d5229550c2b","136.185.210.208","Mozilla/5.0 (Windows NT 10.0; Win64; x64) AppleWebKit/537.36 (KHTML, like Gecko) Chrome/137.0.0.0 Safari/537.36","WebKit","Chrome","137.0.0.0","Windows","10.0","https://app.prolific.com/","en-US,en;q=0.9","664b3888f484550fe6d377bc","686e379bc37a29ffa5cdc956","687761a00701d5b07a938bed","1","1","664b3888f484550fe6d377bc","1","1","2025-07-16T08:39:32.840Z","","","","","","","","","","","","","","win-only","1","g1:NE,g2:SW","0.8","14","0","821594.8","1032.4","6033.7","25650.9","1","4","8","6","2","8","8","26","18","0.19696969696969696","756.2","3000","1295","[""down"",""left""]","{""num_key_presses"":6,""num_perfect"":5,""num_errors"":0,""num_randdir"":1,""num_randdir_good_moves"":1,""num_whilered"":0,""num_whileblue"":0,""num_blue"":1,""num_good_moves"":6}","[412.8214133126395,416.57142761775424,1.1,412.8214133126395,416.57142761775424,105.3,412.8214133126395,416.57142761775424,206.7,419.0714133126395,481.57142761775424,306.8,262.8214133126395,720.3214276177542,415,159.0714133126395,779.0714276177542,521.6,112.8214133126395,769.0714276177542,631.3,101.5714133126395,767.8214276177542,731.3,101.5714133126395,767.8214276177542,840.6,101.5714133126395,767.8214276177542,958.6,101.5714133126395,767.8214276177542,1060.7,101.5714133126395,767.8214276177542,1175.4,101.5714133126395,767.8214276177542,1292.5,101.5714133126395,767.8214276177542,1398.9,101.5714133126395,767.8214276177542,1499.3,101.5714133126395,767.8214276177542,1610.3,101.5714133126395,767.8214276177542,1724,101.5714133126395,767.8214276177542,1840.7,101.5714133126395,767.8214276177542,1948.5,101.5714133126395,767.8214276177542,2051.2,101.5714133126395,767.8214276177542,2156.6,101.5714133126395,767.8214276177542,2258.6,101.5714133126395,767.8214276177542,2362.6,101.5714133126395,767.8214276177542,2473.7,101.5714133126395,767.8214276177542,2578.2,101.5714133126395,767.8214276177542,2692.1,101.5714133126395,767.8214276177542,2796,101.5714133126395,767.8214276177542,2907.9,101.5714133126395,767.8214276177542,3011.1,101.5714133126395,767.8214276177542,3111.6,101.5714133126395,767.8214276177542,3212.1,101.5714133126395,767.8214276177542,3316.7,101.5714133126395,767.8214276177542,3426.4,101.5714133126395,767.8214276177542,3529.1,101.5714133126395,767.8214276177542,3629.1,101.5714133126395,767.8214276177542,3729.2,101.5714133126395,767.8214276177542,3831.9,101.5714133126395,767.8214276177542,3938.9,101.5714133126395,767.8214276177542,4045.3,101.5714133126395,767.8214276177542,4147.2,101.5714133126395,767.8214276177542,4251.1,101.5714133126395,767.8214276177542,4356.4,101.5714133126395,767.8214276177542,4463.1,101.5714133126395,767.8214276177542,4567.1,101.5714133126395,767.8214276177542,4668.7,101.5714133126395,767.8214276177542,4779.3,101.5714133126395,767.8214276177542,4881.7,101.5714133126395,767.8214276177542,4987.4]","[1478,1478,1000,0,478,""smooth"",""left"",""left"",""good_move"",7310.4,5832.1,1860.1,5056.9,393.4,""smooth"",""left"",""left"",""good_move"",10154.5,2844,2472.1,7310.5,371.9,""oops"",""left"",""left"",""good_move"",12622.7,2468.1,2088.4,10154.7,379.7,""smooth"",""down"",""down"",""good_move"",16828,4204.2,3828.3,12623.8,375.9,""smooth"",""down"",""down"",""good_move"",19503.2,2674.9,2285.5,16828.3,389.4,""smooth"",""down"",""down"",""good_move""]","",""
"2919","","<div style=""width:500px;"">
  <p>What determined the result of this run?</p>
  </div>","97","html-slider-response","75","848857","0.0-5.0-1.13","58","1","2025-07-16 08:25:24","1f75c3e559b7213887762d5229550c2b","136.185.210.208","Mozilla/5.0 (Windows NT 10.0; Win64; x64) AppleWebKit/537.36 (KHTML, like Gecko) Chrome/137.0.0.0 Safari/537.36","WebKit","Chrome","137.0.0.0","Windows","10.0","https://app.prolific.com/","en-US,en;q=0.9","664b3888f484550fe6d377bc","686e379bc37a29ffa5cdc956","687761a00701d5b07a938bed","1","1","664b3888f484550fe6d377bc","1","1","2025-07-16T08:39:35.761Z","","","","","","","","","","","AttribQ","","50","","","","","","","","","","","","","","","","","","","","","","","","","","","","",""
"1781","","<div style=""width:500px;"">
  <p>How much control did you have over the ball?</p>
  </div>","94","html-slider-response","76","850641","0.0-5.0-2.13","58","1","2025-07-16 08:25:24","1f75c3e559b7213887762d5229550c2b","136.185.210.208","Mozilla/5.0 (Windows NT 10.0; Win64; x64) AppleWebKit/537.36 (KHTML, like Gecko) Chrome/137.0.0.0 Safari/537.36","WebKit","Chrome","137.0.0.0","Windows","10.0","https://app.prolific.com/","en-US,en;q=0.9","664b3888f484550fe6d377bc","686e379bc37a29ffa5cdc956","687761a00701d5b07a938bed","1","1","664b3888f484550fe6d377bc","1","1","2025-07-16T08:39:37.545Z","","","","","","","","","","","ControlQ","","50","","","","","","","","","","","","","","","","","","","","","","","","","","","","",""
"3127","","<div style=""width:500px;"">
  <p>How would you describe your current emotional state?</p>
  </div>","12","html-slider-response","77","853771","0.0-5.0-3.13","58","1","2025-07-16 08:25:24","1f75c3e559b7213887762d5229550c2b","136.185.210.208","Mozilla/5.0 (Windows NT 10.0; Win64; x64) AppleWebKit/537.36 (KHTML, like Gecko) Chrome/137.0.0.0 Safari/537.36","WebKit","Chrome","137.0.0.0","Windows","10.0","https://app.prolific.com/","en-US,en;q=0.9","664b3888f484550fe6d377bc","686e379bc37a29ffa5cdc956","687761a00701d5b07a938bed","1","1","664b3888f484550fe6d377bc","1","1","2025-07-16T08:39:40.675Z","","","","","","","","","","","StressQ","","50","","","","","","","","","","","","","","","","","","","","","","","","","","","","",""
"2114","","<div style=""width:500px;"">
  <p>What best describes how you currently feel?</p>
