"rt","response_timestamp","stimulus","response","trial_type","trial_index","time_elapsed","internal_node_id","run_id","condition","recorded_at","source_code_version","ip","user_agent","device","browser","browser_version","platform","platform_version","referer","accept_language","PROLIFIC_PID","STUDY_ID","SESSION_ID","WEEK","BATCH","prolific_id","week","batch","realtime","success","responses","item_order","radio_event_ids","radio_event_times","key_event_times","mouse_event_times","straightlining","zigzagging","honeypot","eventType","view_history","slider_start","which_type","canvas_config","goals_layout","control_level","trial_number","tutorial_trial_number","trial_start_time","phase1_start_time","phase2_start_time","phase3_start_time","goal_1_value","goal_1_distance","goal_2_value","goal_2_distance","goal_selected","outcome","outcome_total","participant_final_score","participant_initial_score","participant_final_score_prop","goal_choice_rt","allocated_time","allocated_time_remaining","goal_direction","counts","mouse_movements","key_presses","question_order","question_id"
"3883","1752663107933","<p style='font-size:40px;line-height:1.25'><strong>Welcome to the experiment!</strong></p><p style='font-size:1.1em;line-height:1.25'>Thank you for participanting in our experiment again! You will be asked to play the Dysfunctional Ball Game again. We will briefly recap the rules before we start.</p><p style='font-size:1.1em;line-height:1.25'>Press <strong>Next</strong> to continue.</p>","0","custom-html-button-response","0","3885","0.0-0.0","105","1","2025-07-16 10:51:41","1f75c3e559b7213887762d5229550c2b","41.74.177.238","Mozilla/5.0 (Windows NT 10.0; Win64; x64) AppleWebKit/537.36 (KHTML, like Gecko) Chrome/138.0.0.0 Safari/537.36 Edg/138.0.0.0","WebKit","Edge","138.0.0.0","Windows","10.0","https://app.prolific.com/","en-US,en;q=0.9,en-ZA;q=0.8","6122f45e2e93a3ff9a7b7a5d","686e379bc37a29ffa5cdc956","68778418172690604098fc1d","1","1","6122f45e2e93a3ff9a7b7a5d","1","1","2025-07-16T10:51:47.934Z","","","","","","","","","","","","","","","","","","","","","","","","","","","","","","","","","","","","","","","","","",""
"3954","","","","fullscreen","1","8843","0.0-1.0","105","1","2025-07-16 10:51:41","1f75c3e559b7213887762d5229550c2b","41.74.177.238","Mozilla/5.0 (Windows NT 10.0; Win64; x64) AppleWebKit/537.36 (KHTML, like Gecko) Chrome/138.0.0.0 Safari/537.36 Edg/138.0.0.0","WebKit","Edge","138.0.0.0","Windows","10.0","https://app.prolific.com/","en-US,en;q=0.9,en-ZA;q=0.8","6122f45e2e93a3ff9a7b7a5d","686e379bc37a29ffa5cdc956","68778418172690604098fc1d","1","1","6122f45e2e93a3ff9a7b7a5d","1","1","","true","","","","","","","","","","","","","","","","","","","","","","","","","","","","","","","","","","","","","","","","",""
"4929","1752663117821","<p style='font-size:1.1em;line-height:1.25'>In the following, we will ask you a few questions relating to your feelings in the last 24 hours.<br></p><p style='font-size:1.1em;line-height:1.25'>Press the <strong>Next</strong> button to continue.</p>","0","custom-html-button-response","2","13772","0.0-2.0-0.0","105","1","2025-07-16 10:51:41","1f75c3e559b7213887762d5229550c2b","41.74.177.238","Mozilla/5.0 (Windows NT 10.0; Win64; x64) AppleWebKit/537.36 (KHTML, like Gecko) Chrome/138.0.0.0 Safari/537.36 Edg/138.0.0.0","WebKit","Edge","138.0.0.0","Windows","10.0","https://app.prolific.com/","en-US,en;q=0.9,en-ZA;q=0.8","6122f45e2e93a3ff9a7b7a5d","686e379bc37a29ffa5cdc956","68778418172690604098fc1d","1","1","6122f45e2e93a3ff9a7b7a5d","1","1","2025-07-16T10:51:57.821Z","","","","","","","","","","","","","","","","","","","","","","","","","","","","","","","","","","","","","","","","","",""
"57472","","","","survey-template","3","71248","0.0-2.0-1.0","105","1","2025-07-16 10:51:41","1f75c3e559b7213887762d5229550c2b","41.74.177.238","Mozilla/5.0 (Windows NT 10.0; Win64; x64) AppleWebKit/537.36 (KHTML, like Gecko) Chrome/138.0.0.0 Safari/537.36 Edg/138.0.0.0","WebKit","Edge","138.0.0.0","Windows","10.0","https://app.prolific.com/","en-US,en;q=0.9,en-ZA;q=0.8","6122f45e2e93a3ff9a7b7a5d","686e379bc37a29ffa5cdc956","68778418172690604098fc1d","1","1","6122f45e2e93a3ff9a7b7a5d","1","1","2025-07-16T10:52:55.297Z","","{""Q01"":""2"",""Q02"":""1"",""Q03"":""0"",""Q04"":""3"",""Q05"":""1"",""Q06"":""1"",""Q07"":""1"",""Q08"":""0"",""Q09"":""1"",""Q10"":""1"",""Q11"":""3"",""Q12"":""2"",""Q13"":""5"",""Q14"":""1"",""Q15"":""1"",""Q16"":""1"",""Q17"":""3"",""Q18"":""0"",""Q19"":""2"",""Q20"":""1"",""Q21"":""1"",""Q22"":""1""}","[0,1,2,3,4,5,6,7,8,9,10,11,12,13,14,15,16,17,18,19,20,21]","[""Q01"",""Q02"",""Q03"",""Q04"",""Q05"",""Q06"",""Q07"",""Q08"",""Q09"",""Q10"",""Q11"",""Q12"",""Q13"",""Q14"",""Q15"",""Q16"",""Q17"",""Q18"",""Q19"",""Q20"",""Q21"",""Q22""]","[4221,6094,8509.300000000047,10673.899999999907,12609.300000000047,14879.800000000047,16628,20573.199999999953,21950.100000000093,23627.600000000093,25707.300000000047,27607.600000000093,30941.399999999907,33573.39999999991,36327.80000000005,38621.5,40487.19999999995,42407.30000000005,46433.69999999995,50609.80000000005,53057.60000000009,56154.89999999991]","[]","[0,4221,6094,8509.300000000047,10673.899999999907,12609.300000000047,14879.800000000047,16628,18810,20573.199999999953,21950.100000000093,23627.600000000093,25707.300000000047,27607.600000000093,30941.399999999907,33573.39999999991,36327.80000000005,38621.5,40487.19999999995,42407.30000000005,46433.69999999995,50609.80000000005,53057.60000000009,56154.89999999991,57468]","0.5454545454545454","0.2857142857142857","0","drsp","","","","","","","","","","","","","","","","","","","","","","","","","","","","","","",""
"11083.09999999986","","","","survey-template","4","82333","0.0-2.0-2.0","105","1","2025-07-16 10:51:41","1f75c3e559b7213887762d5229550c2b","41.74.177.238","Mozilla/5.0 (Windows NT 10.0; Win64; x64) AppleWebKit/537.36 (KHTML, like Gecko) Chrome/138.0.0.0 Safari/537.36 Edg/138.0.0.0","WebKit","Edge","138.0.0.0","Windows","10.0","https://app.prolific.com/","en-US,en;q=0.9,en-ZA;q=0.8","6122f45e2e93a3ff9a7b7a5d","686e379bc37a29ffa5cdc956","68778418172690604098fc1d","1","1","6122f45e2e93a3ff9a7b7a5d","1","1","2025-07-16T10:53:06.382Z","","{""Q01"":""3"",""Q02"":""3"",""Q03"":""1""}","[0,1,2]","[""Q01"",""Q02"",""Q03""]","[4932.59999999986,6800.59999999986,10032.59999999986]","[]","[2975.2999999998137,4932.59999999986,6800.59999999986,10032.59999999986,11082.5]","0.3333333333333333","1","0","stress","","","","","","","","","","","","","","","","","","","","","","","","","","","","","","",""
"23995","","","","instructions","5","106328","0.0-3.0-0.0","105","1","2025-07-16 10:51:41","1f75c3e559b7213887762d5229550c2b","41.74.177.238","Mozilla/5.0 (Windows NT 10.0; Win64; x64) AppleWebKit/537.36 (KHTML, like Gecko) Chrome/138.0.0.0 Safari/537.36 Edg/138.0.0.0","WebKit","Edge","138.0.0.0","Windows","10.0","https://app.prolific.com/","en-US,en;q=0.9,en-ZA;q=0.8","6122f45e2e93a3ff9a7b7a5d","686e379bc37a29ffa5cdc956","68778418172690604098fc1d","1","1","6122f45e2e93a3ff9a7b7a5d","1","1","","","","","","","","","","","","","[{""page_index"":0,""viewing_time"":23994}]","","","","","","","","","","","","","","","","","","","","","","","","","","","","","",""
"7504","","<p>Before you start with this game please answer the following three questions yourself. </p>
  <p>Through this game, we measure several aspects of your cognitive performance, such as reaction times, multi-tasking capabilities </p>
  <p>and the ability to assess the situation you are in.</p>
  <p></p>
  <p><b>How good do you usually are in such tasks?</b></p>","74","html-slider-response","6","113837","0.0-4.0-0.0","105","1","2025-07-16 10:51:41","1f75c3e559b7213887762d5229550c2b","41.74.177.238","Mozilla/5.0 (Windows NT 10.0; Win64; x64) AppleWebKit/537.36 (KHTML, like Gecko) Chrome/138.0.0.0 Safari/537.36 Edg/138.0.0.0","WebKit","Edge","138.0.0.0","Windows","10.0","https://app.prolific.com/","en-US,en;q=0.9,en-ZA;q=0.8","6122f45e2e93a3ff9a7b7a5d","686e379bc37a29ffa5cdc956","68778418172690604098fc1d","1","1","6122f45e2e93a3ff9a7b7a5d","1","1","2025-07-16T10:53:37.886Z","","","","","","","","","","","PreSkillQ","","50","","","","","","","","","","","","","","","","","","","","","","","","","","","","",""
"3487","","<div style=""width:500px;"">
  <p>How well do you think you will perform in this task compared to other participants?</p>
  </div>","74","html-slider-response","7","117324","0.0-4.0-1.0","105","1","2025-07-16 10:51:41","1f75c3e559b7213887762d5229550c2b","41.74.177.238","Mozilla/5.0 (Windows NT 10.0; Win64; x64) AppleWebKit/537.36 (KHTML, like Gecko) Chrome/138.0.0.0 Safari/537.36 Edg/138.0.0.0","WebKit","Edge","138.0.0.0","Windows","10.0","https://app.prolific.com/","en-US,en;q=0.9,en-ZA;q=0.8","6122f45e2e93a3ff9a7b7a5d","686e379bc37a29ffa5cdc956","68778418172690604098fc1d","1","1","6122f45e2e93a3ff9a7b7a5d","1","1","2025-07-16T10:53:41.373Z","","","","","","","","","","","PrePerfQ","","50","","","","","","","","","","","","","","","","","","","","","","","","","","","","",""
"3911","","<div style=""width:500px;"">
  <p>What best describes how you currently feel?</p>
  </div>","79","html-slider-response","8","121236","0.0-4.0-2.0","105","1","2025-07-16 10:51:41","1f75c3e559b7213887762d5229550c2b","41.74.177.238","Mozilla/5.0 (Windows NT 10.0; Win64; x64) AppleWebKit/537.36 (KHTML, like Gecko) Chrome/138.0.0.0 Safari/537.36 Edg/138.0.0.0","WebKit","Edge","138.0.0.0","Windows","10.0","https://app.prolific.com/","en-US,en;q=0.9,en-ZA;q=0.8","6122f45e2e93a3ff9a7b7a5d","686e379bc37a29ffa5cdc956","68778418172690604098fc1d","1","1","6122f45e2e93a3ff9a7b7a5d","1","1","2025-07-16T10:53:45.285Z","","","","","","","","","","","PreMotivationQ","","50","","","","","","","","","","","","","","","","","","","","","","","","","","","","",""
"","","","","ctl-task-cpt","9","150927","0.0-5.0-0.0","105","1","2025-07-16 10:51:41","1f75c3e559b7213887762d5229550c2b","41.74.177.238","Mozilla/5.0 (Windows NT 10.0; Win64; x64) AppleWebKit/537.36 (KHTML, like Gecko) Chrome/138.0.0.0 Safari/537.36 Edg/138.0.0.0","WebKit","Edge","138.0.0.0","Windows","10.0","https://app.prolific.com/","en-US,en;q=0.9,en-ZA;q=0.8","6122f45e2e93a3ff9a7b7a5d","686e379bc37a29ffa5cdc956","68778418172690604098fc1d","1","1","6122f45e2e93a3ff9a7b7a5d","1","1","2025-07-16T10:54:14.976Z","","","","","","","","","","","","","","win-only","1","g1:NE,g2:SW","1","1","0","125898.5","2100.7","7101.6","26627.6","1","4","8","6","1","1","0","0","0","0","5000.8","3000","1025","[""up"",""right""]","{""num_key_presses"":6,""num_perfect"":4,""num_errors"":1,""num_randdir"":0,""num_randdir_good_moves"":0,""num_whilered"":1,""num_whileblue"":0,""num_blue"":2,""num_good_moves"":4}","[416.57142857142856,408.6808016640799,0.2,416.57142857142856,408.6808016640799,100.5,416.57142857142856,408.6808016640799,203,416.57142857142856,408.6808016640799,304.7,410.57142857142856,422.1808016640799,405.4,383.57142857142856,432.6808016640799,505.5,370.07142857142856,431.1808016640799,609.9,362.57142857142856,423.6808016640799,710.7,362.57142857142856,423.6808016640799,817.5,361.07142857142856,422.1808016640799,920.3,361.07142857142856,422.1808016640799,1020.4,361.07142857142856,422.1808016640799,1120.7,361.07142857142856,422.1808016640799,1226.2,361.07142857142856,422.1808016640799,1326.2,368.57142857142856,401.1808016640799,1426.2,512.5714285714286,359.1808016640799,1533.7,512.5714285714286,359.1808016640799,1633.7,512.5714285714286,359.1808016640799,1735.2,512.5714285714286,359.1808016640799,1841,512.5714285714286,359.1808016640799,1950.1,512.5714285714286,359.1808016640799,2050.4,512.5714285714286,359.1808016640799,2154.9,512.5714285714286,359.1808016640799,2255.2,512.5714285714286,359.1808016640799,2355.3,512.5714285714286,359.1808016640799,2455.4,512.5714285714286,359.1808016640799,2560.6,512.5714285714286,359.1808016640799,2667.3,512.5714285714286,359.1808016640799,2767.4,512.5714285714286,359.1808016640799,2870.3,512.5714285714286,359.1808016640799,2970.4,512.5714285714286,359.1808016640799,3075.8,512.5714285714286,359.1808016640799,3183.8,512.5714285714286,359.1808016640799,3285.4,512.5714285714286,359.1808016640799,3385.4,512.5714285714286,359.1808016640799,3485.5,512.5714285714286,359.1808016640799,3589.9,512.5714285714286,359.1808016640799,3690.1,512.5714285714286,359.1808016640799,3800.4,512.5714285714286,359.1808016640799,3905.5,512.5714285714286,359.1808016640799,4005.6,512.5714285714286,359.1808016640799,4110.5,512.5714285714286,359.1808016640799,4216.8,512.5714285714286,359.1808016640799,4320.5,512.5714285714286,359.1808016640799,4425.3,512.5714285714286,359.1808016640799,4525.5,512.5714285714286,359.1808016640799,4633.8,512.5714285714286,359.1808016640799,4735.6,512.5714285714286,359.1808016640799,4840.3,512.5714285714286,359.1808016640799,4949.9]","[1949.7,1949.7,1000,0,949.7,""smooth"",""up"",""up"",""good_move"",2218.9,268.9,2883.5,1950.1,-2614.7,""error"",""-"",""-"",""no_move"",2449.2,230.1,2883.5,1950.1,-2384.4,""while_red"",""-"",""-"",""no_move"",9158.7,6939.6,2035.4,6685.2,438.1,""smooth"",""up"",""up"",""good_move"",12365.5,3206.6,2708,9158.9,498.6,""smooth"",""right"",""right"",""good_move"",19419.6,7053.9,3012.3,16054.6,352.7,""smooth"",""right"",""right"",""good_move""]","",""
"5072","","<div style=""width:500px;"">
  <p>What determined the result of this run?</p>
  </div>","72","html-slider-response","10","156000","0.0-5.0-1.0","105","1","2025-07-16 10:51:41","1f75c3e559b7213887762d5229550c2b","41.74.177.238","Mozilla/5.0 (Windows NT 10.0; Win64; x64) AppleWebKit/537.36 (KHTML, like Gecko) Chrome/138.0.0.0 Safari/537.36 Edg/138.0.0.0","WebKit","Edge","138.0.0.0","Windows","10.0","https://app.prolific.com/","en-US,en;q=0.9,en-ZA;q=0.8","6122f45e2e93a3ff9a7b7a5d","686e379bc37a29ffa5cdc956","68778418172690604098fc1d","1","1","6122f45e2e93a3ff9a7b7a5d","1","1","2025-07-16T10:54:20.049Z","","","","","","","","","","","AttribQ","","50","","","","","","","","","","","","","","","","","","","","","","","","","","","","",""
"3422","","<div style=""width:500px;"">
  <p>How much control did you have over the ball?</p>
  </div>","91","html-slider-response","11","159423","0.0-5.0-2.0","105","1","2025-07-16 10:51:41","1f75c3e559b7213887762d5229550c2b","41.74.177.238","Mozilla/5.0 (Windows NT 10.0; Win64; x64) AppleWebKit/537.36 (KHTML, like Gecko) Chrome/138.0.0.0 Safari/537.36 Edg/138.0.0.0","WebKit","Edge","138.0.0.0","Windows","10.0","https://app.prolific.com/","en-US,en;q=0.9,en-ZA;q=0.8","6122f45e2e93a3ff9a7b7a5d","686e379bc37a29ffa5cdc956","68778418172690604098fc1d","1","1","6122f45e2e93a3ff9a7b7a5d","1","1","2025-07-16T10:54:23.472Z","","","","","","","","","","","ControlQ","","50","","","","","","","","","","","","","","","","","","","","","","","","","","","","",""
"5456","","<div style=""width:500px;"">
  <p>How would you describe your current emotional state?</p>
  </div>","21","html-slider-response","12","164880","0.0-5.0-3.0","105","1","2025-07-16 10:51:41","1f75c3e559b7213887762d5229550c2b","41.74.177.238","Mozilla/5.0 (Windows NT 10.0; Win64; x64) AppleWebKit/537.36 (KHTML, like Gecko) Chrome/138.0.0.0 Safari/537.36 Edg/138.0.0.0","WebKit","Edge","138.0.0.0","Windows","10.0","https://app.prolific.com/","en-US,en;q=0.9,en-ZA;q=0.8","6122f45e2e93a3ff9a7b7a5d","686e379bc37a29ffa5cdc956","68778418172690604098fc1d","1","1","6122f45e2e93a3ff9a7b7a5d","1","1","2025-07-16T10:54:28.929Z","","","","","","","","","","","StressQ","","50","","","","","","","","","","","","","","","","","","","","","","","","","","","","",""
"8044","","<div style=""width:500px;"">
  <p>What best describes how you currently feel?</p>
  </div>","77","html-slider-response","13","172924","0.0-5.0-4.0","105","1","2025-07-16 10:51:41","1f75c3e559b7213887762d5229550c2b","41.74.177.238","Mozilla/5.0 (Windows NT 10.0; Win64; x64) AppleWebKit/537.36 (KHTML, like Gecko) Chrome/138.0.0.0 Safari/537.36 Edg/138.0.0.0","WebKit","Edge","138.0.0.0","Windows","10.0","https://app.prolific.com/","en-US,en;q=0.9,en-ZA;q=0.8","6122f45e2e93a3ff9a7b7a5d","686e379bc37a29ffa5cdc956","68778418172690604098fc1d","1","1","6122f45e2e93a3ff9a7b7a5d","1","1","2025-07-16T10:54:36.973Z","","","","","","","","","","","MotivationQ","","50","","","","","","","","","","","","","","","","","","","","","","","","","","","","",""
"","","","","ctl-task-cpt","14","192706","0.0-5.0-0.1","105","1","2025-07-16 10:51:41","1f75c3e559b7213887762d5229550c2b","41.74.177.238","Mozilla/5.0 (Windows NT 10.0; Win64; x64) AppleWebKit/537.36 (KHTML, like Gecko) Chrome/138.0.0.0 Safari/537.36 Edg/138.0.0.0","WebKit","Edge","138.0.0.0","Windows","10.0","https://app.prolific.com/","en-US,en;q=0.9,en-ZA;q=0.8","6122f45e2e93a3ff9a7b7a5d","686e379bc37a29ffa5cdc956","68778418172690604098fc1d","1","1","6122f45e2e93a3ff9a7b7a5d","1","1","2025-07-16T10:54:56.755Z","","","","","","","","","","","","","","win-only","1","g1:NE,g2:SW","0.9","2","0","177531.1","1336.8","6340.9","16765.7","1","4","4","6","1","1","1","1","0","0.007575757575757576","1838.3","3000","1165","[""up"",""right""]","{""num_key_presses"":4,""num_perfect"":3,""num_errors"":0,""num_randdir"":1,""num_randdir_good_moves"":1,""num_whilered"":0,""num_whileblue"":0,""num_blue"":0,""num_good_moves"":4}","[410.57142857142856,413.1808016640799,0.2,410.57142857142856,413.1808016640799,103.5,410.57142857142856,413.1808016640799,204.3,410.57142857142856,413.1808016640799,304.5,410.57142857142856,413.1808016640799,410.2,410.57142857142856,413.1808016640799,513.5,410.57142857142856,413.1808016640799,614.6,410.57142857142856,413.1808016640799,714.7,484.07142857142856,359.1808016640799,818.5,353.57142857142856,533.1808016640799,920,119.57142857142857,723.6808016640799,1023.8,101.57142857142857,726.6808016640799,1124,101.57142857142857,732.6808016640799,1228.8,683.5714285714286,305.1808016640799,1335,722.5714285714286,224.18080166407992,1440,622.0714285714286,213.68080166407992,1544.9,754.0714285714286,24.680801664079937,1649.4,758.5714285714286,20.180801664079937,1749.6,758.5714285714286,20.180801664079937,1849.6,758.5714285714286,20.180801664079937,1954,758.5714285714286,20.180801664079937,2060,697.0714285714286,140.18080166407992,2164.2,673.0714285714286,221.18080166407992,2264.2,668.5714285714286,294.6808016640799,2365.3,587.5714285714286,579.6808016640799,2468.6,518.5714285714286,674.1808016640799,2570.7,511.07142857142856,671.1808016640799,2674.1,511.07142857142856,671.1808016640799,2778.8,511.07142857142856,671.1808016640799,2884.5,511.07142857142856,671.1808016640799,2990.1,511.07142857142856,671.1808016640799,3094.7,511.07142857142856,671.1808016640799,3194.9,511.07142857142856,671.1808016640799,3298.9,511.07142857142856,671.1808016640799,3404.2,511.07142857142856,671.1808016640799,3509.8,511.07142857142856,671.1808016640799,3614.7,511.07142857142856,671.1808016640799,3719.9,511.07142857142856,671.1808016640799,3823.5,511.07142857142856,671.1808016640799,3925.7,511.07142857142856,671.1808016640799,4028.9,511.07142857142856,671.1808016640799,4133.9,511.07142857142856,671.1808016640799,4234.2,511.07142857142856,671.1808016640799,4335.1,511.07142857142856,671.1808016640799,4439.8,511.07142857142856,671.1808016640799,4544.1,511.07142857142856,671.1808016640799,4649.5,511.07142857142856,671.1808016640799,4754.4,511.07142857142856,671.1808016640799,4859.8,511.07142857142856,671.1808016640799,4959.9]","[1525.6,1525.7,1000,0,525.7,""smooth"",""up"",""up"",""good_move"",3687.3,2160.9,1646.1,1526.4,514.8,""smooth"",""up"",""up"",""good_move"",7283.1,3595.6,3238.2,3687.5,357.4,""oops"",""right"",""right"",""good_move"",10334.2,3050.8,2588.9,7283.4,461.9,""smooth"",""right"",""right"",""good_move""]","",""
"4737","","<div style=""width:500px;"">
  <p>What determined the result of this run?</p>
  </div>","100","html-slider-response","15","197444","0.0-5.0-1.1","105","1","2025-07-16 10:51:41","1f75c3e559b7213887762d5229550c2b","41.74.177.238","Mozilla/5.0 (Windows NT 10.0; Win64; x64) AppleWebKit/537.36 (KHTML, like Gecko) Chrome/138.0.0.0 Safari/537.36 Edg/138.0.0.0","WebKit","Edge","138.0.0.0","Windows","10.0","https://app.prolific.com/","en-US,en;q=0.9,en-ZA;q=0.8","6122f45e2e93a3ff9a7b7a5d","686e379bc37a29ffa5cdc956","68778418172690604098fc1d","1","1","6122f45e2e93a3ff9a7b7a5d","1","1","2025-07-16T10:55:01.493Z","","","","","","","","","","","AttribQ","","50","","","","","","","","","","","","","","","","","","","","","","","","","","","","",""
"2690","","<div style=""width:500px;"">
  <p>How much control did you have over the ball?</p>
  </div>","97","html-slider-response","16","200135","0.0-5.0-2.1","105","1","2025-07-16 10:51:41","1f75c3e559b7213887762d5229550c2b","41.74.177.238","Mozilla/5.0 (Windows NT 10.0; Win64; x64) AppleWebKit/537.36 (KHTML, like Gecko) Chrome/138.0.0.0 Safari/537.36 Edg/138.0.0.0","WebKit","Edge","138.0.0.0","Windows","10.0","https://app.prolific.com/","en-US,en;q=0.9,en-ZA;q=0.8","6122f45e2e93a3ff9a7b7a5d","686e379bc37a29ffa5cdc956","68778418172690604098fc1d","1","1","6122f45e2e93a3ff9a7b7a5d","1","1","2025-07-16T10:55:04.184Z","","","","","","","","","","","ControlQ","","50","","","","","","","","","","","","","","","","","","","","","","","","","","","","",""
"3643","","<div style=""width:500px;"">
  <p>How would you describe your current emotional state?</p>
  </div>","13","html-slider-response","17","203780","0.0-5.0-3.1","105","1","2025-07-16 10:51:41","1f75c3e559b7213887762d5229550c2b","41.74.177.238","Mozilla/5.0 (Windows NT 10.0; Win64; x64) AppleWebKit/537.36 (KHTML, like Gecko) Chrome/138.0.0.0 Safari/537.36 Edg/138.0.0.0","WebKit","Edge","138.0.0.0","Windows","10.0","https://app.prolific.com/","en-US,en;q=0.9,en-ZA;q=0.8","6122f45e2e93a3ff9a7b7a5d","686e379bc37a29ffa5cdc956","68778418172690604098fc1d","1","1","6122f45e2e93a3ff9a7b7a5d","1","1","2025-07-16T10:55:07.829Z","","","","","","","","","","","StressQ","","50","","","","","","","","","","","","","","","","","","","","","","","","","","","","",""
"3115","","<div style=""width:500px;"">
  <p>What best describes how you currently feel?</p>
  </div>","90","html-slider-response","18","206896","0.0-5.0-4.1","105","1","2025-07-16 10:51:41","1f75c3e559b7213887762d5229550c2b","41.74.177.238","Mozilla/5.0 (Windows NT 10.0; Win64; x64) AppleWebKit/537.36 (KHTML, like Gecko) Chrome/138.0.0.0 Safari/537.36 Edg/138.0.0.0","WebKit","Edge","138.0.0.0","Windows","10.0","https://app.prolific.com/","en-US,en;q=0.9,en-ZA;q=0.8","6122f45e2e93a3ff9a7b7a5d","686e379bc37a29ffa5cdc956","68778418172690604098fc1d","1","1","6122f45e2e93a3ff9a7b7a5d","1","1","2025-07-16T10:55:10.945Z","","","","","","","","","","","MotivationQ","","50","","","","","","","","","","","","","","","","","","","","","","","","","","","","",""
"","","","","ctl-task-cpt","19","236823","0.0-5.0-0.2","105","1","2025-07-16 10:51:41","1f75c3e559b7213887762d5229550c2b","41.74.177.238","Mozilla/5.0 (Windows NT 10.0; Win64; x64) AppleWebKit/537.36 (KHTML, like Gecko) Chrome/138.0.0.0 Safari/537.36 Edg/138.0.0.0","WebKit","Edge","138.0.0.0","Windows","10.0","https://app.prolific.com/","en-US,en;q=0.9,en-ZA;q=0.8","6122f45e2e93a3ff9a7b7a5d","686e379bc37a29ffa5cdc956","68778418172690604098fc1d","1","1","6122f45e2e93a3ff9a7b7a5d","1","1","2025-07-16T10:55:40.872Z","","","","","","","","","","","","","","win-only","3","g1:SW,g2:NE","0.8","3","0","211503.1","1385.2","6387.4","26911.9","1","4","8","6","2","8","8","9","1","0.06818181818181818","1519.9","3000","575","[""up"",""right""]","{""num_key_presses"":6,""num_perfect"":4,""num_errors"":0,""num_randdir"":2,""num_randdir_good_moves"":2,""num_whilered"":0,""num_whileblue"":0,""num_blue"":1,""num_good_moves"":6}","[422.57142857142856,422.1808016640799,0.2,422.57142857142856,422.1808016640799,101.4,422.57142857142856,422.1808016640799,201.6,422.57142857142856,422.1808016640799,305.9,422.57142857142856,422.1808016640799,410.2,422.57142857142856,422.1808016640799,511.6,422.57142857142856,422.1808016640799,615.8,458.57142857142856,390.6808016640799,716,581.5714285714286,171.68080166407992,821.4,626.5714285714286,131.18080166407992,921.6,646.0714285714286,137.18080166407992,1027.2,680.5714285714286,113.18080166407994,1127.2,683.5714285714286,113.18080166407994,1231.5,689.5714285714286,113.18080166407994,1335.5,746.5714285714286,105.68080166407994,1436.6,746.5714285714286,104.18080166407994,1540.9,746.5714285714286,104.18080166407994,1641.9,746.5714285714286,104.18080166407994,1745.8,610.0714285714286,155.18080166407992,1845.8,119.57142857142857,71.18080166407994,1945.8,104.57142857142857,86.18080166407994,2052.1,104.57142857142857,86.18080166407994,2156,104.57142857142857,86.18080166407994,2256.5,104.57142857142857,86.18080166407994,2362.5,104.57142857142857,86.18080166407994,2465.8,104.57142857142857,86.18080166407994,2571.5,104.57142857142857,86.18080166407994,2676.3,104.57142857142857,86.18080166407994,2782,104.57142857142857,86.18080166407994,2882,104.57142857142857,86.18080166407994,2986.1,104.57142857142857,86.18080166407994,3091,104.57142857142857,86.18080166407994,3191.8,104.57142857142857,86.18080166407994,3295.9,104.57142857142857,86.18080166407994,3401.5,104.57142857142857,86.18080166407994,3502,104.57142857142857,86.18080166407994,3606.2,104.57142857142857,86.18080166407994,3712.5,104.57142857142857,86.18080166407994,3815.9,104.57142857142857,86.18080166407994,3917,104.57142857142857,86.18080166407994,4020.3,104.57142857142857,86.18080166407994,4121.8,104.57142857142857,86.18080166407994,4225.7,104.57142857142857,86.18080166407994,4326.4,104.57142857142857,86.18080166407994,4430.5,104.57142857142857,86.18080166407994,4535.8,104.57142857142857,86.18080166407994,4636.1,104.57142857142857,86.18080166407994,4740.4,104.57142857142857,86.18080166407994,4841.1,104.57142857142857,86.18080166407994,4941.4]","[1453.5,1453.5,1000,0,453.5,""smooth"",""up"",""up"",""good_move"",7675.2,6220.9,2305.1,4989.2,380.9,""smooth"",""up"",""up"",""good_move"",11375.5,3699.9,3207.6,7675.6,492.3,""oops"",""up"",""right"",""good_move"",14281.6,2905.8,2472.9,11375.8,432.9,""smooth"",""up"",""up"",""good_move"",17158.3,2876.5,2500.8,14281.8,375.7,""smooth"",""right"",""right"",""good_move"",20427.6,3268.9,2943.8,17158.8,325,""oops"",""right"",""right"",""good_move""]","",""
"3561","","<div style=""width:500px;"">
  <p>What determined the result of this run?</p>
  </div>","100","html-slider-response","20","240386","0.0-5.0-1.2","105","1","2025-07-16 10:51:41","1f75c3e559b7213887762d5229550c2b","41.74.177.238","Mozilla/5.0 (Windows NT 10.0; Win64; x64) AppleWebKit/537.36 (KHTML, like Gecko) Chrome/138.0.0.0 Safari/537.36 Edg/138.0.0.0","WebKit","Edge","138.0.0.0","Windows","10.0","https://app.prolific.com/","en-US,en;q=0.9,en-ZA;q=0.8","6122f45e2e93a3ff9a7b7a5d","686e379bc37a29ffa5cdc956","68778418172690604098fc1d","1","1","6122f45e2e93a3ff9a7b7a5d","1","1","2025-07-16T10:55:44.435Z","","","","","","","","","","","AttribQ","","50","","","","","","","","","","","","","","","","","","","","","","","","","","","","",""
"3089","","<div style=""width:500px;"">
  <p>How much control did you have over the ball?</p>
  </div>","81","html-slider-response","21","243476","0.0-5.0-2.2","105","1","2025-07-16 10:51:41","1f75c3e559b7213887762d5229550c2b","41.74.177.238","Mozilla/5.0 (Windows NT 10.0; Win64; x64) AppleWebKit/537.36 (KHTML, like Gecko) Chrome/138.0.0.0 Safari/537.36 Edg/138.0.0.0","WebKit","Edge","138.0.0.0","Windows","10.0","https://app.prolific.com/","en-US,en;q=0.9,en-ZA;q=0.8","6122f45e2e93a3ff9a7b7a5d","686e379bc37a29ffa5cdc956","68778418172690604098fc1d","1","1","6122f45e2e93a3ff9a7b7a5d","1","1","2025-07-16T10:55:47.525Z","","","","","","","","","","","ControlQ","","50","","","","","","","","","","","","","","","","","","","","","","","","","","","","",""
"3378","","<div style=""width:500px;"">
  <p>How would you describe your current emotional state?</p>
  </div>","9","html-slider-response","22","246855","0.0-5.0-3.2","105","1","2025-07-16 10:51:41","1f75c3e559b7213887762d5229550c2b","41.74.177.238","Mozilla/5.0 (Windows NT 10.0; Win64; x64) AppleWebKit/537.36 (KHTML, like Gecko) Chrome/138.0.0.0 Safari/537.36 Edg/138.0.0.0","WebKit","Edge","138.0.0.0","Windows","10.0","https://app.prolific.com/","en-US,en;q=0.9,en-ZA;q=0.8","6122f45e2e93a3ff9a7b7a5d","686e379bc37a29ffa5cdc956","68778418172690604098fc1d","1","1","6122f45e2e93a3ff9a7b7a5d","1","1","2025-07-16T10:55:50.904Z","","","","","","","","","","","StressQ","","50","","","","","","","","","","","","","","","","","","","","","","","","","","","","",""
"3252","","<div style=""width:500px;"">
  <p>What best describes how you currently feel?</p>
  </div>","87","html-slider-response","23","250108","0.0-5.0-4.2","105","1","2025-07-16 10:51:41","1f75c3e559b7213887762d5229550c2b","41.74.177.238","Mozilla/5.0 (Windows NT 10.0; Win64; x64) AppleWebKit/537.36 (KHTML, like Gecko) Chrome/138.0.0.0 Safari/537.36 Edg/138.0.0.0","WebKit","Edge","138.0.0.0","Windows","10.0","https://app.prolific.com/","en-US,en;q=0.9,en-ZA;q=0.8","6122f45e2e93a3ff9a7b7a5d","686e379bc37a29ffa5cdc956","68778418172690604098fc1d","1","1","6122f45e2e93a3ff9a7b7a5d","1","1","2025-07-16T10:55:54.157Z","","","","","","","","","","","MotivationQ","","50","","","","","","","","","","","","","","","","","","","","","","","","","","","","",""
"","","","","ctl-task-cpt","24","285011","0.0-5.0-0.3","105","1","2025-07-16 10:51:41","1f75c3e559b7213887762d5229550c2b","41.74.177.238","Mozilla/5.0 (Windows NT 10.0; Win64; x64) AppleWebKit/537.36 (KHTML, like Gecko) Chrome/138.0.0.0 Safari/537.36 Edg/138.0.0.0","WebKit","Edge","138.0.0.0","Windows","10.0","https://app.prolific.com/","en-US,en;q=0.9,en-ZA;q=0.8","6122f45e2e93a3ff9a7b7a5d","686e379bc37a29ffa5cdc956","68778418172690604098fc1d","1","1","6122f45e2e93a3ff9a7b7a5d","1","1","2025-07-16T10:56:29.061Z","","","","","","","","","","","","","","win-only","0","g1:NW,g2:SE","0.7","4","0","254715.1","1368.8","6370.7","31885.6","1","4","4","6","1","-1","-1","8","9","0.06060606060606061","1080.7","3000","-2995","[""left"",""up""]","{""num_key_presses"":8,""num_perfect"":5,""num_errors"":0,""num_randdir"":3,""num_randdir_good_moves"":0,""num_whilered"":0,""num_whileblue"":0,""num_blue"":1,""num_good_moves"":5}","[419.57142857142856,416.1808016640799,0.2,419.57142857142856,416.1808016640799,103.1,419.57142857142856,416.1808016640799,207.2,419.57142857142856,416.1808016640799,307.4,419.57142857142856,416.1808016640799,411.5,418.07142857142856,416.1808016640799,511.6,368.57142857142856,360.6808016640799,611.6,260.57142857142856,167.18080166407992,711.6,110.57142857142857,99.68080166407994,811.7,101.57142857142857,95.18080166407994,912,83.57142857142857,77.18080166407994,1014.5,83.57142857142857,77.18080166407994,1127.8,83.57142857142857,77.18080166407994,1231.6,-48.42857142857143,116.18080166407994,1337,-93.42857142857143,128.18080166407992,1442.3,-108.42857142857143,132.68080166407992,1542.9,-108.42857142857143,132.68080166407992,1647.8,-108.42857142857143,132.68080166407992,1751.6,-108.42857142857143,132.68080166407992,1857.4,-108.42857142857143,132.68080166407992,1961.5,-108.42857142857143,132.68080166407992,2061.8,-108.42857142857143,132.68080166407992,2162.9,-108.42857142857143,132.68080166407992,2266.9,-108.42857142857143,132.68080166407992,2367.3,-108.42857142857143,132.68080166407992,2471.5,-108.42857142857143,132.68080166407992,2571.6,-108.42857142857143,132.68080166407992,2673.9,-108.42857142857143,132.68080166407992,2776.7,-108.42857142857143,132.68080166407992,2882.6,-108.42857142857143,132.68080166407992,2986.6,-108.42857142857143,132.68080166407992,3087,-108.42857142857143,132.68080166407992,3187.3,-108.42857142857143,132.68080166407992,3287.3,-108.42857142857143,132.68080166407992,3391.8,-108.42857142857143,132.68080166407992,3497.2,-108.42857142857143,132.68080166407992,3597.8,-108.42857142857143,132.68080166407992,3702.3,-108.42857142857143,132.68080166407992,3807.5,-108.42857142857143,132.68080166407992,3907.5,-108.42857142857143,132.68080166407992,4011.9,-108.42857142857143,132.68080166407992,4117.3,-108.42857142857143,132.68080166407992,4222.2,-108.42857142857143,132.68080166407992,4322.2,-108.42857142857143,132.68080166407992,4427.1,-108.42857142857143,132.68080166407992,4527.5,-108.42857142857143,132.68080166407992,4627.6,-108.42857142857143,132.68080166407992,4731.3,-108.42857142857143,132.68080166407992,4831.5,-108.42857142857143,132.68080166407992,4932.6]","[1403.4,1403.4,1000,0,403.4,""smooth"",""up"",""up"",""good_move"",4815.3,3411.5,3056.9,1403.8,354.6,""smooth"",""up"",""up"",""good_move"",6903.9,2088.3,1723.8,4815.6,364.5,""oops"",""left"",""down"",""bad_move"",9070.3,2166.1,1794.9,6904.3,371.2,""oops"",""left"",""down"",""bad_move"",11338.9,2268.3,1930.1,9070.6,338.2,""smooth"",""up"",""up"",""good_move"",13863.2,2524.1,2163.2,11339.2,360.8,""oops"",""up"",""right"",""bad_move"",16547.3,2683.6,2354.4,13863.7,329.2,""smooth"",""up"",""up"",""good_move"",19616.5,3068.9,2743.4,16547.6,325.5,""smooth"",""left"",""left"",""good_move""]","",""
"4004","","<div style=""width:500px;"">
  <p>What determined the result of this run?</p>
  </div>","80","html-slider-response","25","289016","0.0-5.0-1.3","105","1","2025-07-16 10:51:41","1f75c3e559b7213887762d5229550c2b","41.74.177.238","Mozilla/5.0 (Windows NT 10.0; Win64; x64) AppleWebKit/537.36 (KHTML, like Gecko) Chrome/138.0.0.0 Safari/537.36 Edg/138.0.0.0","WebKit","Edge","138.0.0.0","Windows","10.0","https://app.prolific.com/","en-US,en;q=0.9,en-ZA;q=0.8","6122f45e2e93a3ff9a7b7a5d","686e379bc37a29ffa5cdc956","68778418172690604098fc1d","1","1","6122f45e2e93a3ff9a7b7a5d","1","1","2025-07-16T10:56:33.065Z","","","","","","","","","","","AttribQ","","50","","","","","","","","","","","","","","","","","","","","","","","","","","","","",""
"4449","","<div style=""width:500px;"">
  <p>How much control did you have over the ball?</p>
  </div>","29","html-slider-response","26","293466","0.0-5.0-2.3","105","1","2025-07-16 10:51:41","1f75c3e559b7213887762d5229550c2b","41.74.177.238","Mozilla/5.0 (Windows NT 10.0; Win64; x64) AppleWebKit/537.36 (KHTML, like Gecko) Chrome/138.0.0.0 Safari/537.36 Edg/138.0.0.0","WebKit","Edge","138.0.0.0","Windows","10.0","https://app.prolific.com/","en-US,en;q=0.9,en-ZA;q=0.8","6122f45e2e93a3ff9a7b7a5d","686e379bc37a29ffa5cdc956","68778418172690604098fc1d","1","1","6122f45e2e93a3ff9a7b7a5d","1","1","2025-07-16T10:56:37.515Z","","","","","","","","","","","ControlQ","","50","","","","","","","","","","","","","","","","","","","","","","","","","","","","",""
"2729","","<div style=""width:500px;"">
  <p>How would you describe your current emotional state?</p>
  </div>","10","html-slider-response","27","296196","0.0-5.0-3.3","105","1","2025-07-16 10:51:41","1f75c3e559b7213887762d5229550c2b","41.74.177.238","Mozilla/5.0 (Windows NT 10.0; Win64; x64) AppleWebKit/537.36 (KHTML, like Gecko) Chrome/138.0.0.0 Safari/537.36 Edg/138.0.0.0","WebKit","Edge","138.0.0.0","Windows","10.0","https://app.prolific.com/","en-US,en;q=0.9,en-ZA;q=0.8","6122f45e2e93a3ff9a7b7a5d","686e379bc37a29ffa5cdc956","68778418172690604098fc1d","1","1","6122f45e2e93a3ff9a7b7a5d","1","1","2025-07-16T10:56:40.245Z","","","","","","","","","","","StressQ","","50","","","","","","","","","","","","","","","","","","","","","","","","","","","","",""
"3832","","<div style=""width:500px;"">
  <p>What best describes how you currently feel?</p>
  </div>","85","html-slider-response","28","300029","0.0-5.0-4.3","105","1","2025-07-16 10:51:41","1f75c3e559b7213887762d5229550c2b","41.74.177.238","Mozilla/5.0 (Windows NT 10.0; Win64; x64) AppleWebKit/537.36 (KHTML, like Gecko) Chrome/138.0.0.0 Safari/537.36 Edg/138.0.0.0","WebKit","Edge","138.0.0.0","Windows","10.0","https://app.prolific.com/","en-US,en;q=0.9,en-ZA;q=0.8","6122f45e2e93a3ff9a7b7a5d","686e379bc37a29ffa5cdc956","68778418172690604098fc1d","1","1","6122f45e2e93a3ff9a7b7a5d","1","1","2025-07-16T10:56:44.078Z","","","","","","","","","","","MotivationQ","","50","","","","","","","","","","","","","","","","","","","","","","","","","","","","",""
"","","","","ctl-task-cpt","29","331243","0.0-5.0-0.4","105","1","2025-07-16 10:51:41","1f75c3e559b7213887762d5229550c2b","41.74.177.238","Mozilla/5.0 (Windows NT 10.0; Win64; x64) AppleWebKit/537.36 (KHTML, like Gecko) Chrome/138.0.0.0 Safari/537.36 Edg/138.0.0.0","WebKit","Edge","138.0.0.0","Windows","10.0","https://app.prolific.com/","en-US,en;q=0.9,en-ZA;q=0.8","6122f45e2e93a3ff9a7b7a5d","686e379bc37a29ffa5cdc956","68778418172690604098fc1d","1","1","6122f45e2e93a3ff9a7b7a5d","1","1","2025-07-16T10:57:15.292Z","","","","","","","","","","","","","","win-only","1","g1:NE,g2:SW","0.6","5","0","304636.4","1110.2","6112","28206","1","4","8","6","2","-8","-8","0","8","0","1045","3000","-2665","[""down"",""left""]","{""num_key_presses"":7,""num_perfect"":5,""num_errors"":0,""num_randdir"":2,""num_randdir_good_moves"":1,""num_whilered"":0,""num_whileblue"":0,""num_blue"":0,""num_good_moves"":6}","[406.07142857142856,411.6808016640799,0.5,406.07142857142856,411.6808016640799,101.7,406.07142857142856,411.6808016640799,202.1,406.07142857142856,411.6808016640799,306.2,404.57142857142856,413.1808016640799,410.9,224.57142857142856,567.6808016640799,515.7,152.57142857142856,638.1808016640799,620.5,134.57142857142856,662.1808016640799,724.9,80.57142857142857,761.1808016640799,825.3,55.07142857142857,776.1808016640799,930.6,47.57142857142857,773.1808016640799,1035.4,46.07142857142857,773.1808016640799,1136.1,31.07142857142857,770.1808016640799,1240.2,-216.42857142857144,672.6808016640799,1346.1,-216.42857142857144,665.1808016640799,1452.4,-216.42857142857144,665.1808016640799,1555,-216.42857142857144,665.1808016640799,1655.6,-216.42857142857144,665.1808016640799,1760.4,-216.42857142857144,665.1808016640799,1860.5,-216.42857142857144,665.1808016640799,1960.5,-216.42857142857144,665.1808016640799,2065.9,-216.42857142857144,665.1808016640799,2166.9,-216.42857142857144,665.1808016640799,2271,-216.42857142857144,665.1808016640799,2375.7,-216.42857142857144,665.1808016640799,2480.7,-216.42857142857144,665.1808016640799,2587.2,-216.42857142857144,665.1808016640799,2692.1,-216.42857142857144,665.1808016640799,2795.4,-216.42857142857144,665.1808016640799,2895.5,-216.42857142857144,665.1808016640799,2996,-216.42857142857144,665.1808016640799,3101.2,-216.42857142857144,665.1808016640799,3201.9,-216.42857142857144,665.1808016640799,3304.9,-216.42857142857144,665.1808016640799,3405.2,-216.42857142857144,665.1808016640799,3505.6,-216.42857142857144,665.1808016640799,3606.7,-216.42857142857144,665.1808016640799,3709.9,-216.42857142857144,665.1808016640799,3810,-216.42857142857144,665.1808016640799,3910.4,-216.42857142857144,665.1808016640799,4010.5,-216.42857142857144,665.1808016640799,4110.6,-216.42857142857144,665.1808016640799,4210.8,-216.42857142857144,665.1808016640799,4315.3,-216.42857142857144,665.1808016640799,4420.2,-216.42857142857144,665.1808016640799,4521,-216.42857142857144,665.1808016640799,4625.6,-216.42857142857144,665.1808016640799,4730.8,-216.42857142857144,665.1808016640799,4835.1,-216.42857142857144,665.1808016640799,4935.4]","[1345.9,1345.9,1000,0,345.9,""oops"",""down"",""left"",""good_move"",4040.3,2694,2206.9,1346.3,487.1,""smooth"",""down"",""down"",""good_move"",7717.3,3676.8,3305.5,4040.5,371.3,""oops"",""down"",""right"",""bad_move"",11191.9,3474.4,2975.6,7717.6,498.8,""smooth"",""left"",""left"",""good_move"",14134.6,2942.2,2586.1,11192.4,356.1,""smooth"",""left"",""left"",""good_move"",16652.9,2518,2162.2,14134.9,355.8,""smooth"",""left"",""left"",""good_move"",19036,2382.7,2032.3,16653.3,350.4,""smooth"",""down"",""down"",""good_move""]","",""
"6825","","<div style=""width:500px;"">
  <p>What determined the result of this run?</p>
  </div>","78","html-slider-response","30","338069","0.0-5.0-1.4","105","1","2025-07-16 10:51:41","1f75c3e559b7213887762d5229550c2b","41.74.177.238","Mozilla/5.0 (Windows NT 10.0; Win64; x64) AppleWebKit/537.36 (KHTML, like Gecko) Chrome/138.0.0.0 Safari/537.36 Edg/138.0.0.0","WebKit","Edge","138.0.0.0","Windows","10.0","https://app.prolific.com/","en-US,en;q=0.9,en-ZA;q=0.8","6122f45e2e93a3ff9a7b7a5d","686e379bc37a29ffa5cdc956","68778418172690604098fc1d","1","1","6122f45e2e93a3ff9a7b7a5d","1","1","2025-07-16T10:57:22.118Z","","","","","","","","","","","AttribQ","","50","","","","","","","","","","","","","","","","","","","","","","","","","","","","",""
"5815","","<div style=""width:500px;"">
  <p>How much control did you have over the ball?</p>
  </div>","19","html-slider-response","31","343884","0.0-5.0-2.4","105","1","2025-07-16 10:51:41","1f75c3e559b7213887762d5229550c2b","41.74.177.238","Mozilla/5.0 (Windows NT 10.0; Win64; x64) AppleWebKit/537.36 (KHTML, like Gecko) Chrome/138.0.0.0 Safari/537.36 Edg/138.0.0.0","WebKit","Edge","138.0.0.0","Windows","10.0","https://app.prolific.com/","en-US,en;q=0.9,en-ZA;q=0.8","6122f45e2e93a3ff9a7b7a5d","686e379bc37a29ffa5cdc956","68778418172690604098fc1d","1","1","6122f45e2e93a3ff9a7b7a5d","1","1","2025-07-16T10:57:27.933Z","","","","","","","","","","","ControlQ","","50","","","","","","","","","","","","","","","","","","","","","","","","","","","","",""
"4576","","<div style=""width:500px;"">
  <p>How would you describe your current emotional state?</p>
  </div>","13","html-slider-response","32","348462","0.0-5.0-3.4","105","1","2025-07-16 10:51:41","1f75c3e559b7213887762d5229550c2b","41.74.177.238","Mozilla/5.0 (Windows NT 10.0; Win64; x64) AppleWebKit/537.36 (KHTML, like Gecko) Chrome/138.0.0.0 Safari/537.36 Edg/138.0.0.0","WebKit","Edge","138.0.0.0","Windows","10.0","https://app.prolific.com/","en-US,en;q=0.9,en-ZA;q=0.8","6122f45e2e93a3ff9a7b7a5d","686e379bc37a29ffa5cdc956","68778418172690604098fc1d","1","1","6122f45e2e93a3ff9a7b7a5d","1","1","2025-07-16T10:57:32.511Z","","","","","","","","","","","StressQ","","50","","","","","","","","","","","","","","","","","","","","","","","","","","","","",""
"5506","","<div style=""width:500px;"">
  <p>What best describes how you currently feel?</p>
  </div>","85","html-slider-response","33","353968","0.0-5.0-4.4","105","1","2025-07-16 10:51:41","1f75c3e559b7213887762d5229550c2b","41.74.177.238","Mozilla/5.0 (Windows NT 10.0; Win64; x64) AppleWebKit/537.36 (KHTML, like Gecko) Chrome/138.0.0.0 Safari/537.36 Edg/138.0.0.0","WebKit","Edge","138.0.0.0","Windows","10.0","https://app.prolific.com/","en-US,en;q=0.9,en-ZA;q=0.8","6122f45e2e93a3ff9a7b7a5d","686e379bc37a29ffa5cdc956","68778418172690604098fc1d","1","1","6122f45e2e93a3ff9a7b7a5d","1","1","2025-07-16T10:57:38.017Z","","","","","","","","","","","MotivationQ","","50","","","","","","","","","","","","","","","","","","","","","","","","","","","","",""
"","","","","ctl-task-cpt","34","390824","0.0-5.0-0.5","105","1","2025-07-16 10:51:41","1f75c3e559b7213887762d5229550c2b","41.74.177.238","Mozilla/5.0 (Windows NT 10.0; Win64; x64) AppleWebKit/537.36 (KHTML, like Gecko) Chrome/138.0.0.0 Safari/537.36 Edg/138.0.0.0","WebKit","Edge","138.0.0.0","Windows","10.0","https://app.prolific.com/","en-US,en;q=0.9,en-ZA;q=0.8","6122f45e2e93a3ff9a7b7a5d","686e379bc37a29ffa5cdc956","68778418172690604098fc1d","1","1","6122f45e2e93a3ff9a7b7a5d","1","1","2025-07-16T10:58:14.873Z","","","","","","","","","","","","","","win-only","1","g1:NE,g2:SW","0.5","6","0","358575.6","1076.6","6081.4","33838.6","1","4","4","6","2","-4","-4","0","0","0","1360.2","3000","-3005","[""down"",""left""]","{""num_key_presses"":6,""num_perfect"":2,""num_errors"":0,""num_randdir"":4,""num_randdir_good_moves"":0,""num_whilered"":0,""num_whileblue"":0,""num_blue"":3,""num_good_moves"":2}","[410.57142857142856,411.6808016640799,0.2,410.57142857142856,411.6808016640799,100.1,410.57142857142856,411.6808016640799,204.4,410.57142857142856,411.6808016640799,312.4,410.57142857142856,411.6808016640799,414.1,410.57142857142856,411.6808016640799,514.4,437.57142857142856,402.6808016640799,619,437.57142857142856,402.6808016640799,719.4,425.57142857142856,405.6808016640799,826.3,107.57142857142857,722.1808016640799,931.4,106.07142857142857,723.6808016640799,1034.5,104.57142857142857,723.6808016640799,1134.5,101.57142857142857,725.1808016640799,1240.4,100.07142857142857,725.1808016640799,1342.4,103.07142857142857,726.6808016640799,1442.6,101.57142857142857,725.1808016640799,1546.2,101.57142857142857,725.1808016640799,1650.6,-6.428571428571431,626.1808016640799,1754.7,-166.92857142857144,516.6808016640799,1858.9,-169.92857142857144,516.6808016640799,1959.2,-175.92857142857144,519.6808016640799,2062.6,-175.92857142857144,519.6808016640799,2164.6,-175.92857142857144,519.6808016640799,2269.7,-175.92857142857144,519.6808016640799,2374.7,-175.92857142857144,519.6808016640799,2476.3,-175.92857142857144,519.6808016640799,2579.6,-175.92857142857144,519.6808016640799,2679.8,-175.92857142857144,519.6808016640799,2782.9,-175.92857142857144,519.6808016640799,2884.1,-175.92857142857144,519.6808016640799,2984.2,-175.92857142857144,519.6808016640799,3089.6,-175.92857142857144,519.6808016640799,3190.8,-175.92857142857144,519.6808016640799,3291.2,-175.92857142857144,519.6808016640799,3397.8,-175.92857142857144,519.6808016640799,3499.3,-175.92857142857144,519.6808016640799,3599.6,-175.92857142857144,519.6808016640799,3704.8,-175.92857142857144,519.6808016640799,3811.9,-175.92857142857144,519.6808016640799,3914.2,-175.92857142857144,519.6808016640799,4019.3,-175.92857142857144,519.6808016640799,4119.8,-175.92857142857144,519.6808016640799,4226,-175.92857142857144,519.6808016640799,4330.1,-175.92857142857144,519.6808016640799,4433.7,-175.92857142857144,519.6808016640799,4534.3,-175.92857142857144,519.6808016640799,4634.3,-175.92857142857144,519.6808016640799,4739.3,-175.92857142857144,519.6808016640799,4840.9,-175.92857142857144,519.6808016640799,4944.6]","[8023.1,8023.1,2245.4,5435.9,341.8,""smooth"",""down"",""down"",""good_move"",11192.3,3168.6,2361.8,8023.7,806.8,""oops"",""down"",""right"",""bad_move"",14069.7,2877.3,2434.4,11192.4,442.9,""smooth"",""left"",""left"",""good_move"",16671.7,2599.9,2211.3,14071.8,388.6,""oops"",""left"",""up"",""bad_move"",19470.5,2798.6,2378.8,16671.9,419.8,""oops"",""left"",""right"",""bad_move"",25133,5662.2,1913.8,22814.9,404.3,""oops"",""down"",""right"",""bad_move""]","",""
"7439","","<div style=""width:500px;"">
  <p>What determined the result of this run?</p>
  </div>","24","html-slider-response","35","398264","0.0-5.0-1.5","105","1","2025-07-16 10:51:41","1f75c3e559b7213887762d5229550c2b","41.74.177.238","Mozilla/5.0 (Windows NT 10.0; Win64; x64) AppleWebKit/537.36 (KHTML, like Gecko) Chrome/138.0.0.0 Safari/537.36 Edg/138.0.0.0","WebKit","Edge","138.0.0.0","Windows","10.0","https://app.prolific.com/","en-US,en;q=0.9,en-ZA;q=0.8","6122f45e2e93a3ff9a7b7a5d","686e379bc37a29ffa5cdc956","68778418172690604098fc1d","1","1","6122f45e2e93a3ff9a7b7a5d","1","1","2025-07-16T10:58:22.313Z","","","","","","","","","","","AttribQ","","50","","","","","","","","","","","","","","","","","","","","","","","","","","","","",""
"3925","","<div style=""width:500px;"">
  <p>How much control did you have over the ball?</p>
  </div>","0","html-slider-response","36","402190","0.0-5.0-2.5","105","1","2025-07-16 10:51:41","1f75c3e559b7213887762d5229550c2b","41.74.177.238","Mozilla/5.0 (Windows NT 10.0; Win64; x64) AppleWebKit/537.36 (KHTML, like Gecko) Chrome/138.0.0.0 Safari/537.36 Edg/138.0.0.0","WebKit","Edge","138.0.0.0","Windows","10.0","https://app.prolific.com/","en-US,en;q=0.9,en-ZA;q=0.8","6122f45e2e93a3ff9a7b7a5d","686e379bc37a29ffa5cdc956","68778418172690604098fc1d","1","1","6122f45e2e93a3ff9a7b7a5d","1","1","2025-07-16T10:58:26.239Z","","","","","","","","","","","ControlQ","","50","","","","","","","","","","","","","","","","","","","","","","","","","","","","",""
"3677","","<div style=""width:500px;"">
  <p>How would you describe your current emotional state?</p>
  </div>","23","html-slider-response","37","405867","0.0-5.0-3.5","105","1","2025-07-16 10:51:41","1f75c3e559b7213887762d5229550c2b","41.74.177.238","Mozilla/5.0 (Windows NT 10.0; Win64; x64) AppleWebKit/537.36 (KHTML, like Gecko) Chrome/138.0.0.0 Safari/537.36 Edg/138.0.0.0","WebKit","Edge","138.0.0.0","Windows","10.0","https://app.prolific.com/","en-US,en;q=0.9,en-ZA;q=0.8","6122f45e2e93a3ff9a7b7a5d","686e379bc37a29ffa5cdc956","68778418172690604098fc1d","1","1","6122f45e2e93a3ff9a7b7a5d","1","1","2025-07-16T10:58:29.917Z","","","","","","","","","","","StressQ","","50","","","","","","","","","","","","","","","","","","","","","","","","","","","","",""
"5458","","<div style=""width:500px;"">
  <p>What best describes how you currently feel?</p>
  </div>","77","html-slider-response","38","411326","0.0-5.0-4.5","105","1","2025-07-16 10:51:41","1f75c3e559b7213887762d5229550c2b","41.74.177.238","Mozilla/5.0 (Windows NT 10.0; Win64; x64) AppleWebKit/537.36 (KHTML, like Gecko) Chrome/138.0.0.0 Safari/537.36 Edg/138.0.0.0","WebKit","Edge","138.0.0.0","Windows","10.0","https://app.prolific.com/","en-US,en;q=0.9,en-ZA;q=0.8","6122f45e2e93a3ff9a7b7a5d","686e379bc37a29ffa5cdc956","68778418172690604098fc1d","1","1","6122f45e2e93a3ff9a7b7a5d","1","1","2025-07-16T10:58:35.375Z","","","","","","","","","","","MotivationQ","","50","","","","","","","","","","","","","","","","","","","","","","","","","","","","",""
"","","","","ctl-task-cpt","39","446730","0.0-5.0-0.6","105","1","2025-07-16 10:51:41","1f75c3e559b7213887762d5229550c2b","41.74.177.238","Mozilla/5.0 (Windows NT 10.0; Win64; x64) AppleWebKit/537.36 (KHTML, like Gecko) Chrome/138.0.0.0 Safari/537.36 Edg/138.0.0.0","WebKit","Edge","138.0.0.0","Windows","10.0","https://app.prolific.com/","en-US,en;q=0.9,en-ZA;q=0.8","6122f45e2e93a3ff9a7b7a5d","686e379bc37a29ffa5cdc956","68778418172690604098fc1d","1","1","6122f45e2e93a3ff9a7b7a5d","1","1","2025-07-16T10:59:10.779Z","","","","","","","","","","","","","","win-only","0","g1:NW,g2:SE","0.4","7","0","415933.5","1148.1","6150.9","32386.2","1","4","4","6","1","-1","-3","0","0","0","1181","3000","-2620","[""left"",""up""]","{""num_key_presses"":9,""num_perfect"":4,""num_errors"":2,""num_randdir"":3,""num_randdir_good_moves"":1,""num_whilered"":0,""num_whileblue"":2,""num_blue"":2,""num_good_moves"":4}","[412.07142857142856,413.1808016640799,0.3,413.57142857142856,413.1808016640799,102.5,413.57142857142856,413.1808016640799,202.6,413.57142857142856,413.1808016640799,308.5,413.57142857142856,413.1808016640799,413.8,413.57142857142856,413.1808016640799,521.6,413.57142857142856,413.1808016640799,622.9,95.57142857142857,38.18080166407994,728.2,56.57142857142857,-2.3191983359200634,832.3,59.57142857142857,2.1808016640799366,932.9,71.57142857142857,23.180801664079937,1033.5,65.57142857142857,24.680801664079937,1133.9,65.57142857142857,24.680801664079937,1244.6,65.57142857142857,24.680801664079937,1346.1,59.57142857142857,32.18080166407994,1451.1,-12.42857142857143,56.18080166407994,1552.9,-13.92857142857143,56.18080166407994,1654.1,-15.42857142857143,62.18080166407994,1758.4,-96.42857142857143,143.18080166407992,1863.8,-145.92857142857144,123.68080166407994,1967.4,-147.42857142857144,123.68080166407994,2067.4,-147.42857142857144,123.68080166407994,2173.5,-147.42857142857144,123.68080166407994,2279.4,-147.42857142857144,123.68080166407994,2381.1,-147.42857142857144,123.68080166407994,2481.4,-147.42857142857144,123.68080166407994,2582.5,-147.42857142857144,123.68080166407994,2683.2,-147.42857142857144,123.68080166407994,2787.2,-147.42857142857144,123.68080166407994,2888.3,-147.42857142857144,123.68080166407994,2992.4,-147.42857142857144,123.68080166407994,3100.9,-147.42857142857144,123.68080166407994,3203,-147.42857142857144,123.68080166407994,3308,-147.42857142857144,123.68080166407994,3409,-147.42857142857144,123.68080166407994,3513.2,-147.42857142857144,123.68080166407994,3618.5,-147.42857142857144,123.68080166407994,3722.2,-147.42857142857144,123.68080166407994,3823.1,-147.42857142857144,123.68080166407994,3923.4,-147.42857142857144,123.68080166407994,4030.3,-147.42857142857144,123.68080166407994,4130.9,-147.42857142857144,123.68080166407994,4233.3,-147.42857142857144,123.68080166407994,4334.9,-147.42857142857144,123.68080166407994,4438.2,-147.42857142857144,123.68080166407994,4538.5,-147.42857142857144,123.68080166407994,4645.3,-147.42857142857144,123.68080166407994,4749.6,-147.42857142857144,123.68080166407994,4850.3,-147.42857142857144,123.68080166407994,4953.5]","[1440.3,1440.3,1000,0,440.3,""oops"",""up"",""right"",""bad_move"",5231.7,3790.9,3358.6,1440.8,432.3,""oops"",""up"",""up"",""good_move"",7471,2238.7,1836.1,5232.3,402.6,""oops"",""left"",""right"",""bad_move"",10439.2,2968.1,2581.6,7471.1,386.5,""smooth"",""right"",""right"",""bad_move"",12997.6,2558,2194.2,10439.6,363.9,""smooth"",""right"",""down"",""bad_move"",15425.9,2428,2063.4,12997.9,364.6,""smooth"",""left"",""left"",""good_move"",18782.1,3355.9,2963.5,15426.2,392.4,""while_blue"",""left"",""right"",""bad_move"",21467.8,2685.4,2130.5,18782.4,554.9,""smooth"",""up"",""up"",""good_move"",23602.6,2134.6,1678.1,21468,456.5,""while_blue"",""left"",""left"",""good_move""]","",""
"4076","","<div style=""width:500px;"">
  <p>What determined the result of this run?</p>
  </div>","81","html-slider-response","40","450807","0.0-5.0-1.6","105","1","2025-07-16 10:51:41","1f75c3e559b7213887762d5229550c2b","41.74.177.238","Mozilla/5.0 (Windows NT 10.0; Win64; x64) AppleWebKit/537.36 (KHTML, like Gecko) Chrome/138.0.0.0 Safari/537.36 Edg/138.0.0.0","WebKit","Edge","138.0.0.0","Windows","10.0","https://app.prolific.com/","en-US,en;q=0.9,en-ZA;q=0.8","6122f45e2e93a3ff9a7b7a5d","686e379bc37a29ffa5cdc956","68778418172690604098fc1d","1","1","6122f45e2e93a3ff9a7b7a5d","1","1","2025-07-16T10:59:14.856Z","","","","","","","","","","","AttribQ","","50","","","","","","","","","","","","","","","","","","","","","","","","","","","","",""
"3723","","<div style=""width:500px;"">
  <p>How much control did you have over the ball?</p>
  </div>","17","html-slider-response","41","454530","0.0-5.0-2.6","105","1","2025-07-16 10:51:41","1f75c3e559b7213887762d5229550c2b","41.74.177.238","Mozilla/5.0 (Windows NT 10.0; Win64; x64) AppleWebKit/537.36 (KHTML, like Gecko) Chrome/138.0.0.0 Safari/537.36 Edg/138.0.0.0","WebKit","Edge","138.0.0.0","Windows","10.0","https://app.prolific.com/","en-US,en;q=0.9,en-ZA;q=0.8","6122f45e2e93a3ff9a7b7a5d","686e379bc37a29ffa5cdc956","68778418172690604098fc1d","1","1","6122f45e2e93a3ff9a7b7a5d","1","1","2025-07-16T10:59:18.580Z","","","","","","","","","","","ControlQ","","50","","","","","","","","","","","","","","","","","","","","","","","","","","","","",""
"4928","","<div style=""width:500px;"">
  <p>How would you describe your current emotional state?</p>
  </div>","25","html-slider-response","42","459460","0.0-5.0-3.6","105","1","2025-07-16 10:51:41","1f75c3e559b7213887762d5229550c2b","41.74.177.238","Mozilla/5.0 (Windows NT 10.0; Win64; x64) AppleWebKit/537.36 (KHTML, like Gecko) Chrome/138.0.0.0 Safari/537.36 Edg/138.0.0.0","WebKit","Edge","138.0.0.0","Windows","10.0","https://app.prolific.com/","en-US,en;q=0.9,en-ZA;q=0.8","6122f45e2e93a3ff9a7b7a5d","686e379bc37a29ffa5cdc956","68778418172690604098fc1d","1","1","6122f45e2e93a3ff9a7b7a5d","1","1","2025-07-16T10:59:23.509Z","","","","","","","","","","","StressQ","","50","","","","","","","","","","","","","","","","","","","","","","","","","","","","",""
"17838","","<div style=""width:500px;"">
  <p>What best describes how you currently feel?</p>
  </div>","81","html-slider-response","43","477299","0.0-5.0-4.6","105","1","2025-07-16 10:51:41","1f75c3e559b7213887762d5229550c2b","41.74.177.238","Mozilla/5.0 (Windows NT 10.0; Win64; x64) AppleWebKit/537.36 (KHTML, like Gecko) Chrome/138.0.0.0 Safari/537.36 Edg/138.0.0.0","WebKit","Edge","138.0.0.0","Windows","10.0","https://app.prolific.com/","en-US,en;q=0.9,en-ZA;q=0.8","6122f45e2e93a3ff9a7b7a5d","686e379bc37a29ffa5cdc956","68778418172690604098fc1d","1","1","6122f45e2e93a3ff9a7b7a5d","1","1","2025-07-16T10:59:41.348Z","","","","","","","","","","","MotivationQ","","50","","","","","","","","","","","","","","","","","","","","","","","","","","","","",""
"","","","","ctl-task-cpt","44","513190","0.0-5.0-0.7","105","1","2025-07-16 10:51:41","1f75c3e559b7213887762d5229550c2b","41.74.177.238","Mozilla/5.0 (Windows NT 10.0; Win64; x64) AppleWebKit/537.36 (KHTML, like Gecko) Chrome/138.0.0.0 Safari/537.36 Edg/138.0.0.0","WebKit","Edge","138.0.0.0","Windows","10.0","https://app.prolific.com/","en-US,en;q=0.9,en-ZA;q=0.8","6122f45e2e93a3ff9a7b7a5d","686e379bc37a29ffa5cdc956","68778418172690604098fc1d","1","1","6122f45e2e93a3ff9a7b7a5d","1","1","2025-07-16T11:00:17.239Z","","","","","","","","","","","","","","win-only","0","g1:NW,g2:SE","0.3","8","0","481906.6","1807.8","6810.6","32876.1","1","4","8","6","2","-8","-9","0","0","0","1949.2","3000","-2985","[""down"",""right""]","{""num_key_presses"":9,""num_perfect"":3,""num_errors"":1,""num_randdir"":5,""num_randdir_good_moves"":2,""num_whilered"":0,""num_whileblue"":1,""num_blue"":1,""num_good_moves"":6}","[412.07142857142856,407.1808016640799,0.2,412.07142857142856,407.1808016640799,103.2,412.07142857142856,407.1808016640799,203.4,412.07142857142856,407.1808016640799,308.1,412.07142857142856,407.1808016640799,408.1,412.07142857142856,407.1808016640799,508.1,412.07142857142856,407.1808016640799,614.5,412.07142857142856,407.1808016640799,717.5,424.07142857142856,414.6808016640799,818.4,452.57142857142856,435.6808016640799,922.3,572.5714285714286,515.1808016640799,1022.9,662.5714285714286,611.1808016640799,1124.6,739.0714285714286,785.1808016640799,1228.6,746.5714285714286,809.1808016640799,1333.8,782.5714285714286,809.1808016640799,1434.6,790.0714285714286,809.1808016640799,1537.9,761.5714285714286,749.1808016640799,1642.5,754.0714285714286,740.1808016640799,1743.7,754.0714285714286,740.1808016640799,1848.9,754.0714285714286,740.1808016640799,1949,754.0714285714286,740.1808016640799,2053.4,754.0714285714286,740.1808016640799,2153.4,754.0714285714286,740.1808016640799,2258.2,754.0714285714286,740.1808016640799,2365.9,386.57142857142856,611.1808016640799,2467.5,98.57142857142857,596.1808016640799,2568.2,-27.42857142857143,647.1808016640799,2668.6,-39.42857142857143,653.1808016640799,2772.6,-129.42857142857144,692.1808016640799,2880.3,-136.92857142857144,695.1808016640799,2980.8,-136.92857142857144,695.1808016640799,3083.4,-136.92857142857144,695.1808016640799,3183.7,-136.92857142857144,695.1808016640799,3287.4,-136.92857142857144,695.1808016640799,3387.8,-136.92857142857144,695.1808016640799,3488.1,-136.92857142857144,695.1808016640799,3588.1,-136.92857142857144,695.1808016640799,3693.9,-136.92857142857144,695.1808016640799,3796.4,-136.92857142857144,695.1808016640799,3898,-136.92857142857144,695.1808016640799,3998.8,-136.92857142857144,695.1808016640799,4103.1,-136.92857142857144,695.1808016640799,4203.3,-136.92857142857144,695.1808016640799,4308.3,-136.92857142857144,695.1808016640799,4408.3,-136.92857142857144,695.1808016640799,4512.6,-136.92857142857144,695.1808016640799,4616.4,-136.92857142857144,695.1808016640799,4716.6,-136.92857142857144,695.1808016640799,4817.9,-136.92857142857144,695.1808016640799,4918.3]","[1408.6,1408.6,1000,0,408.6,""smooth"",""down"",""down"",""good_move"",4176.6,2767.7,2367.1,1408.9,400.6,""smooth"",""down"",""down"",""good_move"",6143.5,1966.3,1577.3,4177.3,388.9,""oops"",""down"",""down"",""good_move"",9182.8,3039.1,2683.5,6143.7,355.6,""smooth"",""right"",""right"",""good_move"",12839,3656,3316.6,9183,339.4,""oops"",""right"",""up"",""bad_move"",16121.9,3281.8,2929.8,12840.1,352,""oops"",""right"",""right"",""good_move"",18526.9,2404.7,2039,16122.2,365.7,""oops"",""right"",""left"",""bad_move"",21734.1,3206.9,2368,18527.2,838.9,""while_blue"",""down"",""down"",""good_move"",24277.5,2542.8,2184.5,21734.7,358.3,""oops"",""right"",""left"",""bad_move""]","",""
"4905","","<div style=""width:500px;"">
  <p>What determined the result of this run?</p>
  </div>","79","html-slider-response","45","518096","0.0-5.0-1.7","105","1","2025-07-16 10:51:41","1f75c3e559b7213887762d5229550c2b","41.74.177.238","Mozilla/5.0 (Windows NT 10.0; Win64; x64) AppleWebKit/537.36 (KHTML, like Gecko) Chrome/138.0.0.0 Safari/537.36 Edg/138.0.0.0","WebKit","Edge","138.0.0.0","Windows","10.0","https://app.prolific.com/","en-US,en;q=0.9,en-ZA;q=0.8","6122f45e2e93a3ff9a7b7a5d","686e379bc37a29ffa5cdc956","68778418172690604098fc1d","1","1","6122f45e2e93a3ff9a7b7a5d","1","1","2025-07-16T11:00:22.145Z","","","","","","","","","","","AttribQ","","50","","","","","","","","","","","","","","","","","","","","","","","","","","","","",""
"5729","","<div style=""width:500px;"">
  <p>How much control did you have over the ball?</p>
  </div>","16","html-slider-response","46","523826","0.0-5.0-2.7","105","1","2025-07-16 10:51:41","1f75c3e559b7213887762d5229550c2b","41.74.177.238","Mozilla/5.0 (Windows NT 10.0; Win64; x64) AppleWebKit/537.36 (KHTML, like Gecko) Chrome/138.0.0.0 Safari/537.36 Edg/138.0.0.0","WebKit","Edge","138.0.0.0","Windows","10.0","https://app.prolific.com/","en-US,en;q=0.9,en-ZA;q=0.8","6122f45e2e93a3ff9a7b7a5d","686e379bc37a29ffa5cdc956","68778418172690604098fc1d","1","1","6122f45e2e93a3ff9a7b7a5d","1","1","2025-07-16T11:00:27.875Z","","","","","","","","","","","ControlQ","","50","","","","","","","","","","","","","","","","","","","","","","","","","","","","",""
"4173","","<div style=""width:500px;"">
  <p>How would you describe your current emotional state?</p>
  </div>","17","html-slider-response","47","528000","0.0-5.0-3.7","105","1","2025-07-16 10:51:41","1f75c3e559b7213887762d5229550c2b","41.74.177.238","Mozilla/5.0 (Windows NT 10.0; Win64; x64) AppleWebKit/537.36 (KHTML, like Gecko) Chrome/138.0.0.0 Safari/537.36 Edg/138.0.0.0","WebKit","Edge","138.0.0.0","Windows","10.0","https://app.prolific.com/","en-US,en;q=0.9,en-ZA;q=0.8","6122f45e2e93a3ff9a7b7a5d","686e379bc37a29ffa5cdc956","68778418172690604098fc1d","1","1","6122f45e2e93a3ff9a7b7a5d","1","1","2025-07-16T11:00:32.049Z","","","","","","","","","","","StressQ","","50","","","","","","","","","","","","","","","","","","","","","","","","","","","","",""
"8739","","<div style=""width:500px;"">
  <p>What best describes how you currently feel?</p>
  </div>","80","html-slider-response","48","536740","0.0-5.0-4.7","105","1","2025-07-16 10:51:41","1f75c3e559b7213887762d5229550c2b","41.74.177.238","Mozilla/5.0 (Windows NT 10.0; Win64; x64) AppleWebKit/537.36 (KHTML, like Gecko) Chrome/138.0.0.0 Safari/537.36 Edg/138.0.0.0","WebKit","Edge","138.0.0.0","Windows","10.0","https://app.prolific.com/","en-US,en;q=0.9,en-ZA;q=0.8","6122f45e2e93a3ff9a7b7a5d","686e379bc37a29ffa5cdc956","68778418172690604098fc1d","1","1","6122f45e2e93a3ff9a7b7a5d","1","1","2025-07-16T11:00:40.789Z","","","","","","","","","","","MotivationQ","","50","","","","","","","","","","","","","","","","","","","","","","","","","","","","",""
"","","","","ctl-task-cpt","49","558020","0.0-5.0-0.8","105","1","2025-07-16 10:51:41","1f75c3e559b7213887762d5229550c2b","41.74.177.238","Mozilla/5.0 (Windows NT 10.0; Win64; x64) AppleWebKit/537.36 (KHTML, like Gecko) Chrome/138.0.0.0 Safari/537.36 Edg/138.0.0.0","WebKit","Edge","138.0.0.0","Windows","10.0","https://app.prolific.com/","en-US,en;q=0.9,en-ZA;q=0.8","6122f45e2e93a3ff9a7b7a5d","686e379bc37a29ffa5cdc956","68778418172690604098fc1d","1","1","6122f45e2e93a3ff9a7b7a5d","1","1","2025-07-16T11:01:02.069Z","","","","","","","","","","","","","","win-only","3","g1:SW,g2:NE","0.2","9","0","541347","1988.4","6990.9","18260.6","1","4","4","6","1","1","1","1","0","0.007575757575757576","1713","3000","1275","[""down"",""left""]","{""num_key_presses"":4,""num_perfect"":0,""num_errors"":0,""num_randdir"":4,""num_randdir_good_moves"":4,""num_whilered"":0,""num_whileblue"":0,""num_blue"":1,""num_good_moves"":4}","[416.57142857142856,414.6808016640799,0.2,416.57142857142856,414.6808016640799,105.5,416.57142857142856,414.6808016640799,210.2,416.57142857142856,414.6808016640799,311.3,416.57142857142856,414.6808016640799,412.6,416.57142857142856,414.6808016640799,513.2,416.57142857142856,414.6808016640799,617.5,416.57142857142856,414.6808016640799,725.5,194.57142857142856,515.1808016640799,825.6,92.57142857142857,621.6808016640799,926.2,53.57142857142857,674.1808016640799,1028.7,53.57142857142857,687.6808016640799,1132.2,64.07142857142857,710.1808016640799,1237.2,83.57142857142857,740.1808016640799,1340.7,86.57142857142857,746.1808016640799,1446,89.57142857142857,746.1808016640799,1547.8,89.57142857142857,746.1808016640799,1650.2,89.57142857142857,746.1808016640799,1755.4,89.57142857142857,746.1808016640799,1859.8,89.57142857142857,746.1808016640799,1963.3,89.57142857142857,746.1808016640799,2063.7,89.57142857142857,746.1808016640799,2167.8,89.57142857142857,746.1808016640799,2268,89.57142857142857,746.1808016640799,2372.9,89.57142857142857,746.1808016640799,2475.5,89.57142857142857,746.1808016640799,2575.6,89.57142857142857,746.1808016640799,2677.9,89.57142857142857,746.1808016640799,2778.5,89.57142857142857,746.1808016640799,2882.3,89.57142857142857,746.1808016640799,2986.9,89.57142857142857,746.1808016640799,3089.2,89.57142857142857,746.1808016640799,3191.8,89.57142857142857,746.1808016640799,3294.1,89.57142857142857,746.1808016640799,3401.5,89.57142857142857,746.1808016640799,3504.3,89.57142857142857,746.1808016640799,3608.1,89.57142857142857,746.1808016640799,3711.2,89.57142857142857,746.1808016640799,3812.2,89.57142857142857,746.1808016640799,3918,89.57142857142857,746.1808016640799,4025.6,89.57142857142857,746.1808016640799,4128.6,89.57142857142857,746.1808016640799,4234.2,89.57142857142857,746.1808016640799,4338.8,89.57142857142857,746.1808016640799,4440.1,89.57142857142857,746.1808016640799,4543.8,89.57142857142857,746.1808016640799,4647.5,89.57142857142857,746.1808016640799,4747.7,89.57142857142857,746.1808016640799,4851.7,89.57142857142857,746.1808016640799,4954.8]","[3888.6,3888.6,1436.2,2010.7,441.7,""oops"",""down"",""left"",""good_move"",6318.6,2429.7,1910.1,3888.9,519.6,""oops"",""down"",""down"",""good_move"",8655.5,2335.9,1881.7,6319.7,454.1,""oops"",""down"",""down"",""good_move"",11178.4,2522.8,2166.7,8655.7,356,""oops"",""left"",""left"",""good_move""]","",""
"9306","","<div style=""width:500px;"">
  <p>What determined the result of this run?</p>
  </div>","81","html-slider-response","50","567327","0.0-5.0-1.8","105","1","2025-07-16 10:51:41","1f75c3e559b7213887762d5229550c2b","41.74.177.238","Mozilla/5.0 (Windows NT 10.0; Win64; x64) AppleWebKit/537.36 (KHTML, like Gecko) Chrome/138.0.0.0 Safari/537.36 Edg/138.0.0.0","WebKit","Edge","138.0.0.0","Windows","10.0","https://app.prolific.com/","en-US,en;q=0.9,en-ZA;q=0.8","6122f45e2e93a3ff9a7b7a5d","686e379bc37a29ffa5cdc956","68778418172690604098fc1d","1","1","6122f45e2e93a3ff9a7b7a5d","1","1","2025-07-16T11:01:11.376Z","","","","","","","","","","","AttribQ","","50","","","","","","","","","","","","","","","","","","","","","","","","","","","","",""
"6289","","<div style=""width:500px;"">
  <p>How much control did you have over the ball?</p>
  </div>","29","html-slider-response","51","573617","0.0-5.0-2.8","105","1","2025-07-16 10:51:41","1f75c3e559b7213887762d5229550c2b","41.74.177.238","Mozilla/5.0 (Windows NT 10.0; Win64; x64) AppleWebKit/537.36 (KHTML, like Gecko) Chrome/138.0.0.0 Safari/537.36 Edg/138.0.0.0","WebKit","Edge","138.0.0.0","Windows","10.0","https://app.prolific.com/","en-US,en;q=0.9,en-ZA;q=0.8","6122f45e2e93a3ff9a7b7a5d","686e379bc37a29ffa5cdc956","68778418172690604098fc1d","1","1","6122f45e2e93a3ff9a7b7a5d","1","1","2025-07-16T11:01:17.667Z","","","","","","","","","","","ControlQ","","50","","","","","","","","","","","","","","","","","","","","","","","","","","","","",""
"4513","","<div style=""width:500px;"">
  <p>How would you describe your current emotional state?</p>
  </div>","16","html-slider-response","52","578131","0.0-5.0-3.8","105","1","2025-07-16 10:51:41","1f75c3e559b7213887762d5229550c2b","41.74.177.238","Mozilla/5.0 (Windows NT 10.0; Win64; x64) AppleWebKit/537.36 (KHTML, like Gecko) Chrome/138.0.0.0 Safari/537.36 Edg/138.0.0.0","WebKit","Edge","138.0.0.0","Windows","10.0","https://app.prolific.com/","en-US,en;q=0.9,en-ZA;q=0.8","6122f45e2e93a3ff9a7b7a5d","686e379bc37a29ffa5cdc956","68778418172690604098fc1d","1","1","6122f45e2e93a3ff9a7b7a5d","1","1","2025-07-16T11:01:22.181Z","","","","","","","","","","","StressQ","","50","","","","","","","","","","","","","","","","","","","","","","","","","","","","",""
"4470","","<div style=""width:500px;"">
  <p>What best describes how you currently feel?</p>
  </div>","79","html-slider-response","53","582602","0.0-5.0-4.8","105","1","2025-07-16 10:51:41","1f75c3e559b7213887762d5229550c2b","41.74.177.238","Mozilla/5.0 (Windows NT 10.0; Win64; x64) AppleWebKit/537.36 (KHTML, like Gecko) Chrome/138.0.0.0 Safari/537.36 Edg/138.0.0.0","WebKit","Edge","138.0.0.0","Windows","10.0","https://app.prolific.com/","en-US,en;q=0.9,en-ZA;q=0.8","6122f45e2e93a3ff9a7b7a5d","686e379bc37a29ffa5cdc956","68778418172690604098fc1d","1","1","6122f45e2e93a3ff9a7b7a5d","1","1","2025-07-16T11:01:26.651Z","","","","","","","","","","","MotivationQ","","50","","","","","","","","","","","","","","","","","","","","","","","","","","","","",""
"","","","","ctl-task-cpt","54","620711","0.0-5.0-0.9","105","1","2025-07-16 10:51:41","1f75c3e559b7213887762d5229550c2b","41.74.177.238","Mozilla/5.0 (Windows NT 10.0; Win64; x64) AppleWebKit/537.36 (KHTML, like Gecko) Chrome/138.0.0.0 Safari/537.36 Edg/138.0.0.0","WebKit","Edge","138.0.0.0","Windows","10.0","https://app.prolific.com/","en-US,en;q=0.9,en-ZA;q=0.8","6122f45e2e93a3ff9a7b7a5d","686e379bc37a29ffa5cdc956","68778418172690604098fc1d","1","1","6122f45e2e93a3ff9a7b7a5d","1","1","2025-07-16T11:02:04.760Z","","","","","","","","","","","","","","win-only","0","g1:NW,g2:SE","0.4","10","0","587213","1537.3","6541.1","35086.4","1","4","8","6","1","-1","-1","0","1","0","1801","3000","-2955","[""left"",""up""]","{""num_key_presses"":8,""num_perfect"":3,""num_errors"":0,""num_randdir"":5,""num_randdir_good_moves"":2,""num_whilered"":0,""num_whileblue"":0,""num_blue"":1,""num_good_moves"":5}","[410.57142857142856,413.1808016640799,0.1,410.57142857142856,413.1808016640799,104,410.57142857142856,413.1808016640799,209.3,410.57142857142856,413.1808016640799,313,410.57142857142856,413.1808016640799,413.1,410.57142857142856,413.1808016640799,513.6,410.57142857142856,413.1808016640799,618.5,410.57142857142856,413.1808016640799,719.5,410.57142857142856,413.1808016640799,820.5,236.57142857142856,255.68080166407992,923.6,119.57142857142857,209.18080166407992,1025.4,119.57142857142857,209.18080166407992,1125.7,119.57142857142857,209.18080166407992,1229,107.57142857142857,179.18080166407992,1333.8,56.57142857142857,57.68080166407994,1438.3,56.57142857142857,53.18080166407994,1539.2,55.07142857142857,53.18080166407994,1641.3,55.07142857142857,53.18080166407994,1746.6,55.07142857142857,53.18080166407994,1848.2,55.07142857142857,53.18080166407994,1949,55.07142857142857,53.18080166407994,2053.1,55.07142857142857,53.18080166407994,2155.1,-153.42857142857144,146.18080166407992,2260.6,-270.42857142857144,225.68080166407992,2365.2,-340.92857142857144,296.1808016640799,2469,-340.92857142857144,294.6808016640799,2569.7,-340.92857142857144,294.6808016640799,2678.3,-340.92857142857144,294.6808016640799,2781.7,-340.92857142857144,294.6808016640799,2882.9,-340.92857142857144,294.6808016640799,2989.1,-340.92857142857144,294.6808016640799,3089.2,-340.92857142857144,294.6808016640799,3195,-340.92857142857144,294.6808016640799,3298.3,-340.92857142857144,294.6808016640799,3401.1,-340.92857142857144,294.6808016640799,3501.5,-340.92857142857144,294.6808016640799,3603.6,-340.92857142857144,294.6808016640799,3714.4,-340.92857142857144,294.6808016640799,3818.4,-340.92857142857144,294.6808016640799,3928.3,-340.92857142857144,294.6808016640799,4029.8,-340.92857142857144,294.6808016640799,4130.8,-340.92857142857144,294.6808016640799,4233.2,-340.92857142857144,294.6808016640799,4334.7,-340.92857142857144,294.6808016640799,4438.4,-340.92857142857144,294.6808016640799,4542.6,-340.92857142857144,294.6808016640799,4643.5,-340.92857142857144,294.6808016640799,4747.9,-340.92857142857144,294.6808016640799,4848.1,-340.92857142857144,294.6808016640799,4948.9]","[1425.5,1425.5,1000,0,425.5,""smooth"",""up"",""up"",""good_move"",4128.3,2702.4,2280.1,1425.9,422.3,""oops"",""up"",""right"",""bad_move"",7884.3,3755.9,3374.8,4128.4,381.1,""smooth"",""up"",""up"",""good_move"",10287.7,2403,2026.6,7884.7,376.4,""smooth"",""left"",""left"",""good_move"",13091.1,2803.2,2460.9,10287.9,342.3,""oops"",""left"",""down"",""bad_move"",16260.3,3169.1,2793,13091.2,376.1,""oops"",""left"",""left"",""good_move"",19363.9,3103.4,2758.7,16260.6,344.6,""oops"",""left"",""left"",""good_move"",25635.3,6271.3,2461.6,22854.2,319.5,""oops"",""up"",""down"",""bad_move""]","",""
"5397","","<div style=""width:500px;"">
  <p>What determined the result of this run?</p>
  </div>","81","html-slider-response","55","626108","0.0-5.0-1.9","105","1","2025-07-16 10:51:41","1f75c3e559b7213887762d5229550c2b","41.74.177.238","Mozilla/5.0 (Windows NT 10.0; Win64; x64) AppleWebKit/537.36 (KHTML, like Gecko) Chrome/138.0.0.0 Safari/537.36 Edg/138.0.0.0","WebKit","Edge","138.0.0.0","Windows","10.0","https://app.prolific.com/","en-US,en;q=0.9,en-ZA;q=0.8","6122f45e2e93a3ff9a7b7a5d","686e379bc37a29ffa5cdc956","68778418172690604098fc1d","1","1","6122f45e2e93a3ff9a7b7a5d","1","1","2025-07-16T11:02:10.158Z","","","","","","","","","","","AttribQ","","50","","","","","","","","","","","","","","","","","","","","","","","","","","","","",""
"8806","","<div style=""width:500px;"">
  <p>How much control did you have over the ball?</p>
  </div>","70","html-slider-response","56","634915","0.0-5.0-2.9","105","1","2025-07-16 10:51:41","1f75c3e559b7213887762d5229550c2b","41.74.177.238","Mozilla/5.0 (Windows NT 10.0; Win64; x64) AppleWebKit/537.36 (KHTML, like Gecko) Chrome/138.0.0.0 Safari/537.36 Edg/138.0.0.0","WebKit","Edge","138.0.0.0","Windows","10.0","https://app.prolific.com/","en-US,en;q=0.9,en-ZA;q=0.8","6122f45e2e93a3ff9a7b7a5d","686e379bc37a29ffa5cdc956","68778418172690604098fc1d","1","1","6122f45e2e93a3ff9a7b7a5d","1","1","2025-07-16T11:02:18.964Z","","","","","","","","","","","ControlQ","","50","","","","","","","","","","","","","","","","","","","","","","","","","","","","",""
"4943","","<div style=""width:500px;"">
  <p>How would you describe your current emotional state?</p>
  </div>","18","html-slider-response","57","639859","0.0-5.0-3.9","105","1","2025-07-16 10:51:41","1f75c3e559b7213887762d5229550c2b","41.74.177.238","Mozilla/5.0 (Windows NT 10.0; Win64; x64) AppleWebKit/537.36 (KHTML, like Gecko) Chrome/138.0.0.0 Safari/537.36 Edg/138.0.0.0","WebKit","Edge","138.0.0.0","Windows","10.0","https://app.prolific.com/","en-US,en;q=0.9,en-ZA;q=0.8","6122f45e2e93a3ff9a7b7a5d","686e379bc37a29ffa5cdc956","68778418172690604098fc1d","1","1","6122f45e2e93a3ff9a7b7a5d","1","1","2025-07-16T11:02:23.908Z","","","","","","","","","","","StressQ","","50","","","","","","","","","","","","","","","","","","","","","","","","","","","","",""
"8979","","<div style=""width:500px;"">
  <p>What best describes how you currently feel?</p>
  </div>","79","html-slider-response","58","648838","0.0-5.0-4.9","105","1","2025-07-16 10:51:41","1f75c3e559b7213887762d5229550c2b","41.74.177.238","Mozilla/5.0 (Windows NT 10.0; Win64; x64) AppleWebKit/537.36 (KHTML, like Gecko) Chrome/138.0.0.0 Safari/537.36 Edg/138.0.0.0","WebKit","Edge","138.0.0.0","Windows","10.0","https://app.prolific.com/","en-US,en;q=0.9,en-ZA;q=0.8","6122f45e2e93a3ff9a7b7a5d","686e379bc37a29ffa5cdc956","68778418172690604098fc1d","1","1","6122f45e2e93a3ff9a7b7a5d","1","1","2025-07-16T11:02:32.888Z","","","","","","","","","","","MotivationQ","","50","","","","","","","","","","","","","","","","","","","","","","","","","","","","",""
"","","","","ctl-task-cpt","59","682854","0.0-5.0-0.10","105","1","2025-07-16 10:51:41","1f75c3e559b7213887762d5229550c2b","41.74.177.238","Mozilla/5.0 (Windows NT 10.0; Win64; x64) AppleWebKit/537.36 (KHTML, like Gecko) Chrome/138.0.0.0 Safari/537.36 Edg/138.0.0.0","WebKit","Edge","138.0.0.0","Windows","10.0","https://app.prolific.com/","en-US,en;q=0.9,en-ZA;q=0.8","6122f45e2e93a3ff9a7b7a5d","686e379bc37a29ffa5cdc956","68778418172690604098fc1d","1","1","6122f45e2e93a3ff9a7b7a5d","1","1","2025-07-16T11:03:06.903Z","","","","","","","","","","","","","","win-only","2","g1:SE,g2:NW","0.5","11","0","653446.2","2648.3","7649.3","30994.5","1","4","4","6","1","-1","-1","0","0","0","1633.1","3000","-2890","[""down"",""right""]","{""num_key_presses"":7,""num_perfect"":4,""num_errors"":0,""num_randdir"":3,""num_randdir_good_moves"":2,""num_whilered"":0,""num_whileblue"":0,""num_blue"":1,""num_good_moves"":5}","[415.07142857142856,407.1808016640799,0.3,415.07142857142856,407.1808016640799,101.5,415.07142857142856,407.1808016640799,203.5,415.07142857142856,407.1808016640799,307.5,415.07142857142856,407.1808016640799,407.8,415.07142857142856,407.1808016640799,517.7,415.07142857142856,407.1808016640799,618,415.07142857142856,407.1808016640799,722.8,590.5714285714286,534.6808016640799,827.8,775.0714285714286,659.1808016640799,930,776.5714285714286,663.6808016640799,1036.1,773.5714285714286,668.1808016640799,1137.3,764.5714285714286,683.1808016640799,1237.3,761.5714285714286,695.1808016640799,1337.5,764.5714285714286,707.1808016640799,1438,766.0714285714286,707.1808016640799,1551.4,766.0714285714286,707.1808016640799,1651.7,766.0714285714286,707.1808016640799,1752.7,766.0714285714286,707.1808016640799,1858.1,766.0714285714286,707.1808016640799,1968.3,766.0714285714286,707.1808016640799,2072.2,455.57142857142856,737.1808016640799,2179.6,331.07142857142856,752.1808016640799,2284.3,173.57142857142856,791.1808016640799,2384.4,121.07142857142857,800.1808016640799,2485.3,119.57142857142857,800.1808016640799,2586.9,119.57142857142857,800.1808016640799,2687.5,119.57142857142857,800.1808016640799,2788.4,119.57142857142857,800.1808016640799,2892.9,119.57142857142857,800.1808016640799,3000.9,119.57142857142857,800.1808016640799,3101.8,119.57142857142857,800.1808016640799,3201.9,119.57142857142857,800.1808016640799,3303.1,119.57142857142857,800.1808016640799,3403.3,119.57142857142857,800.1808016640799,3507.8,119.57142857142857,800.1808016640799,3617.5,119.57142857142857,800.1808016640799,3717.7,119.57142857142857,800.1808016640799,3818.3,119.57142857142857,800.1808016640799,3922.9,119.57142857142857,800.1808016640799,4034.8,119.57142857142857,800.1808016640799,4137.5,119.57142857142857,800.1808016640799,4242.9,119.57142857142857,800.1808016640799,4351,119.57142857142857,800.1808016640799,4453.1,119.57142857142857,800.1808016640799,4557.1,119.57142857142857,800.1808016640799,4657.1,119.57142857142857,800.1808016640799,4757.1,119.57142857142857,800.1808016640799,4857.8,119.57142857142857,800.1808016640799,4964.2]","[1630.6,1630.6,1000,0,630.6,""smooth"",""down"",""down"",""good_move"",4499.3,2868.3,2474.2,1631,394.1,""smooth"",""down"",""down"",""good_move"",7006.4,2507,1972.3,4499.4,534.7,""oops"",""right"",""left"",""bad_move"",9789.4,2782.7,2370.6,7006.7,412.1,""smooth"",""left"",""left"",""bad_move"",12879.4,3089.7,2711.9,9789.7,377.8,""oops"",""right"",""right"",""good_move"",15532.1,2652.2,2233.5,12879.9,418.7,""smooth"",""right"",""right"",""good_move"",21363.3,5831,2019.4,18986.5,357.4,""oops"",""right"",""right"",""good_move""]","",""
"3684","","<div style=""width:500px;"">
  <p>What determined the result of this run?</p>
  </div>","84","html-slider-response","60","686538","0.0-5.0-1.10","105","1","2025-07-16 10:51:41","1f75c3e559b7213887762d5229550c2b","41.74.177.238","Mozilla/5.0 (Windows NT 10.0; Win64; x64) AppleWebKit/537.36 (KHTML, like Gecko) Chrome/138.0.0.0 Safari/537.36 Edg/138.0.0.0","WebKit","Edge","138.0.0.0","Windows","10.0","https://app.prolific.com/","en-US,en;q=0.9,en-ZA;q=0.8","6122f45e2e93a3ff9a7b7a5d","686e379bc37a29ffa5cdc956","68778418172690604098fc1d","1","1","6122f45e2e93a3ff9a7b7a5d","1","1","2025-07-16T11:03:10.587Z","","","","","","","","","","","AttribQ","","50","","","","","","","","","","","","","","","","","","","","","","","","","","","","",""
"4188","","<div style=""width:500px;"">
  <p>How much control did you have over the ball?</p>
  </div>","13","html-slider-response","61","690727","0.0-5.0-2.10","105","1","2025-07-16 10:51:41","1f75c3e559b7213887762d5229550c2b","41.74.177.238","Mozilla/5.0 (Windows NT 10.0; Win64; x64) AppleWebKit/537.36 (KHTML, like Gecko) Chrome/138.0.0.0 Safari/537.36 Edg/138.0.0.0","WebKit","Edge","138.0.0.0","Windows","10.0","https://app.prolific.com/","en-US,en;q=0.9,en-ZA;q=0.8","6122f45e2e93a3ff9a7b7a5d","686e379bc37a29ffa5cdc956","68778418172690604098fc1d","1","1","6122f45e2e93a3ff9a7b7a5d","1","1","2025-07-16T11:03:14.776Z","","","","","","","","","","","ControlQ","","50","","","","","","","","","","","","","","","","","","","","","","","","","","","","",""
"5050","","<div style=""width:500px;"">
  <p>How would you describe your current emotional state?</p>
  </div>","45","html-slider-response","62","695778","0.0-5.0-3.10","105","1","2025-07-16 10:51:41","1f75c3e559b7213887762d5229550c2b","41.74.177.238","Mozilla/5.0 (Windows NT 10.0; Win64; x64) AppleWebKit/537.36 (KHTML, like Gecko) Chrome/138.0.0.0 Safari/537.36 Edg/138.0.0.0","WebKit","Edge","138.0.0.0","Windows","10.0","https://app.prolific.com/","en-US,en;q=0.9,en-ZA;q=0.8","6122f45e2e93a3ff9a7b7a5d","686e379bc37a29ffa5cdc956","68778418172690604098fc1d","1","1","6122f45e2e93a3ff9a7b7a5d","1","1","2025-07-16T11:03:19.827Z","","","","","","","","","","","StressQ","","50","","","","","","","","","","","","","","","","","","","","","","","","","","","","",""
"4068","","<div style=""width:500px;"">
  <p>What best describes how you currently feel?</p>
  </div>","79","html-slider-response","63","699847","0.0-5.0-4.10","105","1","2025-07-16 10:51:41","1f75c3e559b7213887762d5229550c2b","41.74.177.238","Mozilla/5.0 (Windows NT 10.0; Win64; x64) AppleWebKit/537.36 (KHTML, like Gecko) Chrome/138.0.0.0 Safari/537.36 Edg/138.0.0.0","WebKit","Edge","138.0.0.0","Windows","10.0","https://app.prolific.com/","en-US,en;q=0.9,en-ZA;q=0.8","6122f45e2e93a3ff9a7b7a5d","686e379bc37a29ffa5cdc956","68778418172690604098fc1d","1","1","6122f45e2e93a3ff9a7b7a5d","1","1","2025-07-16T11:03:23.896Z","","","","","","","","","","","MotivationQ","","50","","","","","","","","","","","","","","","","","","","","","","","","","","","","",""
"","","","","ctl-task-cpt","64","740846","0.0-5.0-0.11","105","1","2025-07-16 10:51:41","1f75c3e559b7213887762d5229550c2b","41.74.177.238","Mozilla/5.0 (Windows NT 10.0; Win64; x64) AppleWebKit/537.36 (KHTML, like Gecko) Chrome/138.0.0.0 Safari/537.36 Edg/138.0.0.0","WebKit","Edge","138.0.0.0","Windows","10.0","https://app.prolific.com/","en-US,en;q=0.9,en-ZA;q=0.8","6122f45e2e93a3ff9a7b7a5d","686e379bc37a29ffa5cdc956","68778418172690604098fc1d","1","1","6122f45e2e93a3ff9a7b7a5d","1","1","2025-07-16T11:04:04.895Z","","","","","","","","","","","","","","win-only","2","g1:SE,g2:NW","0.6","12","0","704454.9","2609.8","7610.8","37975.4","1","4","8","6","1","-1","-1","0","0","0","1503.5","3000","-2895","[""down"",""right""]","{""num_key_presses"":6,""num_perfect"":4,""num_errors"":0,""num_randdir"":2,""num_randdir_good_moves"":0,""num_whilered"":0,""num_whileblue"":0,""num_blue"":4,""num_good_moves"":4}","[407.57142857142856,419.1808016640799,0.2,407.57142857142856,419.1808016640799,101.8,407.57142857142856,419.1808016640799,210.3,407.57142857142856,419.1808016640799,312.6,407.57142857142856,419.1808016640799,415.8,407.57142857142856,419.1808016640799,516.9,521.5714285714286,473.1808016640799,626.1,662.5714285714286,590.1808016640799,730.4,688.0714285714286,669.6808016640799,831.2,709.0714285714286,812.1808016640799,935.9,710.5714285714286,812.1808016640799,1043.7,710.5714285714286,812.1808016640799,1147.1,710.5714285714286,812.1808016640799,1247.6,710.5714285714286,812.1808016640799,1351.2,710.5714285714286,812.1808016640799,1455.7,710.5714285714286,812.1808016640799,1558.2,710.5714285714286,812.1808016640799,1658.7,710.5714285714286,812.1808016640799,1761.5,710.5714285714286,812.1808016640799,1867.3,431.57142857142856,801.6808016640799,1976.9,248.57142857142856,813.6808016640799,2076.9,227.57142857142856,821.1808016640799,2178.6,209.57142857142856,825.6808016640799,2281.9,206.57142857142856,827.1808016640799,2385.4,206.57142857142856,827.1808016640799,2485.9,206.57142857142856,827.1808016640799,2591.1,206.57142857142856,827.1808016640799,2693.8,206.57142857142856,827.1808016640799,2794.4,206.57142857142856,827.1808016640799,2895.5,206.57142857142856,827.1808016640799,2996.7,206.57142857142856,827.1808016640799,3100.9,206.57142857142856,827.1808016640799,3201.3,206.57142857142856,827.1808016640799,3303.6,206.57142857142856,827.1808016640799,3411.8,206.57142857142856,827.1808016640799,3512.8,206.57142857142856,827.1808016640799,3615.5,206.57142857142856,827.1808016640799,3715.6,206.57142857142856,827.1808016640799,3816,206.57142857142856,827.1808016640799,3923.1,206.57142857142856,827.1808016640799,4030,206.57142857142856,827.1808016640799,4130.7,206.57142857142856,827.1808016640799,4235.9,206.57142857142856,827.1808016640799,4343.2,206.57142857142856,827.1808016640799,4445.8,206.57142857142856,827.1808016640799,4546.4,206.57142857142856,827.1808016640799,4650.5,206.57142857142856,827.1808016640799,4751.9,206.57142857142856,827.1808016640799,4852.2,206.57142857142856,827.1808016640799,4958.9]","[1409.9,1409.9,1000,0,409.9,""oops"",""down"",""up"",""bad_move"",4762.6,3352.5,2535.7,1410.2,816.8,""smooth"",""down"",""down"",""good_move"",7558.8,2795.9,2339,4762.9,456.9,""smooth"",""down"",""down"",""good_move"",9665.5,2106.2,1702.3,7559.3,403.9,""smooth"",""down"",""down"",""good_move"",12942.7,3277,2846.4,9665.7,430.6,""smooth"",""right"",""right"",""good_move"",25258.6,12315.5,2152.3,22745.3,361,""oops"",""right"",""up"",""bad_move""]","",""
"4528","","<div style=""width:500px;"">
  <p>What determined the result of this run?</p>
  </div>","82","html-slider-response","65","745375","0.0-5.0-1.11","105","1","2025-07-16 10:51:41","1f75c3e559b7213887762d5229550c2b","41.74.177.238","Mozilla/5.0 (Windows NT 10.0; Win64; x64) AppleWebKit/537.36 (KHTML, like Gecko) Chrome/138.0.0.0 Safari/537.36 Edg/138.0.0.0","WebKit","Edge","138.0.0.0","Windows","10.0","https://app.prolific.com/","en-US,en;q=0.9,en-ZA;q=0.8","6122f45e2e93a3ff9a7b7a5d","686e379bc37a29ffa5cdc956","68778418172690604098fc1d","1","1","6122f45e2e93a3ff9a7b7a5d","1","1","2025-07-16T11:04:09.424Z","","","","","","","","","","","AttribQ","","50","","","","","","","","","","","","","","","","","","","","","","","","","","","","",""
"4440","","<div style=""width:500px;"">
  <p>How much control did you have over the ball?</p>
  </div>","69","html-slider-response","66","749816","0.0-5.0-2.11","105","1","2025-07-16 10:51:41","1f75c3e559b7213887762d5229550c2b","41.74.177.238","Mozilla/5.0 (Windows NT 10.0; Win64; x64) AppleWebKit/537.36 (KHTML, like Gecko) Chrome/138.0.0.0 Safari/537.36 Edg/138.0.0.0","WebKit","Edge","138.0.0.0","Windows","10.0","https://app.prolific.com/","en-US,en;q=0.9,en-ZA;q=0.8","6122f45e2e93a3ff9a7b7a5d","686e379bc37a29ffa5cdc956","68778418172690604098fc1d","1","1","6122f45e2e93a3ff9a7b7a5d","1","1","2025-07-16T11:04:13.865Z","","","","","","","","","","","ControlQ","","50","","","","","","","","","","","","","","","","","","","","","","","","","","","","",""
"4406","","<div style=""width:500px;"">
  <p>How would you describe your current emotional state?</p>
  </div>","27","html-slider-response","67","754223","0.0-5.0-3.11","105","1","2025-07-16 10:51:41","1f75c3e559b7213887762d5229550c2b","41.74.177.238","Mozilla/5.0 (Windows NT 10.0; Win64; x64) AppleWebKit/537.36 (KHTML, like Gecko) Chrome/138.0.0.0 Safari/537.36 Edg/138.0.0.0","WebKit","Edge","138.0.0.0","Windows","10.0","https://app.prolific.com/","en-US,en;q=0.9,en-ZA;q=0.8","6122f45e2e93a3ff9a7b7a5d","686e379bc37a29ffa5cdc956","68778418172690604098fc1d","1","1","6122f45e2e93a3ff9a7b7a5d","1","1","2025-07-16T11:04:18.272Z","","","","","","","","","","","StressQ","","50","","","","","","","","","","","","","","","","","","","","","","","","","","","","",""
"7631","","<div style=""width:500px;"">
  <p>What best describes how you currently feel?</p>
  </div>","82","html-slider-response","68","761855","0.0-5.0-4.11","105","1","2025-07-16 10:51:41","1f75c3e559b7213887762d5229550c2b","41.74.177.238","Mozilla/5.0 (Windows NT 10.0; Win64; x64) AppleWebKit/537.36 (KHTML, like Gecko) Chrome/138.0.0.0 Safari/537.36 Edg/138.0.0.0","WebKit","Edge","138.0.0.0","Windows","10.0","https://app.prolific.com/","en-US,en;q=0.9,en-ZA;q=0.8","6122f45e2e93a3ff9a7b7a5d","686e379bc37a29ffa5cdc956","68778418172690604098fc1d","1","1","6122f45e2e93a3ff9a7b7a5d","1","1","2025-07-16T11:04:25.905Z","","","","","","","","","","","MotivationQ","","50","","","","","","","","","","","","","","","","","","","","","","","","","","","","",""
"","","","","ctl-task-cpt","69","787206","0.0-5.0-0.12","105","1","2025-07-16 10:51:41","1f75c3e559b7213887762d5229550c2b","41.74.177.238","Mozilla/5.0 (Windows NT 10.0; Win64; x64) AppleWebKit/537.36 (KHTML, like Gecko) Chrome/138.0.0.0 Safari/537.36 Edg/138.0.0.0","WebKit","Edge","138.0.0.0","Windows","10.0","https://app.prolific.com/","en-US,en;q=0.9,en-ZA;q=0.8","6122f45e2e93a3ff9a7b7a5d","686e379bc37a29ffa5cdc956","68778418172690604098fc1d","1","1","6122f45e2e93a3ff9a7b7a5d","1","1","2025-07-16T11:04:51.255Z","","","","","","","","","","","","","","win-only","1","g1:NE,g2:SW","0.7","13","0","766464.5","1695.6","6697.3","22330.5","1","4","8","6","1","1","1","1","0","0.007575757575757576","1749.3","3000","1675","[""up"",""right""]","{""num_key_presses"":4,""num_perfect"":4,""num_errors"":0,""num_randdir"":0,""num_randdir_good_moves"":0,""num_whilered"":0,""num_whileblue"":0,""num_blue"":1,""num_good_moves"":4}","[410.57142857142856,411.6808016640799,0.4,410.57142857142856,411.6808016640799,100.2,410.57142857142856,411.6808016640799,202.2,410.57142857142856,411.6808016640799,303.5,410.57142857142856,411.6808016640799,405.3,410.57142857142856,411.6808016640799,505.3,410.57142857142856,411.6808016640799,605.5,410.57142857142856,411.6808016640799,706.1,410.57142857142856,411.6808016640799,811.1,410.57142857142856,411.6808016640799,915.8,410.57142857142856,411.6808016640799,1017.1,727.0714285714286,152.18080166407992,1117.1,749.5714285714286,132.68080166407992,1219.8,749.5714285714286,128.18080166407992,1319.9,743.5714285714286,125.18080166407994,1420.1,737.5714285714286,113.18080166407994,1520.8,736.0714285714286,111.68080166407994,1637.6,736.0714285714286,111.68080166407994,1739.8,736.0714285714286,111.68080166407994,1851,736.0714285714286,111.68080166407994,1951.7,736.0714285714286,111.68080166407994,2055,736.0714285714286,111.68080166407994,2155.1,338.57142857142856,258.6808016640799,2268.6,322.07142857142856,269.1808016640799,2370.2,265.07142857142856,294.6808016640799,2470.7,263.57142857142856,296.1808016640799,2586.2,263.57142857142856,296.1808016640799,2690.3,263.57142857142856,296.1808016640799,2795.7,263.57142857142856,296.1808016640799,2897.5,263.57142857142856,296.1808016640799,3001.3,263.57142857142856,296.1808016640799,3105.5,263.57142857142856,296.1808016640799,3219.4,263.57142857142856,296.1808016640799,3320.1,263.57142857142856,296.1808016640799,3420.3,263.57142857142856,296.1808016640799,3535.6,263.57142857142856,296.1808016640799,3639.8,263.57142857142856,296.1808016640799,3750.7,263.57142857142856,296.1808016640799,3851.1,263.57142857142856,296.1808016640799,3952.2,263.57142857142856,296.1808016640799,4055.2,263.57142857142856,296.1808016640799,4162.7,263.57142857142856,296.1808016640799,4263.1,263.57142857142856,296.1808016640799,4368.8,263.57142857142856,296.1808016640799,4469.9,263.57142857142856,296.1808016640799,4575.4,263.57142857142856,296.1808016640799,4683,263.57142857142856,296.1808016640799,4785.2,263.57142857142856,296.1808016640799,4885.4,263.57142857142856,296.1808016640799,4991.5]","[5334.7,5334.7,2882.7,2003.8,448.2,""smooth"",""up"",""up"",""good_move"",9261.1,3926,3411.7,5335.1,514.3,""smooth"",""up"",""up"",""good_move"",12247.7,2985.9,2554.5,9261.8,431.4,""smooth"",""right"",""right"",""good_move"",15514.8,3266.9,2913.2,12247.9,353.7,""smooth"",""right"",""right"",""good_move""]","",""
"3488","","<div style=""width:500px;"">
  <p>What determined the result of this run?</p>
  </div>","80","html-slider-response","70","790695","0.0-5.0-1.12","105","1","2025-07-16 10:51:41","1f75c3e559b7213887762d5229550c2b","41.74.177.238","Mozilla/5.0 (Windows NT 10.0; Win64; x64) AppleWebKit/537.36 (KHTML, like Gecko) Chrome/138.0.0.0 Safari/537.36 Edg/138.0.0.0","WebKit","Edge","138.0.0.0","Windows","10.0","https://app.prolific.com/","en-US,en;q=0.9,en-ZA;q=0.8","6122f45e2e93a3ff9a7b7a5d","686e379bc37a29ffa5cdc956","68778418172690604098fc1d","1","1","6122f45e2e93a3ff9a7b7a5d","1","1","2025-07-16T11:04:54.744Z","","","","","","","","","","","AttribQ","","50","","","","","","","","","","","","","","","","","","","","","","","","","","","","",""
"5492","","<div style=""width:500px;"">
  <p>How much control did you have over the ball?</p>
  </div>","44","html-slider-response","71","796188","0.0-5.0-2.12","105","1","2025-07-16 10:51:41","1f75c3e559b7213887762d5229550c2b","41.74.177.238","Mozilla/5.0 (Windows NT 10.0; Win64; x64) AppleWebKit/537.36 (KHTML, like Gecko) Chrome/138.0.0.0 Safari/537.36 Edg/138.0.0.0","WebKit","Edge","138.0.0.0","Windows","10.0","https://app.prolific.com/","en-US,en;q=0.9,en-ZA;q=0.8","6122f45e2e93a3ff9a7b7a5d","686e379bc37a29ffa5cdc956","68778418172690604098fc1d","1","1","6122f45e2e93a3ff9a7b7a5d","1","1","2025-07-16T11:05:00.237Z","","","","","","","","","","","ControlQ","","50","","","","","","","","","","","","","","","","","","","","","","","","","","","","",""
"17871","","<div style=""width:500px;"">
  <p>How would you describe your current emotional state?</p>
  </div>","26","html-slider-response","72","814060","0.0-5.0-3.12","105","1","2025-07-16 10:51:41","1f75c3e559b7213887762d5229550c2b","41.74.177.238","Mozilla/5.0 (Windows NT 10.0; Win64; x64) AppleWebKit/537.36 (KHTML, like Gecko) Chrome/138.0.0.0 Safari/537.36 Edg/138.0.0.0","WebKit","Edge","138.0.0.0","Windows","10.0","https://app.prolific.com/","en-US,en;q=0.9,en-ZA;q=0.8","6122f45e2e93a3ff9a7b7a5d","686e379bc37a29ffa5cdc956","68778418172690604098fc1d","1","1","6122f45e2e93a3ff9a7b7a5d","1","1","2025-07-16T11:05:18.110Z","","","","","","","","","","","StressQ","","50","","","","","","","","","","","","","","","","","","","","","","","","","","","","",""
"5590","","<div style=""width:500px;"">
  <p>What best describes how you currently feel?</p>
  </div>","76","html-slider-response","73","819652","0.0-5.0-4.12","105","1","2025-07-16 10:51:41","1f75c3e559b7213887762d5229550c2b","41.74.177.238","Mozilla/5.0 (Windows NT 10.0; Win64; x64) AppleWebKit/537.36 (KHTML, like Gecko) Chrome/138.0.0.0 Safari/537.36 Edg/138.0.0.0","WebKit","Edge","138.0.0.0","Windows","10.0","https://app.prolific.com/","en-US,en;q=0.9,en-ZA;q=0.8","6122f45e2e93a3ff9a7b7a5d","686e379bc37a29ffa5cdc956","68778418172690604098fc1d","1","1","6122f45e2e93a3ff9a7b7a5d","1","1","2025-07-16T11:05:23.701Z","","","","","","","","","","","MotivationQ","","50","","","","","","","","","","","","","","","","","","","","","","","","","","","","",""
"","","","","ctl-task-cpt","74","839090","0.0-5.0-0.13","105","1","2025-07-16 10:51:41","1f75c3e559b7213887762d5229550c2b","41.74.177.238","Mozilla/5.0 (Windows NT 10.0; Win64; x64) AppleWebKit/537.36 (KHTML, like Gecko) Chrome/138.0.0.0 Safari/537.36 Edg/138.0.0.0","WebKit","Edge","138.0.0.0","Windows","10.0","https://app.prolific.com/","en-US,en;q=0.9,en-ZA;q=0.8","6122f45e2e93a3ff9a7b7a5d","686e379bc37a29ffa5cdc956","68778418172690604098fc1d","1","1","6122f45e2e93a3ff9a7b7a5d","1","1","2025-07-16T11:05:43.139Z","","","","","","","","","","","","","","win-only","2","g1:SE,g2:NW","0.8","14","0","824259.6","1835.4","6835.9","16419.8","1","4","4","6","1","1","1","2","1","0.015151515151515152","1459.7","3000","1615","[""down"",""right""]","{""num_key_presses"":4,""num_perfect"":3,""num_errors"":0,""num_randdir"":1,""num_randdir_good_moves"":1,""num_whilered"":0,""num_whileblue"":0,""num_blue"":0,""num_good_moves"":4}","[413.57142857142856,413.1808016640799,0.1,413.57142857142856,413.1808016640799,100.9,413.57142857142856,413.1808016640799,205.8,413.57142857142856,413.1808016640799,317.3,413.57142857142856,413.1808016640799,419.9,413.57142857142856,413.1808016640799,520.1,523.0714285714286,482.1808016640799,620.1,662.5714285714286,611.1808016640799,720.9,680.5714285714286,636.6808016640799,835.4,691.0714285714286,653.1808016640799,935.7,743.5714285714286,693.6808016640799,1035.8,761.5714285714286,719.1808016640799,1142,764.5714285714286,731.1808016640799,1247,764.5714285714286,731.1808016640799,1349.8,764.5714285714286,731.1808016640799,1458.1,764.5714285714286,731.1808016640799,1565.5,764.5714285714286,731.1808016640799,1667.8,764.5714285714286,731.1808016640799,1771.6,764.5714285714286,731.1808016640799,1873.1,764.5714285714286,731.1808016640799,1976,499.07142857142856,768.6808016640799,2081.5,350.57142857142856,797.1808016640799,2183.5,323.57142857142856,797.1808016640799,2286,319.07142857142856,795.6808016640799,2388.1,319.07142857142856,795.6808016640799,2494.5,319.07142857142856,795.6808016640799,2600.4,319.07142857142856,795.6808016640799,2703.3,319.07142857142856,795.6808016640799,2805.5,319.07142857142856,795.6808016640799,2915.6,319.07142857142856,795.6808016640799,3020.6,319.07142857142856,795.6808016640799,3121.3,319.07142857142856,795.6808016640799,3225,319.07142857142856,795.6808016640799,3328.8,319.07142857142856,795.6808016640799,3428.8,319.07142857142856,795.6808016640799,3536.2,319.07142857142856,795.6808016640799,3641.1,319.07142857142856,795.6808016640799,3754.8,319.07142857142856,795.6808016640799,3856.4,319.07142857142856,795.6808016640799,3956.6,319.07142857142856,795.6808016640799,4057.5,319.07142857142856,795.6808016640799,4159.9,319.07142857142856,795.6808016640799,4269.2,319.07142857142856,795.6808016640799,4370.9,319.07142857142856,795.6808016640799,4474.6,319.07142857142856,795.6808016640799,4586.8,319.07142857142856,795.6808016640799,4702.3,319.07142857142856,795.6808016640799,4805.6,319.07142857142856,795.6808016640799,4905.6]","[1481,1481,1000,0,481,""smooth"",""down"",""down"",""good_move"",4134.6,2653.3,2169.6,1481.3,483.7,""smooth"",""down"",""down"",""good_move"",6485.6,2350.8,1786.6,4134.8,564.2,""smooth"",""right"",""right"",""good_move"",9458.5,2972.6,2559.2,6485.9,413.4,""oops"",""right"",""right"",""good_move""]","",""
"10116","","<div style=""width:500px;"">
  <p>What determined the result of this run?</p>
  </div>","82","html-slider-response","75","849206","0.0-5.0-1.13","105","1","2025-07-16 10:51:41","1f75c3e559b7213887762d5229550c2b","41.74.177.238","Mozilla/5.0 (Windows NT 10.0; Win64; x64) AppleWebKit/537.36 (KHTML, like Gecko) Chrome/138.0.0.0 Safari/537.36 Edg/138.0.0.0","WebKit","Edge","138.0.0.0","Windows","10.0","https://app.prolific.com/","en-US,en;q=0.9,en-ZA;q=0.8","6122f45e2e93a3ff9a7b7a5d","686e379bc37a29ffa5cdc956","68778418172690604098fc1d","1","1","6122f45e2e93a3ff9a7b7a5d","1","1","2025-07-16T11:05:53.255Z","","","","","","","","","","","AttribQ","","50","","","","","","","","","","","","","","","","","","","","","","","","","","","","",""
"4938","","<div style=""width:500px;"">
  <p>How much control did you have over the ball?</p>
