"rt","response_timestamp","stimulus","response","trial_type","trial_index","time_elapsed","internal_node_id","run_id","condition","recorded_at","source_code_version","ip","user_agent","device","browser","browser_version","platform","platform_version","referer","accept_language","PROLIFIC_PID","STUDY_ID","SESSION_ID","WEEK","BATCH","prolific_id","week","batch","realtime","success","responses","item_order","radio_event_ids","radio_event_times","key_event_times","mouse_event_times","straightlining","zigzagging","honeypot","eventType","view_history","slider_start","which_type","canvas_config","goals_layout","control_level","trial_number","tutorial_trial_number","trial_start_time","phase1_start_time","phase2_start_time","phase3_start_time","goal_1_value","goal_1_distance","goal_2_value","goal_2_distance","goal_selected","outcome","outcome_total","participant_final_score","participant_initial_score","participant_final_score_prop","goal_choice_rt","allocated_time","allocated_time_remaining","goal_direction","counts","mouse_movements","key_presses","question_order","question_id"
"4597","1752654825575","<p style='font-size:40px;line-height:1.25'><strong>Welcome to the experiment!</strong></p><p style='font-size:1.1em;line-height:1.25'>Thank you for participanting in our experiment again! You will be asked to play the Dysfunctional Ball Game again. We will briefly recap the rules before we start.</p><p style='font-size:1.1em;line-height:1.25'>Press <strong>Next</strong> to continue.</p>","0","custom-html-button-response","0","4607","0.0-0.0","74","1","2025-07-16 08:33:37","1f75c3e559b7213887762d5229550c2b","105.216.70.10","Mozilla/5.0 (Windows NT 10.0; Win64; x64) AppleWebKit/537.36 (KHTML, like Gecko) Chrome/138.0.0.0 Safari/537.36","WebKit","Chrome","138.0.0.0","Windows","10.0","https://app.prolific.com/","en-ZA,en-GB;q=0.9,en-US;q=0.8,en;q=0.7","653a6a7224e6c0bfb644ff9b","68764874ac79eee8c1d4cb03","687763d3f875bc225c059e16","2","0","653a6a7224e6c0bfb644ff9b","2","0","2025-07-16T08:33:45.583Z","","","","","","","","","","","","","","","","","","","","","","","","","","","","","","","","","","","","","","","","","",""
"78952","","","","fullscreen","1","84591","0.0-1.0","74","1","2025-07-16 08:33:37","1f75c3e559b7213887762d5229550c2b","105.216.70.10","Mozilla/5.0 (Windows NT 10.0; Win64; x64) AppleWebKit/537.36 (KHTML, like Gecko) Chrome/138.0.0.0 Safari/537.36","WebKit","Chrome","138.0.0.0","Windows","10.0","https://app.prolific.com/","en-ZA,en-GB;q=0.9,en-US;q=0.8,en;q=0.7","653a6a7224e6c0bfb644ff9b","68764874ac79eee8c1d4cb03","687763d3f875bc225c059e16","2","0","653a6a7224e6c0bfb644ff9b","2","0","","true","","","","","","","","","","","","","","","","","","","","","","","","","","","","","","","","","","","","","","","","",""
"4217","1752654909786","<p style='font-size:1.1em;line-height:1.25'>In the following, we will ask you a few questions relating to your feelings in the last 24 hours.<br></p><p style='font-size:1.1em;line-height:1.25'>Press the <strong>Next</strong> button to continue.</p>","0","custom-html-button-response","2","88812","0.0-2.0-0.0","74","1","2025-07-16 08:33:37","1f75c3e559b7213887762d5229550c2b","105.216.70.10","Mozilla/5.0 (Windows NT 10.0; Win64; x64) AppleWebKit/537.36 (KHTML, like Gecko) Chrome/138.0.0.0 Safari/537.36","WebKit","Chrome","138.0.0.0","Windows","10.0","https://app.prolific.com/","en-ZA,en-GB;q=0.9,en-US;q=0.8,en;q=0.7","653a6a7224e6c0bfb644ff9b","68764874ac79eee8c1d4cb03","687763d3f875bc225c059e16","2","0","653a6a7224e6c0bfb644ff9b","2","0","2025-07-16T08:35:09.788Z","","","","","","","","","","","","","","","","","","","","","","","","","","","","","","","","","","","","","","","","","",""
"92031.29999998212","","","","survey-template","3","180864","0.0-2.0-1.0","74","1","2025-07-16 08:33:37","1f75c3e559b7213887762d5229550c2b","105.216.70.10","Mozilla/5.0 (Windows NT 10.0; Win64; x64) AppleWebKit/537.36 (KHTML, like Gecko) Chrome/138.0.0.0 Safari/537.36","WebKit","Chrome","138.0.0.0","Windows","10.0","https://app.prolific.com/","en-ZA,en-GB;q=0.9,en-US;q=0.8,en;q=0.7","653a6a7224e6c0bfb644ff9b","68764874ac79eee8c1d4cb03","687763d3f875bc225c059e16","2","0","653a6a7224e6c0bfb644ff9b","2","0","2025-07-16T08:36:41.839Z","","{""Q01"":""2"",""Q02"":""2"",""Q03"":""3"",""Q04"":""3"",""Q05"":""3"",""Q06"":""3"",""Q07"":""4"",""Q08"":""3"",""Q09"":""3"",""Q10"":""3"",""Q11"":""4"",""Q12"":""4"",""Q13"":""5"",""Q14"":""4"",""Q15"":""4"",""Q16"":""4"",""Q17"":""4"",""Q18"":""0"",""Q19"":""3"",""Q20"":""2"",""Q21"":""3"",""Q22"":""2""}","[0,1,2,3,4,5,6,7,8,9,10,11,12,13,14,15,16,17,18,19,20,21]","[""Q01"",""Q02"",""Q03"",""Q04"",""Q05"",""Q06"",""Q07"",""Q08"",""Q09"",""Q10"",""Q11"",""Q12"",""Q13"",""Q14"",""Q15"",""Q16"",""Q16"",""Q17"",""Q18"",""Q19"",""Q20"",""Q21"",""Q22""]","[6585.5,8746,12219,19375,20431.399999976158,25928.59999999404,28141.899999976158,32992.5,37321.79999998212,40118.5,42992.19999998808,45593.79999998212,49193.59999999404,52628.69999998808,59094.29999998212,65011,67276,69585.89999997616,73974.5,79890.79999998212,81939,85178.79999998212,88583.19999998808]","[]","[0.19999998807907104,6585.5,8746,12219,16846.29999998212,18903.09999999404,19375,20431.399999976158,25928.59999999404,28141.899999976158,32992.5,37321.79999998212,40118.5,42992.19999998808,45593.79999998212,49193.59999999404,51599.69999998808,52628.69999998808,55869.39999997616,58464.79999998212,59094.29999998212,65011,67276,69585.89999997616,73974.5,78714,79890.79999998212,81939,85178.79999998212,88583.19999998808,92005.09999999404]","0.4090909090909091","0.42857142857142855","0","drsp","","","","","","","","","","","","","","","","","","","","","","","","","","","","","","",""
"10334.700000017881","","","","survey-template","4","191205","0.0-2.0-2.0","74","1","2025-07-16 08:33:37","1f75c3e559b7213887762d5229550c2b","105.216.70.10","Mozilla/5.0 (Windows NT 10.0; Win64; x64) AppleWebKit/537.36 (KHTML, like Gecko) Chrome/138.0.0.0 Safari/537.36","WebKit","Chrome","138.0.0.0","Windows","10.0","https://app.prolific.com/","en-ZA,en-GB;q=0.9,en-US;q=0.8,en;q=0.7","653a6a7224e6c0bfb644ff9b","68764874ac79eee8c1d4cb03","687763d3f875bc225c059e16","2","0","653a6a7224e6c0bfb644ff9b","2","0","2025-07-16T08:36:52.180Z","","{""Q01"":""4"",""Q02"":""1"",""Q03"":""4""}","[0,1,2]","[""Q01"",""Q02"",""Q03""]","[3029.800000011921,8512.09999999404,9194]","[]","[3029.800000011921,4746.4000000059605,8512.09999999404,9194,10332.700000017881]","1","0","0","stress","","","","","","","","","","","","","","","","","","","","","","","","","","","","","","",""
"12106","","","","instructions","5","203314","0.0-3.0-0.0","74","1","2025-07-16 08:33:37","1f75c3e559b7213887762d5229550c2b","105.216.70.10","Mozilla/5.0 (Windows NT 10.0; Win64; x64) AppleWebKit/537.36 (KHTML, like Gecko) Chrome/138.0.0.0 Safari/537.36","WebKit","Chrome","138.0.0.0","Windows","10.0","https://app.prolific.com/","en-ZA,en-GB;q=0.9,en-US;q=0.8,en;q=0.7","653a6a7224e6c0bfb644ff9b","68764874ac79eee8c1d4cb03","687763d3f875bc225c059e16","2","0","653a6a7224e6c0bfb644ff9b","2","0","","","","","","","","","","","","","[{""page_index"":0,""viewing_time"":12106}]","","","","","","","","","","","","","","","","","","","","","","","","","","","","","",""
"3096","","<p>Before you start with this game please answer the following three questions yourself. </p>
  <p>Through this game, we measure several aspects of your cognitive performance, such as reaction times, multi-tasking capabilities </p>
  <p>and the ability to assess the situation you are in.</p>
  <p></p>
  <p><b>How good do you usually are in such tasks?</b></p>","56","html-slider-response","6","206415","0.0-4.0-0.0","74","1","2025-07-16 08:33:37","1f75c3e559b7213887762d5229550c2b","105.216.70.10","Mozilla/5.0 (Windows NT 10.0; Win64; x64) AppleWebKit/537.36 (KHTML, like Gecko) Chrome/138.0.0.0 Safari/537.36","WebKit","Chrome","138.0.0.0","Windows","10.0","https://app.prolific.com/","en-ZA,en-GB;q=0.9,en-US;q=0.8,en;q=0.7","653a6a7224e6c0bfb644ff9b","68764874ac79eee8c1d4cb03","687763d3f875bc225c059e16","2","0","653a6a7224e6c0bfb644ff9b","2","0","2025-07-16T08:37:07.390Z","","","","","","","","","","","PreSkillQ","","50","","","","","","","","","","","","","","","","","","","","","","","","","","","","",""
"3611","","<div style=""width:500px;"">
  <p>How well do you think you will perform in this task compared to other participants?</p>
  </div>","61","html-slider-response","7","210029","0.0-4.0-1.0","74","1","2025-07-16 08:33:37","1f75c3e559b7213887762d5229550c2b","105.216.70.10","Mozilla/5.0 (Windows NT 10.0; Win64; x64) AppleWebKit/537.36 (KHTML, like Gecko) Chrome/138.0.0.0 Safari/537.36","WebKit","Chrome","138.0.0.0","Windows","10.0","https://app.prolific.com/","en-ZA,en-GB;q=0.9,en-US;q=0.8,en;q=0.7","653a6a7224e6c0bfb644ff9b","68764874ac79eee8c1d4cb03","687763d3f875bc225c059e16","2","0","653a6a7224e6c0bfb644ff9b","2","0","2025-07-16T08:37:11.004Z","","","","","","","","","","","PrePerfQ","","50","","","","","","","","","","","","","","","","","","","","","","","","","","","","",""
"3858","","<div style=""width:500px;"">
  <p>What best describes how you currently feel?</p>
  </div>","83","html-slider-response","8","213890","0.0-4.0-2.0","74","1","2025-07-16 08:33:37","1f75c3e559b7213887762d5229550c2b","105.216.70.10","Mozilla/5.0 (Windows NT 10.0; Win64; x64) AppleWebKit/537.36 (KHTML, like Gecko) Chrome/138.0.0.0 Safari/537.36","WebKit","Chrome","138.0.0.0","Windows","10.0","https://app.prolific.com/","en-ZA,en-GB;q=0.9,en-US;q=0.8,en;q=0.7","653a6a7224e6c0bfb644ff9b","68764874ac79eee8c1d4cb03","687763d3f875bc225c059e16","2","0","653a6a7224e6c0bfb644ff9b","2","0","2025-07-16T08:37:14.865Z","","","","","","","","","","","PreMotivationQ","","50","","","","","","","","","","","","","","","","","","","","","","","","","","","","",""
"","","","","ctl-task-cpt","9","236381","0.0-5.0-0.0","74","1","2025-07-16 08:33:37","1f75c3e559b7213887762d5229550c2b","105.216.70.10","Mozilla/5.0 (Windows NT 10.0; Win64; x64) AppleWebKit/537.36 (KHTML, like Gecko) Chrome/138.0.0.0 Safari/537.36","WebKit","Chrome","138.0.0.0","Windows","10.0","https://app.prolific.com/","en-ZA,en-GB;q=0.9,en-US;q=0.8,en;q=0.7","653a6a7224e6c0bfb644ff9b","68764874ac79eee8c1d4cb03","687763d3f875bc225c059e16","2","0","653a6a7224e6c0bfb644ff9b","2","0","2025-07-16T08:37:37.357Z","","","","","","","","","","","","","","win-only","2","g1:SE,g2:NW","1","1","0","217281.8","3358.9","8363.2","19450.1","1","4","4","6","1","1","1","1","0","0.007575757575757576","5004.1","3000","1470","[""down"",""right""]","{""num_key_presses"":4,""num_perfect"":4,""num_errors"":0,""num_randdir"":0,""num_randdir_good_moves"":0,""num_whilered"":0,""num_whileblue"":0,""num_blue"":0,""num_good_moves"":4}","[300.22232142857143,291.12857142857143,14.5,300.22232142857143,291.12857142857143,104.4,300.22232142857143,291.12857142857143,204.4,300.22232142857143,291.12857142857143,305,300.22232142857143,291.12857142857143,417.1,300.22232142857143,291.12857142857143,517.4,300.22232142857143,291.12857142857143,618.3,300.22232142857143,291.12857142857143,725.2,300.22232142857143,291.12857142857143,830.8,300.22232142857143,291.12857142857143,930.9,300.22232142857143,291.12857142857143,1035,300.22232142857143,291.12857142857143,1135.2,300.22232142857143,291.12857142857143,1238.5,300.22232142857143,291.12857142857143,1338.7,300.22232142857143,291.12857142857143,1440.1,300.22232142857143,291.12857142857143,1540.1,300.22232142857143,291.12857142857143,1640.4,300.22232142857143,291.12857142857143,1746.3,300.22232142857143,291.12857142857143,1846.9,300.22232142857143,291.12857142857143,1946.9,300.22232142857143,291.12857142857143,2049.8,300.22232142857143,291.12857142857143,2156.4,300.22232142857143,291.12857142857143,2257.4,300.22232142857143,291.12857142857143,2366.9,300.22232142857143,291.12857142857143,2473.2,300.22232142857143,291.12857142857143,2579.2,300.22232142857143,291.12857142857143,2687,300.22232142857143,291.12857142857143,2788.4,300.22232142857143,291.12857142857143,2889,300.22232142857143,291.12857142857143,2996.4,300.22232142857143,291.12857142857143,3103.8,300.22232142857143,291.12857142857143,3206.3,300.22232142857143,291.12857142857143,3312.7,300.22232142857143,291.12857142857143,3416.9,300.22232142857143,291.12857142857143,3517.3,300.22232142857143,291.12857142857143,3628.3,300.22232142857143,291.12857142857143,3728.8,300.22232142857143,291.12857142857143,3829.3,300.22232142857143,291.12857142857143,3936.5,300.22232142857143,291.12857142857143,4046.9,300.22232142857143,291.12857142857143,4147.1,300.22232142857143,291.12857142857143,4250.4,300.22232142857143,291.12857142857143,4359.9,300.22232142857143,291.12857142857143,4465.2,300.22232142857143,291.12857142857143,4567.3,300.22232142857143,291.12857142857143,4667.4,300.22232142857143,291.12857142857143,4768.5,300.22232142857143,291.12857142857143,4875.4,300.22232142857143,291.12857142857143,4980.4]","[1803.3,1803.3,1000,0,803.3,""smooth"",""down"",""down"",""good_move"",4637.8,2833.3,2396.6,1804.6,436.6,""smooth"",""right"",""right"",""good_move"",7699.5,3061,2582.9,4638.5,478.1,""smooth"",""down"",""down"",""good_move"",10960.3,3259.9,2681.5,7700.5,578.4,""smooth"",""right"",""right"",""good_move""]","",""
"3034","","<div style=""width:500px;"">
  <p>What determined the result of this run?</p>
  </div>","79","html-slider-response","10","239419","0.0-5.0-1.0","74","1","2025-07-16 08:33:37","1f75c3e559b7213887762d5229550c2b","105.216.70.10","Mozilla/5.0 (Windows NT 10.0; Win64; x64) AppleWebKit/537.36 (KHTML, like Gecko) Chrome/138.0.0.0 Safari/537.36","WebKit","Chrome","138.0.0.0","Windows","10.0","https://app.prolific.com/","en-ZA,en-GB;q=0.9,en-US;q=0.8,en;q=0.7","653a6a7224e6c0bfb644ff9b","68764874ac79eee8c1d4cb03","687763d3f875bc225c059e16","2","0","653a6a7224e6c0bfb644ff9b","2","0","2025-07-16T08:37:40.395Z","","","","","","","","","","","AttribQ","","50","","","","","","","","","","","","","","","","","","","","","","","","","","","","",""
"3065","","<div style=""width:500px;"">
  <p>How much control did you have over the ball?</p>
  </div>","78","html-slider-response","11","242487","0.0-5.0-2.0","74","1","2025-07-16 08:33:37","1f75c3e559b7213887762d5229550c2b","105.216.70.10","Mozilla/5.0 (Windows NT 10.0; Win64; x64) AppleWebKit/537.36 (KHTML, like Gecko) Chrome/138.0.0.0 Safari/537.36","WebKit","Chrome","138.0.0.0","Windows","10.0","https://app.prolific.com/","en-ZA,en-GB;q=0.9,en-US;q=0.8,en;q=0.7","653a6a7224e6c0bfb644ff9b","68764874ac79eee8c1d4cb03","687763d3f875bc225c059e16","2","0","653a6a7224e6c0bfb644ff9b","2","0","2025-07-16T08:37:43.463Z","","","","","","","","","","","ControlQ","","50","","","","","","","","","","","","","","","","","","","","","","","","","","","","",""
"5877","","<div style=""width:500px;"">
  <p>How would you describe your current emotional state?</p>
  </div>","42","html-slider-response","12","248368","0.0-5.0-3.0","74","1","2025-07-16 08:33:37","1f75c3e559b7213887762d5229550c2b","105.216.70.10","Mozilla/5.0 (Windows NT 10.0; Win64; x64) AppleWebKit/537.36 (KHTML, like Gecko) Chrome/138.0.0.0 Safari/537.36","WebKit","Chrome","138.0.0.0","Windows","10.0","https://app.prolific.com/","en-ZA,en-GB;q=0.9,en-US;q=0.8,en;q=0.7","653a6a7224e6c0bfb644ff9b","68764874ac79eee8c1d4cb03","687763d3f875bc225c059e16","2","0","653a6a7224e6c0bfb644ff9b","2","0","2025-07-16T08:37:49.343Z","","","","","","","","","","","StressQ","","50","","","","","","","","","","","","","","","","","","","","","","","","","","","","",""
"6208","","<div style=""width:500px;"">
  <p>What best describes how you currently feel?</p>
  </div>","89","html-slider-response","13","254579","0.0-5.0-4.0","74","1","2025-07-16 08:33:37","1f75c3e559b7213887762d5229550c2b","105.216.70.10","Mozilla/5.0 (Windows NT 10.0; Win64; x64) AppleWebKit/537.36 (KHTML, like Gecko) Chrome/138.0.0.0 Safari/537.36","WebKit","Chrome","138.0.0.0","Windows","10.0","https://app.prolific.com/","en-ZA,en-GB;q=0.9,en-US;q=0.8,en;q=0.7","653a6a7224e6c0bfb644ff9b","68764874ac79eee8c1d4cb03","687763d3f875bc225c059e16","2","0","653a6a7224e6c0bfb644ff9b","2","0","2025-07-16T08:37:55.554Z","","","","","","","","","","","MotivationQ","","50","","","","","","","","","","","","","","","","","","","","","","","","","","","","",""
"","","","","ctl-task-cpt","14","288309","0.0-5.0-0.1","74","1","2025-07-16 08:33:37","1f75c3e559b7213887762d5229550c2b","105.216.70.10","Mozilla/5.0 (Windows NT 10.0; Win64; x64) AppleWebKit/537.36 (KHTML, like Gecko) Chrome/138.0.0.0 Safari/537.36","WebKit","Chrome","138.0.0.0","Windows","10.0","https://app.prolific.com/","en-ZA,en-GB;q=0.9,en-US;q=0.8,en;q=0.7","653a6a7224e6c0bfb644ff9b","68764874ac79eee8c1d4cb03","687763d3f875bc225c059e16","2","0","653a6a7224e6c0bfb644ff9b","2","0","2025-07-16T08:38:29.284Z","","","","","","","","","","","","","","win-only","1","g1:NE,g2:SW","0.9","2","0","257940.2","1449.8","6455.9","30717.9","1","4","8","6","2","8","8","9","1","0.06818181818181818","5006.1","3000","265","[""down"",""left""]","{""num_key_presses"":8,""num_perfect"":7,""num_errors"":0,""num_randdir"":1,""num_randdir_good_moves"":0,""num_whilered"":0,""num_whileblue"":0,""num_blue"":0,""num_good_moves"":7}","[298.22232142857143,295.12857142857143,0.5,298.22232142857143,295.12857142857143,101.1,298.22232142857143,295.12857142857143,208.4,298.22232142857143,295.12857142857143,308.8,298.22232142857143,295.12857142857143,417.6,298.22232142857143,295.12857142857143,525.2,298.22232142857143,297.12857142857143,625.3,298.22232142857143,297.12857142857143,725.4,298.22232142857143,297.12857142857143,825.4,298.22232142857143,297.12857142857143,925.9,298.22232142857143,297.12857142857143,1026.2,298.22232142857143,297.12857142857143,1132.7,298.22232142857143,297.12857142857143,1234.3,298.22232142857143,297.12857142857143,1344.1,298.22232142857143,297.12857142857143,1444.8,298.22232142857143,297.12857142857143,1545,298.22232142857143,297.12857142857143,1645.3,298.22232142857143,297.12857142857143,1749.8,298.22232142857143,297.12857142857143,1858.5,298.22232142857143,297.12857142857143,1961.5,298.22232142857143,297.12857142857143,2067.9,298.22232142857143,297.12857142857143,2178.3,298.22232142857143,297.12857142857143,2282.9,298.22232142857143,297.12857142857143,2391,298.22232142857143,297.12857142857143,2491.2,298.22232142857143,297.12857142857143,2591.5,298.22232142857143,297.12857142857143,2691.5,298.22232142857143,297.12857142857143,2798.3,298.22232142857143,297.12857142857143,2900.5,298.22232142857143,297.12857142857143,3007.6,298.22232142857143,297.12857142857143,3116.2,298.22232142857143,297.12857142857143,3217.2,298.22232142857143,297.12857142857143,3328.1,298.22232142857143,298.12857142857143,3428.3,298.22232142857143,298.12857142857143,3534.4,298.22232142857143,298.12857142857143,3637.7,298.22232142857143,298.12857142857143,3738.5,298.22232142857143,298.12857142857143,3838.5,298.22232142857143,298.12857142857143,3938.7,298.22232142857143,298.12857142857143,4039.2,298.22232142857143,298.12857142857143,4149.9,298.22232142857143,298.12857142857143,4250,298.22232142857143,298.12857142857143,4355.8,298.22232142857143,298.12857142857143,4456.6,298.22232142857143,298.12857142857143,4561.9,298.22232142857143,298.12857142857143,4666.9,298.22232142857143,298.12857142857143,4771.5,298.22232142857143,298.12857142857143,4877.9,298.22232142857143,298.12857142857143,4978.1]","[1576.6,1576.6,1000,0,576.6,""smooth"",""down"",""down"",""good_move"",5448.7,3871.4,3330.9,1577.3,540.5,""smooth"",""down"",""down"",""good_move"",9000.1,3550.5,3061.7,5449.7,488.7,""smooth"",""left"",""left"",""good_move"",13065.9,4065.2,3525.8,9000.7,539.4,""oops"",""left"",""right"",""bad_move"",15966.2,2899.8,2368.3,13066.4,531.5,""smooth"",""left"",""left"",""good_move"",18388.1,2421.2,1984.8,15967,436.4,""smooth"",""left"",""left"",""good_move"",21491.4,3101.9,2724.9,18389.5,377,""smooth"",""down"",""down"",""good_move"",24130.1,2637.6,2202.9,21492.5,434.7,""smooth"",""left"",""left"",""good_move""]","",""
"2673","","<div style=""width:500px;"">
  <p>What determined the result of this run?</p>
  </div>","85","html-slider-response","15","290984","0.0-5.0-1.1","74","1","2025-07-16 08:33:37","1f75c3e559b7213887762d5229550c2b","105.216.70.10","Mozilla/5.0 (Windows NT 10.0; Win64; x64) AppleWebKit/537.36 (KHTML, like Gecko) Chrome/138.0.0.0 Safari/537.36","WebKit","Chrome","138.0.0.0","Windows","10.0","https://app.prolific.com/","en-ZA,en-GB;q=0.9,en-US;q=0.8,en;q=0.7","653a6a7224e6c0bfb644ff9b","68764874ac79eee8c1d4cb03","687763d3f875bc225c059e16","2","0","653a6a7224e6c0bfb644ff9b","2","0","2025-07-16T08:38:31.959Z","","","","","","","","","","","AttribQ","","50","","","","","","","","","","","","","","","","","","","","","","","","","","","","",""
"2247","","<div style=""width:500px;"">
  <p>How much control did you have over the ball?</p>
  </div>","76","html-slider-response","16","293234","0.0-5.0-2.1","74","1","2025-07-16 08:33:37","1f75c3e559b7213887762d5229550c2b","105.216.70.10","Mozilla/5.0 (Windows NT 10.0; Win64; x64) AppleWebKit/537.36 (KHTML, like Gecko) Chrome/138.0.0.0 Safari/537.36","WebKit","Chrome","138.0.0.0","Windows","10.0","https://app.prolific.com/","en-ZA,en-GB;q=0.9,en-US;q=0.8,en;q=0.7","653a6a7224e6c0bfb644ff9b","68764874ac79eee8c1d4cb03","687763d3f875bc225c059e16","2","0","653a6a7224e6c0bfb644ff9b","2","0","2025-07-16T08:38:34.209Z","","","","","","","","","","","ControlQ","","50","","","","","","","","","","","","","","","","","","","","","","","","","","","","",""
"2576","","<div style=""width:500px;"">
  <p>How would you describe your current emotional state?</p>
  </div>","38","html-slider-response","17","295813","0.0-5.0-3.1","74","1","2025-07-16 08:33:37","1f75c3e559b7213887762d5229550c2b","105.216.70.10","Mozilla/5.0 (Windows NT 10.0; Win64; x64) AppleWebKit/537.36 (KHTML, like Gecko) Chrome/138.0.0.0 Safari/537.36","WebKit","Chrome","138.0.0.0","Windows","10.0","https://app.prolific.com/","en-ZA,en-GB;q=0.9,en-US;q=0.8,en;q=0.7","653a6a7224e6c0bfb644ff9b","68764874ac79eee8c1d4cb03","687763d3f875bc225c059e16","2","0","653a6a7224e6c0bfb644ff9b","2","0","2025-07-16T08:38:36.788Z","","","","","","","","","","","StressQ","","50","","","","","","","","","","","","","","","","","","","","","","","","","","","","",""
"2680","","<div style=""width:500px;"">
  <p>What best describes how you currently feel?</p>
  </div>","80","html-slider-response","18","298496","0.0-5.0-4.1","74","1","2025-07-16 08:33:37","1f75c3e559b7213887762d5229550c2b","105.216.70.10","Mozilla/5.0 (Windows NT 10.0; Win64; x64) AppleWebKit/537.36 (KHTML, like Gecko) Chrome/138.0.0.0 Safari/537.36","WebKit","Chrome","138.0.0.0","Windows","10.0","https://app.prolific.com/","en-ZA,en-GB;q=0.9,en-US;q=0.8,en;q=0.7","653a6a7224e6c0bfb644ff9b","68764874ac79eee8c1d4cb03","687763d3f875bc225c059e16","2","0","653a6a7224e6c0bfb644ff9b","2","0","2025-07-16T08:38:39.471Z","","","","","","","","","","","MotivationQ","","50","","","","","","","","","","","","","","","","","","","","","","","","","","","","",""
"","","","","ctl-task-cpt","19","324325","0.0-5.0-0.2","74","1","2025-07-16 08:33:37","1f75c3e559b7213887762d5229550c2b","105.216.70.10","Mozilla/5.0 (Windows NT 10.0; Win64; x64) AppleWebKit/537.36 (KHTML, like Gecko) Chrome/138.0.0.0 Safari/537.36","WebKit","Chrome","138.0.0.0","Windows","10.0","https://app.prolific.com/","en-ZA,en-GB;q=0.9,en-US;q=0.8,en;q=0.7","653a6a7224e6c0bfb644ff9b","68764874ac79eee8c1d4cb03","687763d3f875bc225c059e16","2","0","653a6a7224e6c0bfb644ff9b","2","0","2025-07-16T08:39:05.301Z","","","","","","","","","","","","","","win-only","1","g1:NE,g2:SW","0.8","3","0","301857.9","1662.6","6671","22808.7","1","4","4","6","2","4","4","13","9","0.09848484848484848","5008.4","3000","1065","[""down"",""left""]","{""num_key_presses"":6,""num_perfect"":5,""num_errors"":0,""num_randdir"":1,""num_randdir_good_moves"":1,""num_whilered"":0,""num_whileblue"":0,""num_blue"":0,""num_good_moves"":6}","[294.22232142857143,291.12857142857143,0.4,294.22232142857143,291.12857142857143,102.2,294.22232142857143,291.12857142857143,204.9,294.22232142857143,291.12857142857143,307.1,294.22232142857143,297.12857142857143,420.1,294.22232142857143,306.12857142857143,523.1,294.22232142857143,307.12857142857143,629.3,294.22232142857143,308.12857142857143,735.7,294.22232142857143,308.12857142857143,838,294.22232142857143,308.12857142857143,945.4,294.22232142857143,308.12857142857143,1052.6,294.22232142857143,308.12857142857143,1153.5,294.22232142857143,308.12857142857143,1254.6,294.22232142857143,308.12857142857143,1362.6,294.22232142857143,308.12857142857143,1463.1,294.22232142857143,308.12857142857143,1570,294.22232142857143,308.12857142857143,1670.2,294.22232142857143,308.12857142857143,1776.6,294.22232142857143,308.12857142857143,1876.6,294.22232142857143,308.12857142857143,1976.6,294.22232142857143,308.12857142857143,2084.4,294.22232142857143,308.12857142857143,2190.5,294.22232142857143,308.12857142857143,2298.6,294.22232142857143,308.12857142857143,2403.9,294.22232142857143,308.12857142857143,2504.7,294.22232142857143,308.12857142857143,2604.8,294.22232142857143,308.12857142857143,2706.1,294.22232142857143,308.12857142857143,2812.1,294.22232142857143,308.12857142857143,2913.6,294.22232142857143,308.12857142857143,3019.6,294.22232142857143,308.12857142857143,3127.4,294.22232142857143,308.12857142857143,3234.9,294.22232142857143,308.12857142857143,3337.9,294.22232142857143,308.12857142857143,3443.2,294.22232142857143,308.12857142857143,3548.5,294.22232142857143,308.12857142857143,3651.7,294.22232142857143,308.12857142857143,3753,294.22232142857143,308.12857142857143,3853.8,294.22232142857143,308.12857142857143,3954,294.22232142857143,308.12857142857143,4056.7,294.22232142857143,308.12857142857143,4170.2,294.22232142857143,308.12857142857143,4281.5,294.22232142857143,308.12857142857143,4386.5,294.22232142857143,308.12857142857143,4487.9,294.22232142857143,308.12857142857143,4594.7,294.22232142857143,308.12857142857143,4695.2,294.22232142857143,308.12857142857143,4799.1,294.22232142857143,308.12857142857143,4903.1]","[1507.4,1507.4,1000,0.1,507.3,""smooth"",""down"",""down"",""good_move"",4445,2936.6,2466,1508.4,470.6,""smooth"",""down"",""down"",""good_move"",7793.9,3348.6,2680.2,4445.3,668.4,""smooth"",""down"",""down"",""good_move"",10686.5,2892.3,2474.3,7794.3,417.9,""oops"",""left"",""left"",""good_move"",13477.1,2789.4,2425.6,10687.7,363.8,""smooth"",""left"",""left"",""good_move"",16009.9,2532.5,2124.4,13477.4,408.1,""smooth"",""left"",""left"",""good_move""]","",""
"2790","","<div style=""width:500px;"">
  <p>What determined the result of this run?</p>
  </div>","81","html-slider-response","20","327118","0.0-5.0-1.2","74","1","2025-07-16 08:33:37","1f75c3e559b7213887762d5229550c2b","105.216.70.10","Mozilla/5.0 (Windows NT 10.0; Win64; x64) AppleWebKit/537.36 (KHTML, like Gecko) Chrome/138.0.0.0 Safari/537.36","WebKit","Chrome","138.0.0.0","Windows","10.0","https://app.prolific.com/","en-ZA,en-GB;q=0.9,en-US;q=0.8,en;q=0.7","653a6a7224e6c0bfb644ff9b","68764874ac79eee8c1d4cb03","687763d3f875bc225c059e16","2","0","653a6a7224e6c0bfb644ff9b","2","0","2025-07-16T08:39:08.093Z","","","","","","","","","","","AttribQ","","50","","","","","","","","","","","","","","","","","","","","","","","","","","","","",""
"3184","","<div style=""width:500px;"">
  <p>How much control did you have over the ball?</p>
  </div>","79","html-slider-response","21","330306","0.0-5.0-2.2","74","1","2025-07-16 08:33:37","1f75c3e559b7213887762d5229550c2b","105.216.70.10","Mozilla/5.0 (Windows NT 10.0; Win64; x64) AppleWebKit/537.36 (KHTML, like Gecko) Chrome/138.0.0.0 Safari/537.36","WebKit","Chrome","138.0.0.0","Windows","10.0","https://app.prolific.com/","en-ZA,en-GB;q=0.9,en-US;q=0.8,en;q=0.7","653a6a7224e6c0bfb644ff9b","68764874ac79eee8c1d4cb03","687763d3f875bc225c059e16","2","0","653a6a7224e6c0bfb644ff9b","2","0","2025-07-16T08:39:11.282Z","","","","","","","","","","","ControlQ","","50","","","","","","","","","","","","","","","","","","","","","","","","","","","","",""
"2465","","<div style=""width:500px;"">
  <p>How would you describe your current emotional state?</p>
  </div>","43","html-slider-response","22","332775","0.0-5.0-3.2","74","1","2025-07-16 08:33:37","1f75c3e559b7213887762d5229550c2b","105.216.70.10","Mozilla/5.0 (Windows NT 10.0; Win64; x64) AppleWebKit/537.36 (KHTML, like Gecko) Chrome/138.0.0.0 Safari/537.36","WebKit","Chrome","138.0.0.0","Windows","10.0","https://app.prolific.com/","en-ZA,en-GB;q=0.9,en-US;q=0.8,en;q=0.7","653a6a7224e6c0bfb644ff9b","68764874ac79eee8c1d4cb03","687763d3f875bc225c059e16","2","0","653a6a7224e6c0bfb644ff9b","2","0","2025-07-16T08:39:13.751Z","","","","","","","","","","","StressQ","","50","","","","","","","","","","","","","","","","","","","","","","","","","","","","",""
"1916","","<div style=""width:500px;"">
  <p>What best describes how you currently feel?</p>
  </div>","77","html-slider-response","23","334694","0.0-5.0-4.2","74","1","2025-07-16 08:33:37","1f75c3e559b7213887762d5229550c2b","105.216.70.10","Mozilla/5.0 (Windows NT 10.0; Win64; x64) AppleWebKit/537.36 (KHTML, like Gecko) Chrome/138.0.0.0 Safari/537.36","WebKit","Chrome","138.0.0.0","Windows","10.0","https://app.prolific.com/","en-ZA,en-GB;q=0.9,en-US;q=0.8,en;q=0.7","653a6a7224e6c0bfb644ff9b","68764874ac79eee8c1d4cb03","687763d3f875bc225c059e16","2","0","653a6a7224e6c0bfb644ff9b","2","0","2025-07-16T08:39:15.670Z","","","","","","","","","","","MotivationQ","","50","","","","","","","","","","","","","","","","","","","","","","","","","","","","",""
"","","","","ctl-task-cpt","24","364577","0.0-5.0-0.3","74","1","2025-07-16 08:33:37","1f75c3e559b7213887762d5229550c2b","105.216.70.10","Mozilla/5.0 (Windows NT 10.0; Win64; x64) AppleWebKit/537.36 (KHTML, like Gecko) Chrome/138.0.0.0 Safari/537.36","WebKit","Chrome","138.0.0.0","Windows","10.0","https://app.prolific.com/","en-ZA,en-GB;q=0.9,en-US;q=0.8,en;q=0.7","653a6a7224e6c0bfb644ff9b","68764874ac79eee8c1d4cb03","687763d3f875bc225c059e16","2","0","653a6a7224e6c0bfb644ff9b","2","0","2025-07-16T08:39:45.552Z","","","","","","","","","","","","","","win-only","0","g1:NW,g2:SE","0.7","4","0","338060.3","1529.4","6533.1","26861.5","1","4","8","6","1","1","1","14","13","0.10606060606060606","5003.7","3000","1705","[""left"",""up""]","{""num_key_presses"":4,""num_perfect"":2,""num_errors"":0,""num_randdir"":2,""num_randdir_good_moves"":2,""num_whilered"":0,""num_whileblue"":0,""num_blue"":3,""num_good_moves"":4}","[300.22232142857143,301.12857142857143,0.7,300.22232142857143,301.12857142857143,101.5,300.22232142857143,300.12857142857143,203.8,304.22232142857143,297.12857142857143,317.7,304.22232142857143,297.12857142857143,426.4,304.22232142857143,297.12857142857143,527.2,304.22232142857143,297.12857142857143,627.4,304.22232142857143,297.12857142857143,730.7,304.22232142857143,297.12857142857143,834.5,304.22232142857143,297.12857142857143,937.3,304.22232142857143,297.12857142857143,1041,304.22232142857143,297.12857142857143,1142.7,304.22232142857143,297.12857142857143,1248,304.22232142857143,297.12857142857143,1348.5,304.22232142857143,297.12857142857143,1457.2,304.22232142857143,297.12857142857143,1567.6,304.22232142857143,297.12857142857143,1671.6,304.22232142857143,297.12857142857143,1776.3,304.22232142857143,297.12857142857143,1877.9,304.22232142857143,297.12857142857143,1978.5,304.22232142857143,297.12857142857143,2088.4,304.22232142857143,297.12857142857143,2195.1,304.22232142857143,297.12857142857143,2296.7,304.22232142857143,297.12857142857143,2402.1,304.22232142857143,297.12857142857143,2504.8,304.22232142857143,297.12857142857143,2618.9,304.22232142857143,297.12857142857143,2737.8,304.22232142857143,297.12857142857143,2843.4,304.22232142857143,297.12857142857143,2943.7,304.22232142857143,297.12857142857143,3048.4,304.22232142857143,297.12857142857143,3148.4,304.22232142857143,297.12857142857143,3263.1,304.22232142857143,297.12857142857143,3369.8,304.22232142857143,297.12857142857143,3475.4,304.22232142857143,297.12857142857143,3577.2,304.22232142857143,297.12857142857143,3684.6,304.22232142857143,297.12857142857143,3791.8,304.22232142857143,297.12857142857143,3896.3,304.22232142857143,297.12857142857143,4000.7,304.22232142857143,297.12857142857143,4105.9,304.22232142857143,297.12857142857143,4207.7,304.22232142857143,297.12857142857143,4317.6,304.22232142857143,297.12857142857143,4423.3,304.22232142857143,297.12857142857143,4526.3,304.22232142857143,297.12857142857143,4627.6,304.22232142857143,297.12857142857143,4727.7,304.22232142857143,297.12857142857143,4832.6,304.22232142857143,297.12857142857143,4940.8]","[1699.2,1699.2,1000,0,699.2,""smooth"",""up"",""up"",""good_move"",8664.9,6965.1,2828.8,5428.5,407.6,""smooth"",""left"",""left"",""good_move"",11712.6,3047.1,2586.8,8665.5,460.3,""oops"",""up"",""left"",""good_move"",20204.5,8491.5,1682.8,18082.5,439.2,""oops"",""up"",""up"",""good_move""]","",""
"2287","","<div style=""width:500px;"">
  <p>What determined the result of this run?</p>
  </div>","74","html-slider-response","25","366866","0.0-5.0-1.3","74","1","2025-07-16 08:33:37","1f75c3e559b7213887762d5229550c2b","105.216.70.10","Mozilla/5.0 (Windows NT 10.0; Win64; x64) AppleWebKit/537.36 (KHTML, like Gecko) Chrome/138.0.0.0 Safari/537.36","WebKit","Chrome","138.0.0.0","Windows","10.0","https://app.prolific.com/","en-ZA,en-GB;q=0.9,en-US;q=0.8,en;q=0.7","653a6a7224e6c0bfb644ff9b","68764874ac79eee8c1d4cb03","687763d3f875bc225c059e16","2","0","653a6a7224e6c0bfb644ff9b","2","0","2025-07-16T08:39:47.841Z","","","","","","","","","","","AttribQ","","50","","","","","","","","","","","","","","","","","","","","","","","","","","","","",""
"3021","","<div style=""width:500px;"">
  <p>How much control did you have over the ball?</p>
  </div>","72","html-slider-response","26","369889","0.0-5.0-2.3","74","1","2025-07-16 08:33:37","1f75c3e559b7213887762d5229550c2b","105.216.70.10","Mozilla/5.0 (Windows NT 10.0; Win64; x64) AppleWebKit/537.36 (KHTML, like Gecko) Chrome/138.0.0.0 Safari/537.36","WebKit","Chrome","138.0.0.0","Windows","10.0","https://app.prolific.com/","en-ZA,en-GB;q=0.9,en-US;q=0.8,en;q=0.7","653a6a7224e6c0bfb644ff9b","68764874ac79eee8c1d4cb03","687763d3f875bc225c059e16","2","0","653a6a7224e6c0bfb644ff9b","2","0","2025-07-16T08:39:50.864Z","","","","","","","","","","","ControlQ","","50","","","","","","","","","","","","","","","","","","","","","","","","","","","","",""
"1964","","<div style=""width:500px;"">
  <p>How would you describe your current emotional state?</p>
  </div>","37","html-slider-response","27","371854","0.0-5.0-3.3","74","1","2025-07-16 08:33:37","1f75c3e559b7213887762d5229550c2b","105.216.70.10","Mozilla/5.0 (Windows NT 10.0; Win64; x64) AppleWebKit/537.36 (KHTML, like Gecko) Chrome/138.0.0.0 Safari/537.36","WebKit","Chrome","138.0.0.0","Windows","10.0","https://app.prolific.com/","en-ZA,en-GB;q=0.9,en-US;q=0.8,en;q=0.7","653a6a7224e6c0bfb644ff9b","68764874ac79eee8c1d4cb03","687763d3f875bc225c059e16","2","0","653a6a7224e6c0bfb644ff9b","2","0","2025-07-16T08:39:52.829Z","","","","","","","","","","","StressQ","","50","","","","","","","","","","","","","","","","","","","","","","","","","","","","",""
"1935","","<div style=""width:500px;"">
  <p>What best describes how you currently feel?</p>
  </div>","76","html-slider-response","28","373792","0.0-5.0-4.3","74","1","2025-07-16 08:33:37","1f75c3e559b7213887762d5229550c2b","105.216.70.10","Mozilla/5.0 (Windows NT 10.0; Win64; x64) AppleWebKit/537.36 (KHTML, like Gecko) Chrome/138.0.0.0 Safari/537.36","WebKit","Chrome","138.0.0.0","Windows","10.0","https://app.prolific.com/","en-ZA,en-GB;q=0.9,en-US;q=0.8,en;q=0.7","653a6a7224e6c0bfb644ff9b","68764874ac79eee8c1d4cb03","687763d3f875bc225c059e16","2","0","653a6a7224e6c0bfb644ff9b","2","0","2025-07-16T08:39:54.767Z","","","","","","","","","","","MotivationQ","","50","","","","","","","","","","","","","","","","","","","","","","","","","","","","",""
"","","","","ctl-task-cpt","29","426093","0.0-5.0-0.4","74","1","2025-07-16 08:33:37","1f75c3e559b7213887762d5229550c2b","105.216.70.10","Mozilla/5.0 (Windows NT 10.0; Win64; x64) AppleWebKit/537.36 (KHTML, like Gecko) Chrome/138.0.0.0 Safari/537.36","WebKit","Chrome","138.0.0.0","Windows","10.0","https://app.prolific.com/","en-ZA,en-GB;q=0.9,en-US;q=0.8,en;q=0.7","653a6a7224e6c0bfb644ff9b","68764874ac79eee8c1d4cb03","687763d3f875bc225c059e16","2","0","653a6a7224e6c0bfb644ff9b","2","0","2025-07-16T08:40:47.069Z","","","","","","","","","","","","","","win-only","2","g1:SE,g2:NW","0.6","5","0","377158.1","1233.9","6240.5","49285.7","1","4","4","6","2","4","4","18","14","0.13636363636363635","5006.6","3000","670","[""left"",""up""]","{""num_key_presses"":8,""num_perfect"":5,""num_errors"":0,""num_randdir"":3,""num_randdir_good_moves"":2,""num_whilered"":0,""num_whileblue"":0,""num_blue"":6,""num_good_moves"":7}","[300.22232142857143,304.12857142857143,0.5,300.22232142857143,304.12857142857143,106.5,300.22232142857143,304.12857142857143,208.7,300.22232142857143,304.12857142857143,318.8,300.22232142857143,304.12857142857143,422.1,300.22232142857143,304.12857142857143,524.5,300.22232142857143,304.12857142857143,632.9,300.22232142857143,304.12857142857143,747.8,300.22232142857143,304.12857142857143,849.1,300.22232142857143,304.12857142857143,956,300.22232142857143,304.12857142857143,1057.7,300.22232142857143,304.12857142857143,1158.9,300.22232142857143,304.12857142857143,1263.2,300.22232142857143,304.12857142857143,1371.9,300.22232142857143,304.12857142857143,1473.2,300.22232142857143,304.12857142857143,1579.3,300.22232142857143,304.12857142857143,1688.7,300.22232142857143,304.12857142857143,1794.4,300.22232142857143,304.12857142857143,1899.3,300.22232142857143,304.12857142857143,2001.6,300.22232142857143,304.12857142857143,2101.8,300.22232142857143,304.12857142857143,2205.6,300.22232142857143,304.12857142857143,2309.2,300.22232142857143,304.12857142857143,2415,300.22232142857143,304.12857142857143,2519.9,300.22232142857143,304.12857142857143,2621.9,300.22232142857143,304.12857142857143,2729.3,300.22232142857143,304.12857142857143,2832.5,300.22232142857143,304.12857142857143,2932.5,300.22232142857143,304.12857142857143,3037.7,300.22232142857143,304.12857142857143,3138.6,300.22232142857143,304.12857142857143,3247.4,300.22232142857143,304.12857142857143,3351.9,300.22232142857143,304.12857142857143,3457.7,300.22232142857143,304.12857142857143,3568.1,300.22232142857143,304.12857142857143,3672.4,300.22232142857143,304.12857142857143,3775.2,300.22232142857143,304.12857142857143,3887,300.22232142857143,304.12857142857143,3990.7,300.22232142857143,304.12857142857143,4092.4,300.22232142857143,304.12857142857143,4200.3,300.22232142857143,304.12857142857143,4310.4,300.22232142857143,304.12857142857143,4412.6,300.22232142857143,304.12857142857143,4515.1,300.22232142857143,304.12857142857143,4631.4,300.22232142857143,304.12857142857143,4731.9,300.22232142857143,304.12857142857143,4831.9,300.22232142857143,304.12857142857143,4938.5]","[1501.4,1501.4,1000,0,501.4,""smooth"",""left"",""left"",""good_move"",4101.7,2599.1,2204.1,1502.6,395,""smooth"",""left"",""left"",""good_move"",14491.6,10389.5,2750.5,11343,398.1,""oops"",""left"",""up"",""good_move"",31489.6,16997.5,2897.4,28185.8,406.4,""oops"",""left"",""right"",""bad_move"",34486.3,2995.6,2369.8,31490.7,625.8,""smooth"",""left"",""left"",""good_move"",36934.4,2447.5,2000.6,34486.9,446.9,""smooth"",""up"",""up"",""good_move"",39979.6,3044.6,2657.6,36935,387,""oops"",""up"",""left"",""good_move"",42913.9,2933,2535,39980.9,398,""smooth"",""up"",""up"",""good_move""]","",""
"3583","","<div style=""width:500px;"">
  <p>What determined the result of this run?</p>
  </div>","81","html-slider-response","30","429679","0.0-5.0-1.4","74","1","2025-07-16 08:33:37","1f75c3e559b7213887762d5229550c2b","105.216.70.10","Mozilla/5.0 (Windows NT 10.0; Win64; x64) AppleWebKit/537.36 (KHTML, like Gecko) Chrome/138.0.0.0 Safari/537.36","WebKit","Chrome","138.0.0.0","Windows","10.0","https://app.prolific.com/","en-ZA,en-GB;q=0.9,en-US;q=0.8,en;q=0.7","653a6a7224e6c0bfb644ff9b","68764874ac79eee8c1d4cb03","687763d3f875bc225c059e16","2","0","653a6a7224e6c0bfb644ff9b","2","0","2025-07-16T08:40:50.655Z","","","","","","","","","","","AttribQ","","50","","","","","","","","","","","","","","","","","","","","","","","","","","","","",""
"1677","","<div style=""width:500px;"">
  <p>How much control did you have over the ball?</p>
  </div>","73","html-slider-response","31","431359","0.0-5.0-2.4","74","1","2025-07-16 08:33:37","1f75c3e559b7213887762d5229550c2b","105.216.70.10","Mozilla/5.0 (Windows NT 10.0; Win64; x64) AppleWebKit/537.36 (KHTML, like Gecko) Chrome/138.0.0.0 Safari/537.36","WebKit","Chrome","138.0.0.0","Windows","10.0","https://app.prolific.com/","en-ZA,en-GB;q=0.9,en-US;q=0.8,en;q=0.7","653a6a7224e6c0bfb644ff9b","68764874ac79eee8c1d4cb03","687763d3f875bc225c059e16","2","0","653a6a7224e6c0bfb644ff9b","2","0","2025-07-16T08:40:52.334Z","","","","","","","","","","","ControlQ","","50","","","","","","","","","","","","","","","","","","","","","","","","","","","","",""
"2397","","<div style=""width:500px;"">
  <p>How would you describe your current emotional state?</p>
  </div>","38","html-slider-response","32","433758","0.0-5.0-3.4","74","1","2025-07-16 08:33:37","1f75c3e559b7213887762d5229550c2b","105.216.70.10","Mozilla/5.0 (Windows NT 10.0; Win64; x64) AppleWebKit/537.36 (KHTML, like Gecko) Chrome/138.0.0.0 Safari/537.36","WebKit","Chrome","138.0.0.0","Windows","10.0","https://app.prolific.com/","en-ZA,en-GB;q=0.9,en-US;q=0.8,en;q=0.7","653a6a7224e6c0bfb644ff9b","68764874ac79eee8c1d4cb03","687763d3f875bc225c059e16","2","0","653a6a7224e6c0bfb644ff9b","2","0","2025-07-16T08:40:54.734Z","","","","","","","","","","","StressQ","","50","","","","","","","","","","","","","","","","","","","","","","","","","","","","",""
"3374","","<div style=""width:500px;"">
  <p>What best describes how you currently feel?</p>
  </div>","73","html-slider-response","33","437134","0.0-5.0-4.4","74","1","2025-07-16 08:33:37","1f75c3e559b7213887762d5229550c2b","105.216.70.10","Mozilla/5.0 (Windows NT 10.0; Win64; x64) AppleWebKit/537.36 (KHTML, like Gecko) Chrome/138.0.0.0 Safari/537.36","WebKit","Chrome","138.0.0.0","Windows","10.0","https://app.prolific.com/","en-ZA,en-GB;q=0.9,en-US;q=0.8,en;q=0.7","653a6a7224e6c0bfb644ff9b","68764874ac79eee8c1d4cb03","687763d3f875bc225c059e16","2","0","653a6a7224e6c0bfb644ff9b","2","0","2025-07-16T08:40:58.110Z","","","","","","","","","","","MotivationQ","","50","","","","","","","","","","","","","","","","","","","","","","","","","","","","",""
"","","","","ctl-task-cpt","34","493379","0.0-5.0-0.5","74","1","2025-07-16 08:33:37","1f75c3e559b7213887762d5229550c2b","105.216.70.10","Mozilla/5.0 (Windows NT 10.0; Win64; x64) AppleWebKit/537.36 (KHTML, like Gecko) Chrome/138.0.0.0 Safari/537.36","WebKit","Chrome","138.0.0.0","Windows","10.0","https://app.prolific.com/","en-ZA,en-GB;q=0.9,en-US;q=0.8,en;q=0.7","653a6a7224e6c0bfb644ff9b","68764874ac79eee8c1d4cb03","687763d3f875bc225c059e16","2","0","653a6a7224e6c0bfb644ff9b","2","0","2025-07-16T08:41:54.355Z","","","","","","","","","","","","","","win-only","0","g1:NW,g2:SE","0.5","6","0","440496.8","987.6","5992.9","53215","1","4","8","6","2","-8","-8","10","18","0.07575757575757576","5005.3","3000","-1925","[""down"",""right""]","{""num_key_presses"":10,""num_perfect"":5,""num_errors"":0,""num_randdir"":5,""num_randdir_good_moves"":1,""num_whilered"":0,""num_whileblue"":0,""num_blue"":5,""num_good_moves"":6}","[294.22232142857143,298.12857142857143,1.2,294.22232142857143,298.12857142857143,102.4,294.22232142857143,290.12857142857143,209.3,294.22232142857143,290.12857142857143,310.3,294.22232142857143,290.12857142857143,422.5,294.22232142857143,290.12857142857143,528,294.22232142857143,290.12857142857143,630.2,294.22232142857143,290.12857142857143,730.2,294.22232142857143,290.12857142857143,840.1,294.22232142857143,290.12857142857143,944.6,294.22232142857143,290.12857142857143,1048.5,294.22232142857143,290.12857142857143,1151.8,294.22232142857143,290.12857142857143,1254.6,294.22232142857143,290.12857142857143,1362,294.22232142857143,290.12857142857143,1463.7,294.22232142857143,290.12857142857143,1574.2,294.22232142857143,290.12857142857143,1679.1,294.22232142857143,290.12857142857143,1779.3,294.22232142857143,290.12857142857143,1880.6,294.22232142857143,290.12857142857143,1981.3,294.22232142857143,290.12857142857143,2084.7,294.22232142857143,290.12857142857143,2204.3,294.22232142857143,290.12857142857143,2310.9,294.22232142857143,290.12857142857143,2422.8,294.22232142857143,290.12857142857143,2540.7,294.22232142857143,290.12857142857143,2642,294.22232142857143,290.12857142857143,2759.5,294.22232142857143,290.12857142857143,2878.2,294.22232142857143,290.12857142857143,2978.7,294.22232142857143,290.12857142857143,3091.2,294.22232142857143,290.12857142857143,3191.5,294.22232142857143,290.12857142857143,3300.7,294.22232142857143,290.12857142857143,3403.3,294.22232142857143,290.12857142857143,3508.2,294.22232142857143,290.12857142857143,3609.4,294.22232142857143,290.12857142857143,3711.4,294.22232142857143,290.12857142857143,3813.4,294.22232142857143,290.12857142857143,3914.6,294.22232142857143,290.12857142857143,4023,294.22232142857143,290.12857142857143,4124,294.22232142857143,290.12857142857143,4230.9,294.22232142857143,290.12857142857143,4338.1,294.22232142857143,290.12857142857143,4444.4,294.22232142857143,290.12857142857143,4548,294.22232142857143,290.12857142857143,4656.1,294.22232142857143,290.12857142857143,4760,294.22232142857143,290.12857142857143,4860.3,294.22232142857143,290.12857142857143,4961.1]","[9082.8,9082.8,2877,5740.3,465.5,""smooth"",""down"",""down"",""good_move"",14770.6,5687.2,1911.7,12426.4,432.5,""smooth"",""down"",""down"",""good_move"",17132.8,2361.7,1743.8,14771.2,617.8,""smooth"",""down"",""down"",""good_move"",19393.4,2260.3,1880.1,17133.1,380.2,""oops"",""right"",""left"",""bad_move"",25756.5,6361.9,2356,23016.2,384.3,""smooth"",""right"",""right"",""good_move"",32662.3,6905,2729.9,29504.5,427.9,""oops"",""right"",""left"",""bad_move"",35463.1,2800.5,2372.4,32662.6,428.1,""smooth"",""right"",""right"",""good_move"",38298.2,2834.6,2438.8,35463.6,395.8,""oops"",""right"",""left"",""bad_move"",41876.6,3578,3215.7,38298.6,362.3,""oops"",""right"",""up"",""bad_move"",44486.5,2608.2,2034.7,41878.3,573.5,""oops"",""right"",""down"",""good_move""]","",""
"6977","","<div style=""width:500px;"">
  <p>What determined the result of this run?</p>
  </div>","13","html-slider-response","35","500359","0.0-5.0-1.5","74","1","2025-07-16 08:33:37","1f75c3e559b7213887762d5229550c2b","105.216.70.10","Mozilla/5.0 (Windows NT 10.0; Win64; x64) AppleWebKit/537.36 (KHTML, like Gecko) Chrome/138.0.0.0 Safari/537.36","WebKit","Chrome","138.0.0.0","Windows","10.0","https://app.prolific.com/","en-ZA,en-GB;q=0.9,en-US;q=0.8,en;q=0.7","653a6a7224e6c0bfb644ff9b","68764874ac79eee8c1d4cb03","687763d3f875bc225c059e16","2","0","653a6a7224e6c0bfb644ff9b","2","0","2025-07-16T08:42:01.334Z","","","","","","","","","","","AttribQ","","50","","","","","","","","","","","","","","","","","","","","","","","","","","","","",""
"3627","","<div style=""width:500px;"">
  <p>How much control did you have over the ball?</p>
  </div>","29","html-slider-response","36","503990","0.0-5.0-2.5","74","1","2025-07-16 08:33:37","1f75c3e559b7213887762d5229550c2b","105.216.70.10","Mozilla/5.0 (Windows NT 10.0; Win64; x64) AppleWebKit/537.36 (KHTML, like Gecko) Chrome/138.0.0.0 Safari/537.36","WebKit","Chrome","138.0.0.0","Windows","10.0","https://app.prolific.com/","en-ZA,en-GB;q=0.9,en-US;q=0.8,en;q=0.7","653a6a7224e6c0bfb644ff9b","68764874ac79eee8c1d4cb03","687763d3f875bc225c059e16","2","0","653a6a7224e6c0bfb644ff9b","2","0","2025-07-16T08:42:04.965Z","","","","","","","","","","","ControlQ","","50","","","","","","","","","","","","","","","","","","","","","","","","","","","","",""
"2525","","<div style=""width:500px;"">
  <p>How would you describe your current emotional state?</p>
  </div>","36","html-slider-response","37","506517","0.0-5.0-3.5","74","1","2025-07-16 08:33:37","1f75c3e559b7213887762d5229550c2b","105.216.70.10","Mozilla/5.0 (Windows NT 10.0; Win64; x64) AppleWebKit/537.36 (KHTML, like Gecko) Chrome/138.0.0.0 Safari/537.36","WebKit","Chrome","138.0.0.0","Windows","10.0","https://app.prolific.com/","en-ZA,en-GB;q=0.9,en-US;q=0.8,en;q=0.7","653a6a7224e6c0bfb644ff9b","68764874ac79eee8c1d4cb03","687763d3f875bc225c059e16","2","0","653a6a7224e6c0bfb644ff9b","2","0","2025-07-16T08:42:07.493Z","","","","","","","","","","","StressQ","","50","","","","","","","","","","","","","","","","","","","","","","","","","","","","",""
"2182","","<div style=""width:500px;"">
  <p>What best describes how you currently feel?</p>
  </div>","75","html-slider-response","38","508701","0.0-5.0-4.5","74","1","2025-07-16 08:33:37","1f75c3e559b7213887762d5229550c2b","105.216.70.10","Mozilla/5.0 (Windows NT 10.0; Win64; x64) AppleWebKit/537.36 (KHTML, like Gecko) Chrome/138.0.0.0 Safari/537.36","WebKit","Chrome","138.0.0.0","Windows","10.0","https://app.prolific.com/","en-ZA,en-GB;q=0.9,en-US;q=0.8,en;q=0.7","653a6a7224e6c0bfb644ff9b","68764874ac79eee8c1d4cb03","687763d3f875bc225c059e16","2","0","653a6a7224e6c0bfb644ff9b","2","0","2025-07-16T08:42:09.676Z","","","","","","","","","","","MotivationQ","","50","","","","","","","","","","","","","","","","","","","","","","","","","","","","",""
"","","","","ctl-task-cpt","39","548057","0.0-5.0-0.6","74","1","2025-07-16 08:33:37","1f75c3e559b7213887762d5229550c2b","105.216.70.10","Mozilla/5.0 (Windows NT 10.0; Win64; x64) AppleWebKit/537.36 (KHTML, like Gecko) Chrome/138.0.0.0 Safari/537.36","WebKit","Chrome","138.0.0.0","Windows","10.0","https://app.prolific.com/","en-ZA,en-GB;q=0.9,en-US;q=0.8,en;q=0.7","653a6a7224e6c0bfb644ff9b","68764874ac79eee8c1d4cb03","687763d3f875bc225c059e16","2","0","653a6a7224e6c0bfb644ff9b","2","0","2025-07-16T08:42:49.032Z","","","","","","","","","","","","","","win-only","1","g1:NE,g2:SW","0.4","7","0","512064.1","1113.3","6114.1","36331.3","1","4","4","6","2","4","4","14","10","0.10606060606060606","5000.8","3000","570","[""down"",""left""]","{""num_key_presses"":10,""num_perfect"":4,""num_errors"":0,""num_randdir"":6,""num_randdir_good_moves"":4,""num_whilered"":0,""num_whileblue"":0,""num_blue"":0,""num_good_moves"":8}","[295.22232142857143,294.12857142857143,0.3,295.22232142857143,294.12857142857143,104.7,296.22232142857143,294.12857142857143,214.8,296.22232142857143,294.12857142857143,332.2,296.22232142857143,294.12857142857143,434.1,296.22232142857143,294.12857142857143,543,296.22232142857143,294.12857142857143,644.5,296.22232142857143,294.12857142857143,749.7,296.22232142857143,294.12857142857143,851.5,296.22232142857143,294.12857142857143,953.5,296.22232142857143,294.12857142857143,1058.8,296.22232142857143,294.12857142857143,1182.3,296.22232142857143,294.12857142857143,1282.5,296.22232142857143,294.12857142857143,1385.1,296.22232142857143,294.12857142857143,1488,296.22232142857143,294.12857142857143,1590.6,296.22232142857143,294.12857142857143,1697.8,296.22232142857143,294.12857142857143,1800.9,296.22232142857143,294.12857142857143,1905.4,296.22232142857143,294.12857142857143,2008.3,296.22232142857143,294.12857142857143,2119.7,296.22232142857143,294.12857142857143,2224.2,296.22232142857143,294.12857142857143,2347.8,296.22232142857143,294.12857142857143,2449.8,296.22232142857143,294.12857142857143,2551.8,296.22232142857143,294.12857142857143,2652.3,296.22232142857143,294.12857142857143,2754.6,296.22232142857143,294.12857142857143,2864.1,296.22232142857143,294.12857142857143,2967.9,296.22232142857143,294.12857142857143,3075.4,296.22232142857143,294.12857142857143,3180.8,296.22232142857143,294.12857142857143,3298.5,296.22232142857143,294.12857142857143,3414.6,296.22232142857143,294.12857142857143,3515.9,296.22232142857143,294.12857142857143,3621.6,296.22232142857143,294.12857142857143,3731.7,296.22232142857143,294.12857142857143,3832.2,296.22232142857143,294.12857142857143,3932.9,296.22232142857143,294.12857142857143,4040.9,296.22232142857143,294.12857142857143,4148.3,296.22232142857143,294.12857142857143,4266.2,296.22232142857143,294.12857142857143,4376.4,296.22232142857143,294.12857142857143,4481.8,296.22232142857143,294.12857142857143,4582.8,296.22232142857143,294.12857142857143,4684.3,296.22232142857143,294.12857142857143,4792.7,296.22232142857143,294.12857142857143,4898]","[1444.9,1444.9,1000,0,444.9,""oops"",""down"",""left"",""good_move"",4710.9,3264.9,2841.8,1446.1,423,""oops"",""down"",""left"",""good_move"",7665.7,2954.1,2585,4711.6,369.1,""oops"",""down"",""left"",""good_move"",11079.5,3412,3050,7667.6,362,""oops"",""down"",""up"",""bad_move"",14251.7,3171.3,2772.8,11080.5,398.4,""smooth"",""down"",""down"",""good_move"",16546.8,2294.6,1897.2,14252.2,397.4,""oops"",""down"",""down"",""good_move"",20529.5,3981.8,3197.3,16547.7,784.5,""oops"",""down"",""right"",""bad_move"",23545.6,3015,2628.3,20530.6,386.7,""smooth"",""down"",""down"",""good_move"",27125.7,3579.7,3201.1,23546,378.6,""smooth"",""down"",""down"",""good_move"",30038.1,2910.9,2460,27127.2,450.9,""smooth"",""left"",""left"",""good_move""]","",""
"2889","","<div style=""width:500px;"">
  <p>What determined the result of this run?</p>
  </div>","82","html-slider-response","40","550948","0.0-5.0-1.6","74","1","2025-07-16 08:33:37","1f75c3e559b7213887762d5229550c2b","105.216.70.10","Mozilla/5.0 (Windows NT 10.0; Win64; x64) AppleWebKit/537.36 (KHTML, like Gecko) Chrome/138.0.0.0 Safari/537.36","WebKit","Chrome","138.0.0.0","Windows","10.0","https://app.prolific.com/","en-ZA,en-GB;q=0.9,en-US;q=0.8,en;q=0.7","653a6a7224e6c0bfb644ff9b","68764874ac79eee8c1d4cb03","687763d3f875bc225c059e16","2","0","653a6a7224e6c0bfb644ff9b","2","0","2025-07-16T08:42:51.924Z","","","","","","","","","","","AttribQ","","50","","","","","","","","","","","","","","","","","","","","","","","","","","","","",""
"2748","","<div style=""width:500px;"">
  <p>How much control did you have over the ball?</p>
  </div>","76","html-slider-response","41","553699","0.0-5.0-2.6","74","1","2025-07-16 08:33:37","1f75c3e559b7213887762d5229550c2b","105.216.70.10","Mozilla/5.0 (Windows NT 10.0; Win64; x64) AppleWebKit/537.36 (KHTML, like Gecko) Chrome/138.0.0.0 Safari/537.36","WebKit","Chrome","138.0.0.0","Windows","10.0","https://app.prolific.com/","en-ZA,en-GB;q=0.9,en-US;q=0.8,en;q=0.7","653a6a7224e6c0bfb644ff9b","68764874ac79eee8c1d4cb03","687763d3f875bc225c059e16","2","0","653a6a7224e6c0bfb644ff9b","2","0","2025-07-16T08:42:54.674Z","","","","","","","","","","","ControlQ","","50","","","","","","","","","","","","","","","","","","","","","","","","","","","","",""
"3402","","<div style=""width:500px;"">
  <p>How would you describe your current emotional state?</p>
  </div>","42","html-slider-response","42","557104","0.0-5.0-3.6","74","1","2025-07-16 08:33:37","1f75c3e559b7213887762d5229550c2b","105.216.70.10","Mozilla/5.0 (Windows NT 10.0; Win64; x64) AppleWebKit/537.36 (KHTML, like Gecko) Chrome/138.0.0.0 Safari/537.36","WebKit","Chrome","138.0.0.0","Windows","10.0","https://app.prolific.com/","en-ZA,en-GB;q=0.9,en-US;q=0.8,en;q=0.7","653a6a7224e6c0bfb644ff9b","68764874ac79eee8c1d4cb03","687763d3f875bc225c059e16","2","0","653a6a7224e6c0bfb644ff9b","2","0","2025-07-16T08:42:58.079Z","","","","","","","","","","","StressQ","","50","","","","","","","","","","","","","","","","","","","","","","","","","","","","",""
"2942","","<div style=""width:500px;"">
  <p>What best describes how you currently feel?</p>
  </div>","77","html-slider-response","43","560048","0.0-5.0-4.6","74","1","2025-07-16 08:33:37","1f75c3e559b7213887762d5229550c2b","105.216.70.10","Mozilla/5.0 (Windows NT 10.0; Win64; x64) AppleWebKit/537.36 (KHTML, like Gecko) Chrome/138.0.0.0 Safari/537.36","WebKit","Chrome","138.0.0.0","Windows","10.0","https://app.prolific.com/","en-ZA,en-GB;q=0.9,en-US;q=0.8,en;q=0.7","653a6a7224e6c0bfb644ff9b","68764874ac79eee8c1d4cb03","687763d3f875bc225c059e16","2","0","653a6a7224e6c0bfb644ff9b","2","0","2025-07-16T08:43:01.023Z","","","","","","","","","","","MotivationQ","","50","","","","","","","","","","","","","","","","","","","","","","","","","","","","",""
"","","","","ctl-task-cpt","44","578758","0.0-5.0-0.7","74","1","2025-07-16 08:33:37","1f75c3e559b7213887762d5229550c2b","105.216.70.10","Mozilla/5.0 (Windows NT 10.0; Win64; x64) AppleWebKit/537.36 (KHTML, like Gecko) Chrome/138.0.0.0 Safari/537.36","WebKit","Chrome","138.0.0.0","Windows","10.0","https://app.prolific.com/","en-ZA,en-GB;q=0.9,en-US;q=0.8,en;q=0.7","653a6a7224e6c0bfb644ff9b","68764874ac79eee8c1d4cb03","687763d3f875bc225c059e16","2","0","653a6a7224e6c0bfb644ff9b","2","0","2025-07-16T08:43:19.733Z","","","","","","","","","","","","","","win-only","0","g1:NW,g2:SE","0.3","8","0","563411.4","869.2","5870.9","15686.6","1","4","8","6","1","1","1","15","14","0.11363636363636363","5001.7","3000","1950","[""left"",""up""]","{""num_key_presses"":4,""num_perfect"":2,""num_errors"":0,""num_randdir"":2,""num_randdir_good_moves"":2,""num_whilered"":0,""num_whileblue"":0,""num_blue"":0,""num_good_moves"":4}","[297.22232142857143,301.12857142857143,0.4,297.22232142857143,301.12857142857143,102.6,307.22232142857143,288.12857142857143,218.3,308.22232142857143,288.12857142857143,333,308.22232142857143,288.12857142857143,435,308.22232142857143,288.12857142857143,537.1,308.22232142857143,288.12857142857143,645.9,308.22232142857143,288.12857142857143,750.6,308.22232142857143,288.12857142857143,851.2,308.22232142857143,288.12857142857143,965,308.22232142857143,288.12857142857143,1067,308.22232142857143,288.12857142857143,1170,308.22232142857143,288.12857142857143,1294.6,308.22232142857143,288.12857142857143,1402.2,308.22232142857143,288.12857142857143,1509.2,308.22232142857143,288.12857142857143,1611,308.22232142857143,288.12857142857143,1724.7,308.22232142857143,288.12857142857143,1828.4,308.22232142857143,288.12857142857143,1931.3,308.22232142857143,288.12857142857143,2033.2,308.22232142857143,288.12857142857143,2157.9,308.22232142857143,288.12857142857143,2261.1,308.22232142857143,288.12857142857143,2365.1,308.22232142857143,288.12857142857143,2466.7,308.22232142857143,288.12857142857143,2567.9,308.22232142857143,288.12857142857143,2672.9,308.22232142857143,288.12857142857143,2797.7,308.22232142857143,288.12857142857143,2916,308.22232142857143,288.12857142857143,3018.4,308.22232142857143,288.12857142857143,3119.3,308.22232142857143,288.12857142857143,3244.8,308.22232142857143,288.12857142857143,3345.4,308.22232142857143,288.12857142857143,3454.2,308.22232142857143,288.12857142857143,3559.8,308.22232142857143,288.12857142857143,3661.1,308.22232142857143,288.12857142857143,3762.4,308.22232142857143,288.12857142857143,3875.2,308.22232142857143,288.12857142857143,3978.2,308.22232142857143,288.12857142857143,4078.9,308.22232142857143,288.12857142857143,4193.7,308.22232142857143,288.12857142857143,4310.4,308.22232142857143,288.12857142857143,4411.1,308.22232142857143,288.12857142857143,4511.8,308.22232142857143,288.12857142857143,4613.8,308.22232142857143,288.12857142857143,4716.9,308.22232142857143,288.12857142857143,4818.4,308.22232142857143,288.12857142857143,4922.9]","[1559.1,1559.1,1000,0,559.1,""smooth"",""up"",""up"",""good_move"",3919.4,2359.2,1861,1560.2,498.2,""oops"",""up"",""left"",""good_move"",6958.6,3034.6,2577.6,3924,457,""oops"",""up"",""up"",""good_move"",9658.6,2699.3,2295.1,6959.3,404.2,""smooth"",""left"",""left"",""good_move""]","",""
"2237","","<div style=""width:500px;"">
  <p>What determined the result of this run?</p>
  </div>","88","html-slider-response","45","580999","0.0-5.0-1.7","74","1","2025-07-16 08:33:37","1f75c3e559b7213887762d5229550c2b","105.216.70.10","Mozilla/5.0 (Windows NT 10.0; Win64; x64) AppleWebKit/537.36 (KHTML, like Gecko) Chrome/138.0.0.0 Safari/537.36","WebKit","Chrome","138.0.0.0","Windows","10.0","https://app.prolific.com/","en-ZA,en-GB;q=0.9,en-US;q=0.8,en;q=0.7","653a6a7224e6c0bfb644ff9b","68764874ac79eee8c1d4cb03","687763d3f875bc225c059e16","2","0","653a6a7224e6c0bfb644ff9b","2","0","2025-07-16T08:43:21.974Z","","","","","","","","","","","AttribQ","","50","","","","","","","","","","","","","","","","","","","","","","","","","","","","",""
"2571","","<div style=""width:500px;"">
  <p>How much control did you have over the ball?</p>
  </div>","72","html-slider-response","46","583572","0.0-5.0-2.7","74","1","2025-07-16 08:33:37","1f75c3e559b7213887762d5229550c2b","105.216.70.10","Mozilla/5.0 (Windows NT 10.0; Win64; x64) AppleWebKit/537.36 (KHTML, like Gecko) Chrome/138.0.0.0 Safari/537.36","WebKit","Chrome","138.0.0.0","Windows","10.0","https://app.prolific.com/","en-ZA,en-GB;q=0.9,en-US;q=0.8,en;q=0.7","653a6a7224e6c0bfb644ff9b","68764874ac79eee8c1d4cb03","687763d3f875bc225c059e16","2","0","653a6a7224e6c0bfb644ff9b","2","0","2025-07-16T08:43:24.547Z","","","","","","","","","","","ControlQ","","50","","","","","","","","","","","","","","","","","","","","","","","","","","","","",""
"2666","","<div style=""width:500px;"">
  <p>How would you describe your current emotional state?</p>
  </div>","40","html-slider-response","47","586241","0.0-5.0-3.7","74","1","2025-07-16 08:33:37","1f75c3e559b7213887762d5229550c2b","105.216.70.10","Mozilla/5.0 (Windows NT 10.0; Win64; x64) AppleWebKit/537.36 (KHTML, like Gecko) Chrome/138.0.0.0 Safari/537.36","WebKit","Chrome","138.0.0.0","Windows","10.0","https://app.prolific.com/","en-ZA,en-GB;q=0.9,en-US;q=0.8,en;q=0.7","653a6a7224e6c0bfb644ff9b","68764874ac79eee8c1d4cb03","687763d3f875bc225c059e16","2","0","653a6a7224e6c0bfb644ff9b","2","0","2025-07-16T08:43:27.216Z","","","","","","","","","","","StressQ","","50","","","","","","","","","","","","","","","","","","","","","","","","","","","","",""
"4011","","<div style=""width:500px;"">
  <p>What best describes how you currently feel?</p>
  </div>","76","html-slider-response","48","590256","0.0-5.0-4.7","74","1","2025-07-16 08:33:37","1f75c3e559b7213887762d5229550c2b","105.216.70.10","Mozilla/5.0 (Windows NT 10.0; Win64; x64) AppleWebKit/537.36 (KHTML, like Gecko) Chrome/138.0.0.0 Safari/537.36","WebKit","Chrome","138.0.0.0","Windows","10.0","https://app.prolific.com/","en-ZA,en-GB;q=0.9,en-US;q=0.8,en;q=0.7","653a6a7224e6c0bfb644ff9b","68764874ac79eee8c1d4cb03","687763d3f875bc225c059e16","2","0","653a6a7224e6c0bfb644ff9b","2","0","2025-07-16T08:43:31.231Z","","","","","","","","","","","MotivationQ","","50","","","","","","","","","","","","","","","","","","","","","","","","","","","","",""
"","","","","ctl-task-cpt","49","685587","0.0-5.0-0.8","74","1","2025-07-16 08:33:37","1f75c3e559b7213887762d5229550c2b","105.216.70.10","Mozilla/5.0 (Windows NT 10.0; Win64; x64) AppleWebKit/537.36 (KHTML, like Gecko) Chrome/138.0.0.0 Safari/537.36","WebKit","Chrome","138.0.0.0","Windows","10.0","https://app.prolific.com/","en-ZA,en-GB;q=0.9,en-US;q=0.8,en;q=0.7","653a6a7224e6c0bfb644ff9b","68764874ac79eee8c1d4cb03","687763d3f875bc225c059e16","2","0","653a6a7224e6c0bfb644ff9b","2","0","2025-07-16T08:45:06.562Z","","","","","","","","","","","","","","win-only","0","g1:NW,g2:SE","0.2","9","0","593623.4","2225.2","7229.4","92305.2","1","4","4","6","2","-4","-5","10","15","0.07575757575757576","5004.2","3000","-1395","[""down"",""right""]","{""num_key_presses"":20,""num_perfect"":4,""num_errors"":1,""num_randdir"":15,""num_randdir_good_moves"":7,""num_whilered"":0,""num_whileblue"":1,""num_blue"":6,""num_good_moves"":11}","[297.22232142857143,294.12857142857143,0.9,297.22232142857143,294.12857142857143,112.7,297.22232142857143,294.12857142857143,216.4,299.22232142857143,293.12857142857143,317.6,299.22232142857143,293.12857142857143,420.9,299.22232142857143,293.12857142857143,527.9,299.22232142857143,293.12857142857143,634,299.22232142857143,293.12857142857143,745.2,299.22232142857143,293.12857142857143,848.5,299.22232142857143,293.12857142857143,963.6,299.22232142857143,293.12857142857143,1066.2,299.22232142857143,293.12857142857143,1172.4,299.22232142857143,293.12857142857143,1281.7,299.22232142857143,293.12857142857143,1390,299.22232142857143,293.12857142857143,1494,299.22232142857143,293.12857142857143,1608.1,299.22232142857143,293.12857142857143,1708.3,299.22232142857143,293.12857142857143,1814.1,299.22232142857143,293.12857142857143,1915.6,299.22232142857143,293.12857142857143,2029.7,299.22232142857143,293.12857142857143,2130.1,299.22232142857143,293.12857142857143,2233.3,299.22232142857143,293.12857142857143,2337,299.22232142857143,293.12857142857143,2442.5,299.22232142857143,293.12857142857143,2545.1,299.22232142857143,293.12857142857143,2649.3,299.22232142857143,293.12857142857143,2761.5,299.22232142857143,293.12857142857143,2875.3,299.22232142857143,293.12857142857143,2977.7,299.22232142857143,293.12857142857143,3090.6,299.22232142857143,293.12857142857143,3196.4,299.22232142857143,293.12857142857143,3301.1,299.22232142857143,293.12857142857143,3413.4,299.22232142857143,293.12857142857143,3515,299.22232142857143,293.12857142857143,3616.5,299.22232142857143,293.12857142857143,3724.8,299.22232142857143,293.12857142857143,3828.4,299.22232142857143,293.12857142857143,3934,299.22232142857143,293.12857142857143,4043.4,299.22232142857143,293.12857142857143,4143.9,299.22232142857143,293.12857142857143,4246.4,299.22232142857143,293.12857142857143,4350.9,299.22232142857143,293.12857142857143,4464.9,299.22232142857143,293.12857142857143,4571.3,299.22232142857143,293.12857142857143,4683,299.22232142857143,293.12857142857143,4794.2,299.22232142857143,293.12857142857143,4903.7]","[1676.9,1676.9,1000,0,676.9,""oops"",""down"",""left"",""bad_move"",4446,2768,2183.7,1678,584.3,""smooth"",""down"",""down"",""good_move"",7329.9,2883.4,2475.8,4446.5,407.6,""oops"",""right"",""left"",""bad_move"",10384.7,3054.4,2666.4,7330.3,388,""oops"",""down"",""right"",""good_move"",13694.6,3308.9,2869.4,10385.7,439.5,""smooth"",""down"",""down"",""good_move"",16613.2,2918.3,2528.6,13694.9,389.8,""oops"",""right"",""left"",""bad_move"",25165.9,8550.5,2697.4,21989.6,478.9,""oops"",""right"",""down"",""good_move"",27633.4,2467.1,1875.9,25166.3,591.2,""oops"",""right"",""up"",""bad_move"",32761.4,5126.9,2791.1,27634.5,2335.8,""oops"",""right"",""down"",""good_move"",35599.7,2838,2374.4,32761.7,463.6,""oops"",""right"",""up"",""bad_move"",39924.5,4324.5,2550.2,35600,1774.3,""oops"",""right"",""down"",""good_move"",47258.3,7333.2,3330.9,43494.9,432.5,""while_blue"",""right"",""up"",""bad_move"",50799.7,3540.2,2981.4,47259.5,558.8,""oops"",""right"",""down"",""good_move"",54102.1,3302,2637.8,50800.2,664.2,""oops"",""right"",""up"",""bad_move"",63653.5,9550,2391.7,60740.7,521.2,""smooth"",""down"",""down"",""good_move"",66534.3,2880,2305.7,63654.4,574.2,""smooth"",""right"",""right"",""good_move"",69566.5,3031.3,2643,66535.2,388.3,""oops"",""right"",""right"",""good_move"",75605,6037.8,2295.7,72927,382.3,""oops"",""right"",""right"",""good_move"",79040.8,3435.2,2922.5,75605.6,512.7,""oops"",""right"",""up"",""bad_move"",82504.7,3463.4,1435.6,79041.3,2027.8,""oops"",""right"",""up"",""bad_move""]","",""
"2305","","<div style=""width:500px;"">
  <p>What determined the result of this run?</p>
  </div>","11","html-slider-response","50","687896","0.0-5.0-1.8","74","1","2025-07-16 08:33:37","1f75c3e559b7213887762d5229550c2b","105.216.70.10","Mozilla/5.0 (Windows NT 10.0; Win64; x64) AppleWebKit/537.36 (KHTML, like Gecko) Chrome/138.0.0.0 Safari/537.36","WebKit","Chrome","138.0.0.0","Windows","10.0","https://app.prolific.com/","en-ZA,en-GB;q=0.9,en-US;q=0.8,en;q=0.7","653a6a7224e6c0bfb644ff9b","68764874ac79eee8c1d4cb03","687763d3f875bc225c059e16","2","0","653a6a7224e6c0bfb644ff9b","2","0","2025-07-16T08:45:08.871Z","","","","","","","","","","","AttribQ","","50","","","","","","","","","","","","","","","","","","","","","","","","","","","","",""
"3530","","<div style=""width:500px;"">
  <p>How much control did you have over the ball?</p>
  </div>","12","html-slider-response","51","691430","0.0-5.0-2.8","74","1","2025-07-16 08:33:37","1f75c3e559b7213887762d5229550c2b","105.216.70.10","Mozilla/5.0 (Windows NT 10.0; Win64; x64) AppleWebKit/537.36 (KHTML, like Gecko) Chrome/138.0.0.0 Safari/537.36","WebKit","Chrome","138.0.0.0","Windows","10.0","https://app.prolific.com/","en-ZA,en-GB;q=0.9,en-US;q=0.8,en;q=0.7","653a6a7224e6c0bfb644ff9b","68764874ac79eee8c1d4cb03","687763d3f875bc225c059e16","2","0","653a6a7224e6c0bfb644ff9b","2","0","2025-07-16T08:45:12.405Z","","","","","","","","","","","ControlQ","","50","","","","","","","","","","","","","","","","","","","","","","","","","","","","",""
"5957","","<div style=""width:500px;"">
  <p>How would you describe your current emotional state?</p>
  </div>","100","html-slider-response","52","697390","0.0-5.0-3.8","74","1","2025-07-16 08:33:37","1f75c3e559b7213887762d5229550c2b","105.216.70.10","Mozilla/5.0 (Windows NT 10.0; Win64; x64) AppleWebKit/537.36 (KHTML, like Gecko) Chrome/138.0.0.0 Safari/537.36","WebKit","Chrome","138.0.0.0","Windows","10.0","https://app.prolific.com/","en-ZA,en-GB;q=0.9,en-US;q=0.8,en;q=0.7","653a6a7224e6c0bfb644ff9b","68764874ac79eee8c1d4cb03","687763d3f875bc225c059e16","2","0","653a6a7224e6c0bfb644ff9b","2","0","2025-07-16T08:45:18.366Z","","","","","","","","","","","StressQ","","50","","","","","","","","","","","","","","","","","","","","","","","","","","","","",""
"2745","","<div style=""width:500px;"">
  <p>What best describes how you currently feel?</p>
  </div>","96","html-slider-response","53","700139","0.0-5.0-4.8","74","1","2025-07-16 08:33:37","1f75c3e559b7213887762d5229550c2b","105.216.70.10","Mozilla/5.0 (Windows NT 10.0; Win64; x64) AppleWebKit/537.36 (KHTML, like Gecko) Chrome/138.0.0.0 Safari/537.36","WebKit","Chrome","138.0.0.0","Windows","10.0","https://app.prolific.com/","en-ZA,en-GB;q=0.9,en-US;q=0.8,en;q=0.7","653a6a7224e6c0bfb644ff9b","68764874ac79eee8c1d4cb03","687763d3f875bc225c059e16","2","0","653a6a7224e6c0bfb644ff9b","2","0","2025-07-16T08:45:21.114Z","","","","","","","","","","","MotivationQ","","50","","","","","","","","","","","","","","","","","","","","","","","","","","","","",""
"","","","","ctl-task-cpt","54","783419","0.0-5.0-0.9","74","1","2025-07-16 08:33:37","1f75c3e559b7213887762d5229550c2b","105.216.70.10","Mozilla/5.0 (Windows NT 10.0; Win64; x64) AppleWebKit/537.36 (KHTML, like Gecko) Chrome/138.0.0.0 Safari/537.36","WebKit","Chrome","138.0.0.0","Windows","10.0","https://app.prolific.com/","en-ZA,en-GB;q=0.9,en-US;q=0.8,en;q=0.7","653a6a7224e6c0bfb644ff9b","68764874ac79eee8c1d4cb03","687763d3f875bc225c059e16","2","0","653a6a7224e6c0bfb644ff9b","2","0","2025-07-16T08:46:44.394Z","","","","","","","","","","","","","","win-only","0","g1:NW,g2:SE","0.4","10","0","703503.3","1124.7","6131.8","80198.6","1","4","8","6","2","8","8","18","10","0.13636363636363635","5007.1","3000","1615","[""down"",""right""]","{""num_key_presses"":16,""num_perfect"":6,""num_errors"":0,""num_randdir"":10,""num_randdir_good_moves"":5,""num_whilered"":0,""num_whileblue"":0,""num_blue"":3,""num_good_moves"":11}","[295.22232142857143,292.12857142857143,0.4,295.22232142857143,292.12857142857143,107.8,295.22232142857143,291.12857142857143,226.2,295.22232142857143,291.12857142857143,349.1,295.22232142857143,291.12857142857143,470.9,295.22232142857143,291.12857142857143,595.1,295.22232142857143,291.12857142857143,710.9,295.22232142857143,291.12857142857143,828.2,295.22232142857143,291.12857142857143,964,295.22232142857143,291.12857142857143,1086.4,295.22232142857143,291.12857142857143,1205.2,295.22232142857143,291.12857142857143,1321.7,295.22232142857143,291.12857142857143,1440.1,295.22232142857143,291.12857142857143,1559,295.22232142857143,291.12857142857143,1672.9,295.22232142857143,291.12857142857143,1795.4,295.22232142857143,291.12857142857143,1911.9,295.22232142857143,291.12857142857143,2030,295.22232142857143,291.12857142857143,2154.4,295.22232142857143,291.12857142857143,2271.4,295.22232142857143,291.12857142857143,2391.8,295.22232142857143,291.12857142857143,2510.9,295.22232142857143,291.12857142857143,2626.3,295.22232142857143,291.12857142857143,2747.8,295.22232142857143,291.12857142857143,2862.4,295.22232142857143,291.12857142857143,2982.9,295.22232142857143,291.12857142857143,3108.2,295.22232142857143,291.12857142857143,3225.4,295.22232142857143,291.12857142857143,3348.5,295.22232142857143,291.12857142857143,3469.6,295.22232142857143,291.12857142857143,3589.4,295.22232142857143,291.12857142857143,3710.9,295.22232142857143,291.12857142857143,3828.9,295.22232142857143,291.12857142857143,3932,295.22232142857143,291.12857142857143,4041.5,295.22232142857143,291.12857142857143,4148.1,295.22232142857143,291.12857142857143,4253.9,295.22232142857143,291.12857142857143,4359.8,295.22232142857143,291.12857142857143,4491.5,295.22232142857143,291.12857142857143,4611.3,295.22232142857143,291.12857142857143,4732.6,295.22232142857143,291.12857142857143,4846,295.22232142857143,291.12857142857143,4973]","[1744.8,1744.8,1000,0,744.8,""smooth"",""down"",""down"",""good_move"",4156.5,2410.1,1756.9,1746.5,653.2,""smooth"",""right"",""right"",""good_move"",7237.7,3080.6,2703.5,4157.1,377.1,""smooth"",""right"",""right"",""good_move"",10806.6,3568.1,3180.5,7238.5,387.6,""oops"",""down"",""up"",""bad_move"",14712.6,3905.5,2611.1,10807.1,1294.4,""oops"",""right"",""down"",""good_move"",17370.1,2656.7,2097.7,14713.4,559,""oops"",""down"",""left"",""bad_move"",24029.3,6657.8,3443.1,17371.5,3214.7,""smooth"",""down"",""down"",""good_move"",30494.6,6464.5,2725.5,27311,458.1,""oops"",""down"",""up"",""bad_move"",36332.9,5837.9,2409.9,30495,3428,""oops"",""right"",""left"",""bad_move"",42287.7,5954.5,1970.5,36333.2,3984,""oops"",""left"",""up"",""bad_move"",50627.5,8339.5,1962.8,42288,6376.7,""oops"",""down"",""down"",""good_move"",57335,6706.8,2653.3,53999.8,681.9,""oops"",""down"",""right"",""good_move"",60616.7,3281.4,2527.1,57335.3,754.3,""oops"",""down"",""right"",""good_move"",63954.2,3337.1,2676.5,60617.1,660.6,""smooth"",""down"",""down"",""good_move"",69656.4,5701.8,2072.4,67060.4,523.6,""smooth"",""down"",""down"",""good_move"",72717.6,3060.9,2573,69656.7,487.9,""oops"",""right"",""right"",""good_move""]","",""
"4163","","<div style=""width:500px;"">
  <p>What determined the result of this run?</p>
  </div>","85","html-slider-response","55","787646","0.0-5.0-1.9","74","1","2025-07-16 08:33:37","1f75c3e559b7213887762d5229550c2b","105.216.70.10","Mozilla/5.0 (Windows NT 10.0; Win64; x64) AppleWebKit/537.36 (KHTML, like Gecko) Chrome/138.0.0.0 Safari/537.36","WebKit","Chrome","138.0.0.0","Windows","10.0","https://app.prolific.com/","en-ZA,en-GB;q=0.9,en-US;q=0.8,en;q=0.7","653a6a7224e6c0bfb644ff9b","68764874ac79eee8c1d4cb03","687763d3f875bc225c059e16","2","0","653a6a7224e6c0bfb644ff9b","2","0","2025-07-16T08:46:48.621Z","","","","","","","","","","","AttribQ","","50","","","","","","","","","","","","","","","","","","","","","","","","","","","","",""
"3822","","<div style=""width:500px;"">
  <p>How much control did you have over the ball?</p>
  </div>","35","html-slider-response","56","791478","0.0-5.0-2.9","74","1","2025-07-16 08:33:37","1f75c3e559b7213887762d5229550c2b","105.216.70.10","Mozilla/5.0 (Windows NT 10.0; Win64; x64) AppleWebKit/537.36 (KHTML, like Gecko) Chrome/138.0.0.0 Safari/537.36","WebKit","Chrome","138.0.0.0","Windows","10.0","https://app.prolific.com/","en-ZA,en-GB;q=0.9,en-US;q=0.8,en;q=0.7","653a6a7224e6c0bfb644ff9b","68764874ac79eee8c1d4cb03","687763d3f875bc225c059e16","2","0","653a6a7224e6c0bfb644ff9b","2","0","2025-07-16T08:46:52.453Z","","","","","","","","","","","ControlQ","","50","","","","","","","","","","","","","","","","","","","","","","","","","","","","",""
"2643","","<div style=""width:500px;"">
  <p>How would you describe your current emotional state?</p>
  </div>","86","html-slider-response","57","794129","0.0-5.0-3.9","74","1","2025-07-16 08:33:37","1f75c3e559b7213887762d5229550c2b","105.216.70.10","Mozilla/5.0 (Windows NT 10.0; Win64; x64) AppleWebKit/537.36 (KHTML, like Gecko) Chrome/138.0.0.0 Safari/537.36","WebKit","Chrome","138.0.0.0","Windows","10.0","https://app.prolific.com/","en-ZA,en-GB;q=0.9,en-US;q=0.8,en;q=0.7","653a6a7224e6c0bfb644ff9b","68764874ac79eee8c1d4cb03","687763d3f875bc225c059e16","2","0","653a6a7224e6c0bfb644ff9b","2","0","2025-07-16T08:46:55.104Z","","","","","","","","","","","StressQ","","50","","","","","","","","","","","","","","","","","","","","","","","","","","","","",""
"1748","","<div style=""width:500px;"">
  <p>What best describes how you currently feel?</p>
  </div>","82","html-slider-response","58","795884","0.0-5.0-4.9","74","1","2025-07-16 08:33:37","1f75c3e559b7213887762d5229550c2b","105.216.70.10","Mozilla/5.0 (Windows NT 10.0; Win64; x64) AppleWebKit/537.36 (KHTML, like Gecko) Chrome/138.0.0.0 Safari/537.36","WebKit","Chrome","138.0.0.0","Windows","10.0","https://app.prolific.com/","en-ZA,en-GB;q=0.9,en-US;q=0.8,en;q=0.7","653a6a7224e6c0bfb644ff9b","68764874ac79eee8c1d4cb03","687763d3f875bc225c059e16","2","0","653a6a7224e6c0bfb644ff9b","2","0","2025-07-16T08:46:56.860Z","","","","","","","","","","","MotivationQ","","50","","","","","","","","","","","","","","","","","","","","","","","","","","","","",""
"","","","","ctl-task-cpt","59","886651","0.0-5.0-0.10","74","1","2025-07-16 08:33:37","1f75c3e559b7213887762d5229550c2b","105.216.70.10","Mozilla/5.0 (Windows NT 10.0; Win64; x64) AppleWebKit/537.36 (KHTML, like Gecko) Chrome/138.0.0.0 Safari/537.36","WebKit","Chrome","138.0.0.0","Windows","10.0","https://app.prolific.com/","en-ZA,en-GB;q=0.9,en-US;q=0.8,en;q=0.7","653a6a7224e6c0bfb644ff9b","68764874ac79eee8c1d4cb03","687763d3f875bc225c059e16","2","0","653a6a7224e6c0bfb644ff9b","2","0","2025-07-16T08:48:27.626Z","","","","","","","","","","","","","","win-only","0","g1:NW,g2:SE","0.5","11","0","799264.6","1341","6369.6","87715.2","1","4","8","6","1","1","1","19","18","0.14393939393939395","5028.6","3000","2195","[""left"",""up""]","{""num_key_presses"":10,""num_perfect"":5,""num_errors"":0,""num_randdir"":5,""num_randdir_good_moves"":2,""num_whilered"":0,""num_whileblue"":0,""num_blue"":3,""num_good_moves"":7}","[297.22232142857143,293.12857142857143,0.3,297.22232142857143,293.12857142857143,101.8,297.22232142857143,293.12857142857143,220.9,305.22232142857143,280.12857142857143,341.3,305.22232142857143,280.12857142857143,462.3,305.22232142857143,280.12857142857143,580.4,305.22232142857143,280.12857142857143,696,305.22232142857143,280.12857142857143,815,305.22232142857143,280.12857142857143,934.9,305.22232142857143,280.12857142857143,1049.2,305.22232142857143,280.12857142857143,1163.1,305.22232142857143,280.12857142857143,1282.5,305.22232142857143,280.12857142857143,1397.2,305.22232142857143,280.12857142857143,1514.2,305.22232142857143,280.12857142857143,1629.9,305.22232142857143,280.12857142857143,1744.3,305.22232142857143,280.12857142857143,1868.7,305.22232142857143,280.12857142857143,1985.2,305.22232142857143,280.12857142857143,2099.8,305.22232142857143,280.12857142857143,2222.2,305.22232142857143,280.12857142857143,2338.7,305.22232142857143,280.12857142857143,2457.4,305.22232142857143,280.12857142857143,2572.7,305.22232142857143,280.12857142857143,2689.2,305.22232142857143,280.12857142857143,2808,305.22232142857143,280.12857142857143,2922.2,305.22232142857143,280.12857142857143,3037.9,305.22232142857143,280.12857142857143,3155.4,305.22232142857143,280.12857142857143,3274.9,305.22232142857143,280.12857142857143,3391.8,305.22232142857143,280.12857142857143,3511.2,305.22232142857143,280.12857142857143,3630.1,305.22232142857143,280.12857142857143,3747.1,305.22232142857143,280.12857142857143,3863.2,305.22232142857143,280.12857142857143,3977.2,305.22232142857143,280.12857142857143,4093.7,305.22232142857143,280.12857142857143,4210.2,305.22232142857143,280.12857142857143,4327.1,305.22232142857143,280.12857142857143,4444.5,305.22232142857143,280.12857142857143,4561,305.22232142857143,280.12857142857143,4677.5,305.22232142857143,280.12857142857143,4796,305.22232142857143,280.12857142857143,4912.6]","[6135.2,6135.2,3451.9,2055,628.4,""oops"",""left"",""right"",""bad_move"",9496.1,3360.3,2680,6135.8,680.3,""smooth"",""up"",""up"",""good_move"",20324.4,10828,1999.1,9496.5,8828.8,""oops"",""left"",""left"",""good_move"",31435.6,11110.6,3087.7,20325,8022.9,""oops"",""up"",""up"",""good_move"",42675.1,11239.2,3134.7,31435.9,8104.5,""smooth"",""left"",""left"",""good_move"",58676.3,16000.9,3532.8,42675.4,12468.1,""oops"",""left"",""right"",""bad_move"",61637,2960.4,2155.4,58676.6,805,""oops"",""left"",""right"",""bad_move"",67882.6,6243.7,2325.8,64936.1,620.7,""smooth"",""left"",""left"",""good_move"",78266.1,10383.2,2149.9,75680.4,435.8,""smooth"",""left"",""left"",""good_move"",81322.8,3055.9,2258.5,78266.9,797.4,""smooth"",""left"",""left"",""good_move""]","",""
"3689","","<div style=""width:500px;"">
  <p>What determined the result of this run?</p>
  </div>","81","html-slider-response","60","890343","0.0-5.0-1.10","74","1","2025-07-16 08:33:37","1f75c3e559b7213887762d5229550c2b","105.216.70.10","Mozilla/5.0 (Windows NT 10.0; Win64; x64) AppleWebKit/537.36 (KHTML, like Gecko) Chrome/138.0.0.0 Safari/537.36","WebKit","Chrome","138.0.0.0","Windows","10.0","https://app.prolific.com/","en-ZA,en-GB;q=0.9,en-US;q=0.8,en;q=0.7","653a6a7224e6c0bfb644ff9b","68764874ac79eee8c1d4cb03","687763d3f875bc225c059e16","2","0","653a6a7224e6c0bfb644ff9b","2","0","2025-07-16T08:48:31.318Z","","","","","","","","","","","AttribQ","","50","","","","","","","","","","","","","","","","","","","","","","","","","","","","",""
"5403","","<div style=""width:500px;"">
  <p>How much control did you have over the ball?</p>
  </div>","61","html-slider-response","61","895753","0.0-5.0-2.10","74","1","2025-07-16 08:33:37","1f75c3e559b7213887762d5229550c2b","105.216.70.10","Mozilla/5.0 (Windows NT 10.0; Win64; x64) AppleWebKit/537.36 (KHTML, like Gecko) Chrome/138.0.0.0 Safari/537.36","WebKit","Chrome","138.0.0.0","Windows","10.0","https://app.prolific.com/","en-ZA,en-GB;q=0.9,en-US;q=0.8,en;q=0.7","653a6a7224e6c0bfb644ff9b","68764874ac79eee8c1d4cb03","687763d3f875bc225c059e16","2","0","653a6a7224e6c0bfb644ff9b","2","0","2025-07-16T08:48:36.728Z","","","","","","","","","","","ControlQ","","50","","","","","","","","","","","","","","","","","","","","","","","","","","","","",""
"2004","","<div style=""width:500px;"">
  <p>How would you describe your current emotional state?</p>
  </div>","82","html-slider-response","62","897761","0.0-5.0-3.10","74","1","2025-07-16 08:33:37","1f75c3e559b7213887762d5229550c2b","105.216.70.10","Mozilla/5.0 (Windows NT 10.0; Win64; x64) AppleWebKit/537.36 (KHTML, like Gecko) Chrome/138.0.0.0 Safari/537.36","WebKit","Chrome","138.0.0.0","Windows","10.0","https://app.prolific.com/","en-ZA,en-GB;q=0.9,en-US;q=0.8,en;q=0.7","653a6a7224e6c0bfb644ff9b","68764874ac79eee8c1d4cb03","687763d3f875bc225c059e16","2","0","653a6a7224e6c0bfb644ff9b","2","0","2025-07-16T08:48:38.737Z","","","","","","","","","","","StressQ","","50","","","","","","","","","","","","","","","","","","","","","","","","","","","","",""
"2353","","<div style=""width:500px;"">
  <p>What best describes how you currently feel?</p>
  </div>","79","html-slider-response","63","900118","0.0-5.0-4.10","74","1","2025-07-16 08:33:37","1f75c3e559b7213887762d5229550c2b","105.216.70.10","Mozilla/5.0 (Windows NT 10.0; Win64; x64) AppleWebKit/537.36 (KHTML, like Gecko) Chrome/138.0.0.0 Safari/537.36","WebKit","Chrome","138.0.0.0","Windows","10.0","https://app.prolific.com/","en-ZA,en-GB;q=0.9,en-US;q=0.8,en;q=0.7","653a6a7224e6c0bfb644ff9b","68764874ac79eee8c1d4cb03","687763d3f875bc225c059e16","2","0","653a6a7224e6c0bfb644ff9b","2","0","2025-07-16T08:48:41.094Z","","","","","","","","","","","MotivationQ","","50","","","","","","","","","","","","","","","","","","","","","","","","","","","","",""
"","","","","ctl-task-cpt","64","932324","0.0-5.0-0.11","74","1","2025-07-16 08:33:37","1f75c3e559b7213887762d5229550c2b","105.216.70.10","Mozilla/5.0 (Windows NT 10.0; Win64; x64) AppleWebKit/537.36 (KHTML, like Gecko) Chrome/138.0.0.0 Safari/537.36","WebKit","Chrome","138.0.0.0","Windows","10.0","https://app.prolific.com/","en-ZA,en-GB;q=0.9,en-US;q=0.8,en;q=0.7","653a6a7224e6c0bfb644ff9b","68764874ac79eee8c1d4cb03","687763d3f875bc225c059e16","2","0","653a6a7224e6c0bfb644ff9b","2","0","2025-07-16T08:49:13.299Z","","","","","","","","","","","","","","win-only","2","g1:SE,g2:NW","0.6","12","0","903482.7","1501.6","6531.7","29138.5","1","4","4","6","1","1","1","20","19","0.15151515151515152","5030.1","3000","2520","[""down"",""right""]","{""num_key_presses"":6,""num_perfect"":3,""num_errors"":0,""num_randdir"":3,""num_randdir_good_moves"":2,""num_whilered"":0,""num_whileblue"":0,""num_blue"":0,""num_good_moves"":5}","[302.22232142857143,298.12857142857143,0.2,302.22232142857143,298.12857142857143,100.1,302.22232142857143,298.12857142857143,203,302.22232142857143,296.12857142857143,310.4,302.22232142857143,296.12857142857143,418.1,302.22232142857143,296.12857142857143,528,302.22232142857143,296.12857142857143,633,302.22232142857143,296.12857142857143,740.9,302.22232142857143,296.12857142857143,852.9,302.22232142857143,296.12857142857143,958.4,302.22232142857143,296.12857142857143,1061.8,302.22232142857143,296.12857142857143,1165.7,302.22232142857143,296.12857142857143,1275.8,302.22232142857143,296.12857142857143,1379.6,302.22232142857143,296.12857142857143,1483.2,302.22232142857143,296.12857142857143,1590.8,302.22232142857143,296.12857142857143,1694.3,302.22232142857143,296.12857142857143,1801.8,302.22232142857143,296.12857142857143,1907.6,302.22232142857143,296.12857142857143,2009.2,302.22232142857143,296.12857142857143,2118.1,302.22232142857143,296.12857142857143,2226.1,302.22232142857143,296.12857142857143,2332.5,302.22232142857143,296.12857142857143,2436.8,302.22232142857143,296.12857142857143,2543.6,302.22232142857143,296.12857142857143,2648,302.22232142857143,296.12857142857143,2757.3,302.22232142857143,296.12857142857143,2866.2,302.22232142857143,296.12857142857143,2972.3,302.22232142857143,296.12857142857143,3077.8,302.22232142857143,296.12857142857143,3193.4,302.22232142857143,296.12857142857143,3304,302.22232142857143,296.12857142857143,3422.2,302.22232142857143,296.12857142857143,3545.5,302.22232142857143,296.12857142857143,3655.4,302.22232142857143,296.12857142857143,3764.2,302.22232142857143,296.12857142857143,3874.5,302.22232142857143,296.12857142857143,3978.1,302.22232142857143,296.12857142857143,4090.1,302.22232142857143,296.12857142857143,4204,302.22232142857143,296.12857142857143,4308.6,302.22232142857143,296.12857142857143,4415,302.22232142857143,296.12857142857143,4521.9,302.22232142857143,296.12857142857143,4628.6,302.22232142857143,296.12857142857143,4736.8,302.22232142857143,296.12857142857143,4845.4,302.22232142857143,296.12857142857143,4957.8]","[1614.9,1614.9,1000,0,614.9,""oops"",""down"",""up"",""bad_move"",9623.8,8008.4,2623.1,1615.4,5385.3,""smooth"",""down"",""down"",""good_move"",12254.1,2629.6,2145.1,9624.5,484.5,""smooth"",""down"",""down"",""good_move"",15642.3,3385.9,2817.8,12256.4,568.1,""smooth"",""down"",""down"",""good_move"",18417.5,2774.9,2216.4,15642.7,558.5,""oops"",""right"",""right"",""good_move"",21166.6,2748.5,2243.4,18418.1,505.1,""oops"",""right"",""right"",""good_move""]","",""
"2919","","<div style=""width:500px;"">
  <p>What determined the result of this run?</p>
  </div>","69","html-slider-response","65","935249","0.0-5.0-1.11","74","1","2025-07-16 08:33:37","1f75c3e559b7213887762d5229550c2b","105.216.70.10","Mozilla/5.0 (Windows NT 10.0; Win64; x64) AppleWebKit/537.36 (KHTML, like Gecko) Chrome/138.0.0.0 Safari/537.36","WebKit","Chrome","138.0.0.0","Windows","10.0","https://app.prolific.com/","en-ZA,en-GB;q=0.9,en-US;q=0.8,en;q=0.7","653a6a7224e6c0bfb644ff9b","68764874ac79eee8c1d4cb03","687763d3f875bc225c059e16","2","0","653a6a7224e6c0bfb644ff9b","2","0","2025-07-16T08:49:16.224Z","","","","","","","","","","","AttribQ","","50","","","","","","","","","","","","","","","","","","","","","","","","","","","","",""
"2004","","<div style=""width:500px;"">
  <p>How much control did you have over the ball?</p>
  </div>","67","html-slider-response","66","937258","0.0-5.0-2.11","74","1","2025-07-16 08:33:37","1f75c3e559b7213887762d5229550c2b","105.216.70.10","Mozilla/5.0 (Windows NT 10.0; Win64; x64) AppleWebKit/537.36 (KHTML, like Gecko) Chrome/138.0.0.0 Safari/537.36","WebKit","Chrome","138.0.0.0","Windows","10.0","https://app.prolific.com/","en-ZA,en-GB;q=0.9,en-US;q=0.8,en;q=0.7","653a6a7224e6c0bfb644ff9b","68764874ac79eee8c1d4cb03","687763d3f875bc225c059e16","2","0","653a6a7224e6c0bfb644ff9b","2","0","2025-07-16T08:49:18.233Z","","","","","","","","","","","ControlQ","","50","","","","","","","","","","","","","","","","","","","","","","","","","","","","",""
"1976","","<div style=""width:500px;"">
  <p>How would you describe your current emotional state?</p>
  </div>","77","html-slider-response","67","939241","0.0-5.0-3.11","74","1","2025-07-16 08:33:37","1f75c3e559b7213887762d5229550c2b","105.216.70.10","Mozilla/5.0 (Windows NT 10.0; Win64; x64) AppleWebKit/537.36 (KHTML, like Gecko) Chrome/138.0.0.0 Safari/537.36","WebKit","Chrome","138.0.0.0","Windows","10.0","https://app.prolific.com/","en-ZA,en-GB;q=0.9,en-US;q=0.8,en;q=0.7","653a6a7224e6c0bfb644ff9b","68764874ac79eee8c1d4cb03","687763d3f875bc225c059e16","2","0","653a6a7224e6c0bfb644ff9b","2","0","2025-07-16T08:49:20.216Z","","","","","","","","","","","StressQ","","50","","","","","","","","","","","","","","","","","","","","","","","","","","","","",""
"3069","","<div style=""width:500px;"">
  <p>What best describes how you currently feel?</p>
  </div>","72","html-slider-response","68","942318","0.0-5.0-4.11","74","1","2025-07-16 08:33:37","1f75c3e559b7213887762d5229550c2b","105.216.70.10","Mozilla/5.0 (Windows NT 10.0; Win64; x64) AppleWebKit/537.36 (KHTML, like Gecko) Chrome/138.0.0.0 Safari/537.36","WebKit","Chrome","138.0.0.0","Windows","10.0","https://app.prolific.com/","en-ZA,en-GB;q=0.9,en-US;q=0.8,en;q=0.7","653a6a7224e6c0bfb644ff9b","68764874ac79eee8c1d4cb03","687763d3f875bc225c059e16","2","0","653a6a7224e6c0bfb644ff9b","2","0","2025-07-16T08:49:23.293Z","","","","","","","","","","","MotivationQ","","50","","","","","","","","","","","","","","","","","","","","","","","","","","","","",""
"","","","","ctl-task-cpt","69","983475","0.0-5.0-0.12","74","1","2025-07-16 08:33:37","1f75c3e559b7213887762d5229550c2b","105.216.70.10","Mozilla/5.0 (Windows NT 10.0; Win64; x64) AppleWebKit/537.36 (KHTML, like Gecko) Chrome/138.0.0.0 Safari/537.36","WebKit","Chrome","138.0.0.0","Windows","10.0","https://app.prolific.com/","en-ZA,en-GB;q=0.9,en-US;q=0.8,en;q=0.7","653a6a7224e6c0bfb644ff9b","68764874ac79eee8c1d4cb03","687763d3f875bc225c059e16","2","0","653a6a7224e6c0bfb644ff9b","2","0","2025-07-16T08:50:04.450Z","","","","","","","","","","","","","","win-only","3","g1:SW,g2:NE","0.7","13","0","945682.4","1226.2","6248.3","38074.1","1","4","8","6","1","1","1","21","20","0.1590909090909091","5022","3000","2560","[""down"",""left""]","{""num_key_presses"":4,""num_perfect"":2,""num_errors"":0,""num_randdir"":2,""num_randdir_good_moves"":2,""num_whilered"":0,""num_whileblue"":0,""num_blue"":0,""num_good_moves"":4}","[299.22232142857143,300.12857142857143,0.2,299.22232142857143,300.12857142857143,160.8,299.22232142857143,302.12857142857143,290.8,299.22232142857143,302.12857142857143,418,299.22232142857143,302.12857142857143,554.7,299.22232142857143,302.12857142857143,684.7,299.22232142857143,302.12857142857143,817.3,299.22232142857143,302.12857142857143,945.2,299.22232142857143,302.12857142857143,1071.3,299.22232142857143,302.12857142857143,1202.5,299.22232142857143,302.12857142857143,1329.9,299.22232142857143,302.12857142857143,1460.8,299.22232142857143,302.12857142857143,1590.8,299.22232142857143,302.12857142857143,1720.6,299.22232142857143,302.12857142857143,1850.7,299.22232142857143,302.12857142857143,1978.7,299.22232142857143,302.12857142857143,2111,299.22232142857143,302.12857142857143,2243.2,299.22232142857143,302.12857142857143,2372.8,299.22232142857143,302.12857142857143,2503.2,299.22232142857143,302.12857142857143,2635.8,299.22232142857143,302.12857142857143,2771.1,299.22232142857143,302.12857142857143,2906.1,299.22232142857143,302.12857142857143,3045.5,299.22232142857143,302.12857142857143,3172.2,299.22232142857143,302.12857142857143,3310.9,299.22232142857143,302.12857142857143,3439.9,299.22232142857143,302.12857142857143,3575.1,299.22232142857143,302.12857142857143,3706.7,299.22232142857143,302.12857142857143,3838.8,299.22232142857143,302.12857142857143,3975,299.22232142857143,302.12857142857143,4106.7,299.22232142857143,302.12857142857143,4244.4,299.22232142857143,302.12857142857143,4363.2,299.22232142857143,302.12857142857143,4496.5,299.22232142857143,302.12857142857143,4629,299.22232142857143,302.12857142857143,4760.3,299.22232142857143,302.12857142857143,4893.5]","[1540.7,1540.7,1000,0,540.7,""oops"",""down"",""left"",""good_move"",14033.3,12491.9,2823.4,1541.4,9668.5,""oops"",""down"",""left"",""good_move"",26715.3,12681.6,1994,14033.7,10687.6,""smooth"",""down"",""down"",""good_move"",29926.4,3210.3,2649.8,26716.1,560.5,""smooth"",""down"",""down"",""good_move""]","",""
"2338","","<div style=""width:500px;"">
  <p>What determined the result of this run?</p>
  </div>","79","html-slider-response","70","985820","0.0-5.0-1.12","74","1","2025-07-16 08:33:37","1f75c3e559b7213887762d5229550c2b","105.216.70.10","Mozilla/5.0 (Windows NT 10.0; Win64; x64) AppleWebKit/537.36 (KHTML, like Gecko) Chrome/138.0.0.0 Safari/537.36","WebKit","Chrome","138.0.0.0","Windows","10.0","https://app.prolific.com/","en-ZA,en-GB;q=0.9,en-US;q=0.8,en;q=0.7","653a6a7224e6c0bfb644ff9b","68764874ac79eee8c1d4cb03","687763d3f875bc225c059e16","2","0","653a6a7224e6c0bfb644ff9b","2","0","2025-07-16T08:50:06.795Z","","","","","","","","","","","AttribQ","","50","","","","","","","","","","","","","","","","","","","","","","","","","","","","",""
"2209","","<div style=""width:500px;"">
  <p>How much control did you have over the ball?</p>
  </div>","69","html-slider-response","71","988036","0.0-5.0-2.12","74","1","2025-07-16 08:33:37","1f75c3e559b7213887762d5229550c2b","105.216.70.10","Mozilla/5.0 (Windows NT 10.0; Win64; x64) AppleWebKit/537.36 (KHTML, like Gecko) Chrome/138.0.0.0 Safari/537.36","WebKit","Chrome","138.0.0.0","Windows","10.0","https://app.prolific.com/","en-ZA,en-GB;q=0.9,en-US;q=0.8,en;q=0.7","653a6a7224e6c0bfb644ff9b","68764874ac79eee8c1d4cb03","687763d3f875bc225c059e16","2","0","653a6a7224e6c0bfb644ff9b","2","0","2025-07-16T08:50:09.011Z","","","","","","","","","","","ControlQ","","50","","","","","","","","","","","","","","","","","","","","","","","","","","","","",""
"2867","","<div style=""width:500px;"">
  <p>How would you describe your current emotional state?</p>
  </div>","62","html-slider-response","72","990910","0.0-5.0-3.12","74","1","2025-07-16 08:33:37","1f75c3e559b7213887762d5229550c2b","105.216.70.10","Mozilla/5.0 (Windows NT 10.0; Win64; x64) AppleWebKit/537.36 (KHTML, like Gecko) Chrome/138.0.0.0 Safari/537.36","WebKit","Chrome","138.0.0.0","Windows","10.0","https://app.prolific.com/","en-ZA,en-GB;q=0.9,en-US;q=0.8,en;q=0.7","653a6a7224e6c0bfb644ff9b","68764874ac79eee8c1d4cb03","687763d3f875bc225c059e16","2","0","653a6a7224e6c0bfb644ff9b","2","0","2025-07-16T08:50:11.885Z","","","","","","","","","","","StressQ","","50","","","","","","","","","","","","","","","","","","","","","","","","","","","","",""
"1913","","<div style=""width:500px;"">
  <p>What best describes how you currently feel?</p>
  </div>","68","html-slider-response","73","992830","0.0-5.0-4.12","74","1","2025-07-16 08:33:37","1f75c3e559b7213887762d5229550c2b","105.216.70.10","Mozilla/5.0 (Windows NT 10.0; Win64; x64) AppleWebKit/537.36 (KHTML, like Gecko) Chrome/138.0.0.0 Safari/537.36","WebKit","Chrome","138.0.0.0","Windows","10.0","https://app.prolific.com/","en-ZA,en-GB;q=0.9,en-US;q=0.8,en;q=0.7","653a6a7224e6c0bfb644ff9b","68764874ac79eee8c1d4cb03","687763d3f875bc225c059e16","2","0","653a6a7224e6c0bfb644ff9b","2","0","2025-07-16T08:50:13.805Z","","","","","","","","","","","MotivationQ","","50","","","","","","","","","","","","","","","","","","","","","","","","","","","","",""
"","","","","ctl-task-cpt","74","1166045","0.0-5.0-0.13","74","1","2025-07-16 08:33:37","1f75c3e559b7213887762d5229550c2b","105.216.70.10","Mozilla/5.0 (Windows NT 10.0; Win64; x64) AppleWebKit/537.36 (KHTML, like Gecko) Chrome/138.0.0.0 Safari/537.36","WebKit","Chrome","138.0.0.0","Windows","10.0","https://app.prolific.com/","en-ZA,en-GB;q=0.9,en-US;q=0.8,en;q=0.7","653a6a7224e6c0bfb644ff9b","68764874ac79eee8c1d4cb03","687763d3f875bc225c059e16","2","0","653a6a7224e6c0bfb644ff9b","2","0","2025-07-16T08:53:07.020Z","","","","","","","","","","","","","","win-only","2","g1:SE,g2:NW","0.8","14","0","996195.3","1827.1","6880.1","170193.5","1","4","4","6","2","4","4","25","21","0.1893939393939394","5053","3000","2605","[""left"",""up""]","{""num_key_presses"":10,""num_perfect"":8,""num_errors"":0,""num_randdir"":2,""num_randdir_good_moves"":0,""num_whilered"":0,""num_whileblue"":0,""num_blue"":1,""num_good_moves"":8}","[295.22232142857143,297.12857142857143,0.2,295.22232142857143,297.12857142857143,150.5,304.22232142857143,302.12857142857143,311.5,304.22232142857143,302.12857142857143,471.5,304.22232142857143,302.12857142857143,633.7,304.22232142857143,302.12857142857143,793.8,304.22232142857143,302.12857142857143,945.5,304.22232142857143,302.12857142857143,1106,304.22232142857143,302.12857142857143,1265.6,304.22232142857143,302.12857142857143,1421.6,304.22232142857143,302.12857142857143,1578.1,304.22232142857143,302.12857142857143,1736.4,304.22232142857143,302.12857142857143,1891.5,304.22232142857143,302.12857142857143,2047.9,304.22232142857143,302.12857142857143,2213.4,304.22232142857143,302.12857142857143,2368.4,304.22232142857143,302.12857142857143,2525.5,304.22232142857143,302.12857142857143,2681.8,304.22232142857143,302.12857142857143,2833.8,304.22232142857143,302.12857142857143,2985.9,304.22232142857143,302.12857142857143,3147,304.22232142857143,302.12857142857143,3304.9,304.22232142857143,302.12857142857143,3463.4,304.22232142857143,302.12857142857143,3621.4,304.22232142857143,302.12857142857143,3783.5,304.22232142857143,302.12857142857143,3944.9,304.22232142857143,302.12857142857143,4105.7,304.22232142857143,302.12857142857143,4264.4,304.22232142857143,302.12857142857143,4420.9,304.22232142857143,302.12857142857143,4578.7,304.22232142857143,302.12857142857143,4738.2,304.22232142857143,302.12857142857143,4896.6]","[4868.8,4868.8,2199.9,2065.1,603.8,""oops"",""left"",""right"",""bad_move"",8732.4,3863.1,3179.9,4869.3,683.2,""smooth"",""up"",""up"",""good_move"",27239.5,18506.5,2505.9,8733,16000.6,""smooth"",""left"",""left"",""good_move"",48484.2,21244.3,2332.1,27239.9,18912.2,""smooth"",""up"",""up"",""good_move"",70056.5,21572.2,2777.2,48484.4,18795,""smooth"",""left"",""left"",""good_move"",92202,22145,2822.5,70057,19322.6,""smooth"",""left"",""left"",""good_move"",114757.3,22554.3,2489,92203,20065.3,""smooth"",""up"",""up"",""good_move"",137603.2,22845.6,2485.4,114757.6,20360.2,""oops"",""left"",""down"",""bad_move"",140317.8,2714.1,2141.3,137603.7,572.8,""smooth"",""left"",""left"",""good_move"",163273.3,22954.9,1708,140318.4,21246.9,""smooth"",""up"",""up"",""good_move""]","",""
"4293","","<div style=""width:500px;"">
  <p>What determined the result of this run?</p>
