"rt","response_timestamp","stimulus","response","trial_type","trial_index","time_elapsed","internal_node_id","run_id","condition","recorded_at","source_code_version","ip","user_agent","device","browser","browser_version","platform","platform_version","referer","accept_language","PROLIFIC_PID","STUDY_ID","SESSION_ID","WEEK","prolific_id","week","realtime","success","responses","item_order","radio_event_ids","radio_event_times","key_event_times","mouse_event_times","straightlining","zigzagging","honeypot","eventType","view_history","slider_start","which_type","canvas_config","goals_layout","control_level","trial_number","tutorial_trial_number","trial_start_time","phase1_start_time","phase2_start_time","phase3_start_time","goal_1_value","goal_1_distance","goal_2_value","goal_2_distance","goal_selected","outcome","outcome_total","participant_final_score","participant_initial_score","participant_final_score_prop","goal_choice_rt","allocated_time","allocated_time_remaining","goal_direction","counts","mouse_movements","key_presses","question_order","question_id"
"2723","1752504207466","<p style='font-size:40px;line-height:1.25'><strong>Welcome to the experiment!</strong></p><p style='font-size:1.1em;line-height:1.25'>Thank you for participanting in our experiment again! You will be asked to play the Dysfunctional Ball Game again. We will briefly recap the rules before we start.</p><p style='font-size:1.1em;line-height:1.25'>Press <strong>Next</strong> to continue.</p>","0","custom-html-button-response","0","2725","0.0-0.0","35","1","2025-07-14 14:43:23","01610cd0009c79a99da7d0a3353eb402","89.154.153.225","Mozilla/5.0 (Macintosh; Intel Mac OS X 10_15_7) AppleWebKit/537.36 (KHTML, like Gecko) Chrome/138.0.0.0 Safari/537.36","Macintosh","Chrome","138.0.0.0","OS X","10_15_7","https://app.prolific.com/","pt-PT,pt;q=0.9,en-US;q=0.8,en;q=0.7,ca;q=0.6,fr;q=0.5,de;q=0.4","66db15814e7818d8b9593ad5","683db7602f5db6a34d12d064","6875173b5c9869b127479887","1","66db15814e7818d8b9593ad5","1","2025-07-14T14:43:27.467Z","","","","","","","","","","","","","","","","","","","","","","","","","","","","","","","","","","","","","","","","","",""
"10540","","","","fullscreen","1","14269","0.0-1.0","35","1","2025-07-14 14:43:23","01610cd0009c79a99da7d0a3353eb402","89.154.153.225","Mozilla/5.0 (Macintosh; Intel Mac OS X 10_15_7) AppleWebKit/537.36 (KHTML, like Gecko) Chrome/138.0.0.0 Safari/537.36","Macintosh","Chrome","138.0.0.0","OS X","10_15_7","https://app.prolific.com/","pt-PT,pt;q=0.9,en-US;q=0.8,en;q=0.7,ca;q=0.6,fr;q=0.5,de;q=0.4","66db15814e7818d8b9593ad5","683db7602f5db6a34d12d064","6875173b5c9869b127479887","1","66db15814e7818d8b9593ad5","1","","true","","","","","","","","","","","","","","","","","","","","","","","","","","","","","","","","","","","","","","","","",""
"2761","1752504221775","<p style='font-size:1.1em;line-height:1.25'>In the following, we will ask you a few questions relating to your feelings in the last 24 hours.<br></p><p style='font-size:1.1em;line-height:1.25'>Press the <strong>Next</strong> button to continue.</p>","0","custom-html-button-response","2","17033","0.0-2.0-0.0","35","1","2025-07-14 14:43:23","01610cd0009c79a99da7d0a3353eb402","89.154.153.225","Mozilla/5.0 (Macintosh; Intel Mac OS X 10_15_7) AppleWebKit/537.36 (KHTML, like Gecko) Chrome/138.0.0.0 Safari/537.36","Macintosh","Chrome","138.0.0.0","OS X","10_15_7","https://app.prolific.com/","pt-PT,pt;q=0.9,en-US;q=0.8,en;q=0.7,ca;q=0.6,fr;q=0.5,de;q=0.4","66db15814e7818d8b9593ad5","683db7602f5db6a34d12d064","6875173b5c9869b127479887","1","66db15814e7818d8b9593ad5","1","2025-07-14T14:43:41.775Z","","","","","","","","","","","","","","","","","","","","","","","","","","","","","","","","","","","","","","","","","",""
"69276.79999999981","","","","survey-template","3","86315","0.0-2.0-1.0","35","1","2025-07-14 14:43:23","01610cd0009c79a99da7d0a3353eb402","89.154.153.225","Mozilla/5.0 (Macintosh; Intel Mac OS X 10_15_7) AppleWebKit/537.36 (KHTML, like Gecko) Chrome/138.0.0.0 Safari/537.36","Macintosh","Chrome","138.0.0.0","OS X","10_15_7","https://app.prolific.com/","pt-PT,pt;q=0.9,en-US;q=0.8,en;q=0.7,ca;q=0.6,fr;q=0.5,de;q=0.4","66db15814e7818d8b9593ad5","683db7602f5db6a34d12d064","6875173b5c9869b127479887","1","66db15814e7818d8b9593ad5","1","2025-07-14T14:44:51.057Z","","{""Q01"":""3"",""Q02"":""2"",""Q03"":""1"",""Q04"":""1"",""Q05"":""0"",""Q06"":""2"",""Q07"":""1"",""Q08"":""0"",""Q09"":""1"",""Q10"":""1"",""Q11"":""4"",""Q12"":""0"",""Q13"":""5"",""Q14"":""0"",""Q15"":""0"",""Q16"":""0"",""Q17"":""0"",""Q18"":""1"",""Q19"":""3"",""Q20"":""2"",""Q21"":""2"",""Q22"":""1""}","[0,1,2,3,4,5,6,7,8,9,10,11,12,13,14,15,16,17,18,19,20,21]","[""Q01"",""Q02"",""Q03"",""Q04"",""Q05"",""Q06"",""Q07"",""Q08"",""Q09"",""Q10"",""Q11"",""Q12"",""Q13"",""Q14"",""Q15"",""Q16"",""Q17"",""Q18"",""Q19"",""Q20"",""Q21"",""Q22"",""Q22""]","[4602.299999999814,8508.599999999627,10886.399999999441,12726.799999999814,13787.299999999814,17807.199999999255,19580.599999999627,21027.099999999627,25231.299999999814,25903.299999999814,27374.699999999255,30645.39999999944,31660.099999999627,42905.699999999255,43739.199999999255,45588.299999999814,50838.799999999814,52303.59999999963,56914.39999999944,60595.59999999963,64087,66474.5,67694.79999999981]","[]","[0.19999999925494194,4602.299999999814,8508.599999999627,10886.399999999441,12726.799999999814,13787.299999999814,17807.199999999255,19580.599999999627,21027.099999999627,25231.299999999814,25903.299999999814,27374.699999999255,29811.199999999255,30645.39999999944,31660.099999999627,38797.59999999963,41863.39999999944,42905.699999999255,43739.199999999255,45588.299999999814,50838.799999999814,52303.59999999963,56145.39999999944,56914.39999999944,60595.59999999963,64087,66474.5,67694.79999999981,69270.79999999981]","0.3181818181818182","0.5238095238095238","0","drsp","","","","","","","","","","","","","","","","","","","","","","","","","","","","","","",""
"13845.700000000186","","","","survey-template","4","100162","0.0-2.0-2.0","35","1","2025-07-14 14:43:23","01610cd0009c79a99da7d0a3353eb402","89.154.153.225","Mozilla/5.0 (Macintosh; Intel Mac OS X 10_15_7) AppleWebKit/537.36 (KHTML, like Gecko) Chrome/138.0.0.0 Safari/537.36","Macintosh","Chrome","138.0.0.0","OS X","10_15_7","https://app.prolific.com/","pt-PT,pt;q=0.9,en-US;q=0.8,en;q=0.7,ca;q=0.6,fr;q=0.5,de;q=0.4","66db15814e7818d8b9593ad5","683db7602f5db6a34d12d064","6875173b5c9869b127479887","1","66db15814e7818d8b9593ad5","1","2025-07-14T14:45:04.905Z","","{""Q01"":""2"",""Q02"":""2"",""Q03"":""1""}","[0,1,2]","[""Q01"",""Q02"",""Q03""]","[4325.4000000003725,9024.600000000559,12845.800000000745]","[]","[4325.4000000003725,9024.600000000559,12845.800000000745,13844.200000000186]","0.3333333333333333","0.5","0","stress","","","","","","","","","","","","","","","","","","","","","","","","","","","","","","",""
"23897","","","","instructions","5","124061","0.0-3.0-0.0","35","1","2025-07-14 14:43:23","01610cd0009c79a99da7d0a3353eb402","89.154.153.225","Mozilla/5.0 (Macintosh; Intel Mac OS X 10_15_7) AppleWebKit/537.36 (KHTML, like Gecko) Chrome/138.0.0.0 Safari/537.36","Macintosh","Chrome","138.0.0.0","OS X","10_15_7","https://app.prolific.com/","pt-PT,pt;q=0.9,en-US;q=0.8,en;q=0.7,ca;q=0.6,fr;q=0.5,de;q=0.4","66db15814e7818d8b9593ad5","683db7602f5db6a34d12d064","6875173b5c9869b127479887","1","66db15814e7818d8b9593ad5","1","","","","","","","","","","","","","[{""page_index"":0,""viewing_time"":23897}]","","","","","","","","","","","","","","","","","","","","","","","","","","","","","",""
"6165","","<p>Before you start with this game please answer the following three questions yourself. </p>
  <p>Through this game, we measure several aspects of your cognitive performance, such as reaction times, multi-tasking capabilities </p>
  <p>and the ability to assess the situation you are in.</p>
  <p></p>
  <p><b>How good do you usually are in such tasks?</b></p>","55","html-slider-response","6","130228","0.0-4.0-0.0","35","1","2025-07-14 14:43:23","01610cd0009c79a99da7d0a3353eb402","89.154.153.225","Mozilla/5.0 (Macintosh; Intel Mac OS X 10_15_7) AppleWebKit/537.36 (KHTML, like Gecko) Chrome/138.0.0.0 Safari/537.36","Macintosh","Chrome","138.0.0.0","OS X","10_15_7","https://app.prolific.com/","pt-PT,pt;q=0.9,en-US;q=0.8,en;q=0.7,ca;q=0.6,fr;q=0.5,de;q=0.4","66db15814e7818d8b9593ad5","683db7602f5db6a34d12d064","6875173b5c9869b127479887","1","66db15814e7818d8b9593ad5","1","2025-07-14T14:45:34.971Z","","","","","","","","","","","PreSkillQ","","50","","","","","","","","","","","","","","","","","","","","","","","","","","","","",""
"3711","","<div style=""width:500px;"">
  <p>How well do you think you will perform in this task compared to other participants?</p>
  </div>","43","html-slider-response","7","133941","0.0-4.0-1.0","35","1","2025-07-14 14:43:23","01610cd0009c79a99da7d0a3353eb402","89.154.153.225","Mozilla/5.0 (Macintosh; Intel Mac OS X 10_15_7) AppleWebKit/537.36 (KHTML, like Gecko) Chrome/138.0.0.0 Safari/537.36","Macintosh","Chrome","138.0.0.0","OS X","10_15_7","https://app.prolific.com/","pt-PT,pt;q=0.9,en-US;q=0.8,en;q=0.7,ca;q=0.6,fr;q=0.5,de;q=0.4","66db15814e7818d8b9593ad5","683db7602f5db6a34d12d064","6875173b5c9869b127479887","1","66db15814e7818d8b9593ad5","1","2025-07-14T14:45:38.683Z","","","","","","","","","","","PrePerfQ","","50","","","","","","","","","","","","","","","","","","","","","","","","","","","","",""
"3866","","<div style=""width:500px;"">
  <p>What best describes how you currently feel?</p>
  </div>","32","html-slider-response","8","137810","0.0-4.0-2.0","35","1","2025-07-14 14:43:23","01610cd0009c79a99da7d0a3353eb402","89.154.153.225","Mozilla/5.0 (Macintosh; Intel Mac OS X 10_15_7) AppleWebKit/537.36 (KHTML, like Gecko) Chrome/138.0.0.0 Safari/537.36","Macintosh","Chrome","138.0.0.0","OS X","10_15_7","https://app.prolific.com/","pt-PT,pt;q=0.9,en-US;q=0.8,en;q=0.7,ca;q=0.6,fr;q=0.5,de;q=0.4","66db15814e7818d8b9593ad5","683db7602f5db6a34d12d064","6875173b5c9869b127479887","1","66db15814e7818d8b9593ad5","1","2025-07-14T14:45:42.552Z","","","","","","","","","","","PreMotivationQ","","50","","","","","","","","","","","","","","","","","","","","","","","","","","","","",""
"","","","","ctl-task-cpt","9","158100","0.0-5.0-0.0","35","1","2025-07-14 14:43:23","01610cd0009c79a99da7d0a3353eb402","89.154.153.225","Mozilla/5.0 (Macintosh; Intel Mac OS X 10_15_7) AppleWebKit/537.36 (KHTML, like Gecko) Chrome/138.0.0.0 Safari/537.36","Macintosh","Chrome","138.0.0.0","OS X","10_15_7","https://app.prolific.com/","pt-PT,pt;q=0.9,en-US;q=0.8,en;q=0.7,ca;q=0.6,fr;q=0.5,de;q=0.4","66db15814e7818d8b9593ad5","683db7602f5db6a34d12d064","6875173b5c9869b127479887","1","66db15814e7818d8b9593ad5","1","2025-07-14T14:46:02.842Z","","","","","","","","","","","","","","win-only","3","g1:SW,g2:NE","1","1","0","139508.7","3609.8","8611.1","17282.6","1","4","4","6","2","-4","-4","0","0","0","1597.2","3000","-3005","[""up"",""right""]","{""num_key_presses"":2,""num_perfect"":2,""num_errors"":0,""num_randdir"":0,""num_randdir_good_moves"":0,""num_whilered"":0,""num_whileblue"":0,""num_blue"":0,""num_good_moves"":2}","[735,733.796875,0.4,735,733.796875,101.4,735,733.796875,201.6,735,733.796875,305.3,735,733.796875,405.6,735,733.796875,505.9,735,733.796875,611.8,663,839.796875,716,619,891.796875,816.1,1127,187.796875,921.9,1451,-178.203125,1026.8,1451,-178.203125,1130.5,1449,-50.203125,1236.7,1367,105.796875,1340.8,1367,109.796875,1440.8,1367,109.796875,1541.2,1367,109.796875,1641.7,1367,109.796875,1746.5,1367,109.796875,1846.7,1367,109.796875,1951.7,1367,109.796875,2052.1,1367,109.796875,2155.8,1367,109.796875,2255.8,1367,109.796875,2361.5,1367,109.796875,2461.6,1367,109.796875,2561.7,1367,109.796875,2665.6,1367,109.796875,2765.7,1367,109.796875,2865.7,1367,109.796875,2966.4,1367,109.796875,3071.7,1367,109.796875,3176,1367,109.796875,3276.8,1367,109.796875,3380.4,1367,109.796875,3480.5,1367,109.796875,3586.5,1367,109.796875,3691.2,1273,451.796875,3791.6,1227,667.796875,3895.8,1211,711.796875,3996.1,1211,711.796875,4101.4,1211,711.796875,4205.5,1211,711.796875,4305.6,1211,711.796875,4405.9,1211,711.796875,4511.6,1211,711.796875,4616.3,1211,711.796875,4721.9,1211,711.796875,4826.8,1211,711.796875,4930.5]","[3583.3,3583.2,1000,0.2,2583.1,""smooth"",""up"",""up"",""good_move"",6315.9,2732,2321.7,3584,410.2,""smooth"",""right"",""right"",""good_move""]","",""
"4689","","<div style=""width:500px;"">
  <p>What determined the result of this run?</p>
  </div>","65","html-slider-response","10","162791","0.0-5.0-1.0","35","1","2025-07-14 14:43:23","01610cd0009c79a99da7d0a3353eb402","89.154.153.225","Mozilla/5.0 (Macintosh; Intel Mac OS X 10_15_7) AppleWebKit/537.36 (KHTML, like Gecko) Chrome/138.0.0.0 Safari/537.36","Macintosh","Chrome","138.0.0.0","OS X","10_15_7","https://app.prolific.com/","pt-PT,pt;q=0.9,en-US;q=0.8,en;q=0.7,ca;q=0.6,fr;q=0.5,de;q=0.4","66db15814e7818d8b9593ad5","683db7602f5db6a34d12d064","6875173b5c9869b127479887","1","66db15814e7818d8b9593ad5","1","2025-07-14T14:46:07.533Z","","","","","","","","","","","AttribQ","","50","","","","","","","","","","","","","","","","","","","","","","","","","","","","",""
"4694","","<div style=""width:500px;"">
  <p>How much control did you have over the ball?</p>
  </div>","73","html-slider-response","11","167486","0.0-5.0-2.0","35","1","2025-07-14 14:43:23","01610cd0009c79a99da7d0a3353eb402","89.154.153.225","Mozilla/5.0 (Macintosh; Intel Mac OS X 10_15_7) AppleWebKit/537.36 (KHTML, like Gecko) Chrome/138.0.0.0 Safari/537.36","Macintosh","Chrome","138.0.0.0","OS X","10_15_7","https://app.prolific.com/","pt-PT,pt;q=0.9,en-US;q=0.8,en;q=0.7,ca;q=0.6,fr;q=0.5,de;q=0.4","66db15814e7818d8b9593ad5","683db7602f5db6a34d12d064","6875173b5c9869b127479887","1","66db15814e7818d8b9593ad5","1","2025-07-14T14:46:12.228Z","","","","","","","","","","","ControlQ","","50","","","","","","","","","","","","","","","","","","","","","","","","","","","","",""
"5335","","<div style=""width:500px;"">
  <p>How would you describe your current emotional state?</p>
  </div>","46","html-slider-response","12","172822","0.0-5.0-3.0","35","1","2025-07-14 14:43:23","01610cd0009c79a99da7d0a3353eb402","89.154.153.225","Mozilla/5.0 (Macintosh; Intel Mac OS X 10_15_7) AppleWebKit/537.36 (KHTML, like Gecko) Chrome/138.0.0.0 Safari/537.36","Macintosh","Chrome","138.0.0.0","OS X","10_15_7","https://app.prolific.com/","pt-PT,pt;q=0.9,en-US;q=0.8,en;q=0.7,ca;q=0.6,fr;q=0.5,de;q=0.4","66db15814e7818d8b9593ad5","683db7602f5db6a34d12d064","6875173b5c9869b127479887","1","66db15814e7818d8b9593ad5","1","2025-07-14T14:46:17.565Z","","","","","","","","","","","StressQ","","50","","","","","","","","","","","","","","","","","","","","","","","","","","","","",""
"9320","","<div style=""width:500px;"">
  <p>What best describes how you currently feel?</p>
  </div>","42","html-slider-response","13","182144","0.0-5.0-4.0","35","1","2025-07-14 14:43:23","01610cd0009c79a99da7d0a3353eb402","89.154.153.225","Mozilla/5.0 (Macintosh; Intel Mac OS X 10_15_7) AppleWebKit/537.36 (KHTML, like Gecko) Chrome/138.0.0.0 Safari/537.36","Macintosh","Chrome","138.0.0.0","OS X","10_15_7","https://app.prolific.com/","pt-PT,pt;q=0.9,en-US;q=0.8,en;q=0.7,ca;q=0.6,fr;q=0.5,de;q=0.4","66db15814e7818d8b9593ad5","683db7602f5db6a34d12d064","6875173b5c9869b127479887","1","66db15814e7818d8b9593ad5","1","2025-07-14T14:46:26.886Z","","","","","","","","","","","MotivationQ","","50","","","","","","","","","","","","","","","","","","","","","","","","","","","","",""
"","","","","ctl-task-cpt","14","201475","0.0-5.0-0.1","35","1","2025-07-14 14:43:23","01610cd0009c79a99da7d0a3353eb402","89.154.153.225","Mozilla/5.0 (Macintosh; Intel Mac OS X 10_15_7) AppleWebKit/537.36 (KHTML, like Gecko) Chrome/138.0.0.0 Safari/537.36","Macintosh","Chrome","138.0.0.0","OS X","10_15_7","https://app.prolific.com/","pt-PT,pt;q=0.9,en-US;q=0.8,en;q=0.7,ca;q=0.6,fr;q=0.5,de;q=0.4","66db15814e7818d8b9593ad5","683db7602f5db6a34d12d064","6875173b5c9869b127479887","1","66db15814e7818d8b9593ad5","1","2025-07-14T14:46:46.217Z","","","","","","","","","","","","","","win-only","3","g1:SW,g2:NE","0.9","2","0","183841.9","1859.1","6861.6","16321.4","1","4","8","6","1","1","1","1","0","0.007575757575757576","1421.8","3000","1740","[""down"",""left""]","{""num_key_presses"":4,""num_perfect"":4,""num_errors"":0,""num_randdir"":0,""num_randdir_good_moves"":0,""num_whilered"":0,""num_whileblue"":0,""num_blue"":0,""num_good_moves"":4}","[725,723.796875,0.2,725,723.796875,101.7,725,723.796875,201.9,725,723.796875,302.3,725,723.796875,407.2,725,723.796875,511.5,725,723.796875,616.4,725,723.796875,717.3,725,723.796875,821.8,379,1121.796875,927.2,229,1285.796875,1031.3,191,1315.796875,1131.3,167,1321.796875,1233.1,167,1321.796875,1337.5,167,1321.796875,1437.6,167,1321.796875,1542.3,167,1321.796875,1646.6,209,1303.796875,1746.6,531,1199.796875,1852.4,607,1207.796875,1957.2,611,1207.796875,2063.8,611,1207.796875,2167.1,611,1207.796875,2267.5,611,1207.796875,2371.7,611,1207.796875,2472.3,611,1207.796875,2576.8,611,1207.796875,2681.2,611,1207.796875,2787.1,611,1207.796875,2892,611,1207.796875,2997.3,611,1207.796875,3102.3,611,1207.796875,3206.2,611,1207.796875,3306.3,611,1207.796875,3411.7,611,1207.796875,3511.8,611,1207.796875,3617.4,611,1207.796875,3721.5,611,1207.796875,3822,611,1207.796875,3927.2,611,1207.796875,4031.1,611,1207.796875,4131.1,611,1207.796875,4231.1,611,1207.796875,4331.3,611,1207.796875,4436.4,611,1207.796875,4536.9,611,1207.796875,4641.9,611,1207.796875,4742.1,611,1207.796875,4842.4,611,1207.796875,4947.1]","[1320,1320,1000,0.1,319.9,""smooth"",""down"",""down"",""good_move"",3768.7,2448.2,2142.7,1320.6,305.4,""smooth"",""left"",""left"",""good_move"",6897.6,3128.5,2769,3769.1,359.5,""smooth"",""left"",""left"",""good_move"",9369.9,2472.2,2180,6897.8,292.2,""smooth"",""down"",""down"",""good_move""]","",""
"3174","","<div style=""width:500px;"">
  <p>What determined the result of this run?</p>
  </div>","77","html-slider-response","15","204651","0.0-5.0-1.1","35","1","2025-07-14 14:43:23","01610cd0009c79a99da7d0a3353eb402","89.154.153.225","Mozilla/5.0 (Macintosh; Intel Mac OS X 10_15_7) AppleWebKit/537.36 (KHTML, like Gecko) Chrome/138.0.0.0 Safari/537.36","Macintosh","Chrome","138.0.0.0","OS X","10_15_7","https://app.prolific.com/","pt-PT,pt;q=0.9,en-US;q=0.8,en;q=0.7,ca;q=0.6,fr;q=0.5,de;q=0.4","66db15814e7818d8b9593ad5","683db7602f5db6a34d12d064","6875173b5c9869b127479887","1","66db15814e7818d8b9593ad5","1","2025-07-14T14:46:49.393Z","","","","","","","","","","","AttribQ","","50","","","","","","","","","","","","","","","","","","","","","","","","","","","","",""
"2959","","<div style=""width:500px;"">
  <p>How much control did you have over the ball?</p>
  </div>","77","html-slider-response","16","207611","0.0-5.0-2.1","35","1","2025-07-14 14:43:23","01610cd0009c79a99da7d0a3353eb402","89.154.153.225","Mozilla/5.0 (Macintosh; Intel Mac OS X 10_15_7) AppleWebKit/537.36 (KHTML, like Gecko) Chrome/138.0.0.0 Safari/537.36","Macintosh","Chrome","138.0.0.0","OS X","10_15_7","https://app.prolific.com/","pt-PT,pt;q=0.9,en-US;q=0.8,en;q=0.7,ca;q=0.6,fr;q=0.5,de;q=0.4","66db15814e7818d8b9593ad5","683db7602f5db6a34d12d064","6875173b5c9869b127479887","1","66db15814e7818d8b9593ad5","1","2025-07-14T14:46:52.353Z","","","","","","","","","","","ControlQ","","50","","","","","","","","","","","","","","","","","","","","","","","","","","","","",""
"3883","","<div style=""width:500px;"">
  <p>How would you describe your current emotional state?</p>
  </div>","45","html-slider-response","17","211496","0.0-5.0-3.1","35","1","2025-07-14 14:43:23","01610cd0009c79a99da7d0a3353eb402","89.154.153.225","Mozilla/5.0 (Macintosh; Intel Mac OS X 10_15_7) AppleWebKit/537.36 (KHTML, like Gecko) Chrome/138.0.0.0 Safari/537.36","Macintosh","Chrome","138.0.0.0","OS X","10_15_7","https://app.prolific.com/","pt-PT,pt;q=0.9,en-US;q=0.8,en;q=0.7,ca;q=0.6,fr;q=0.5,de;q=0.4","66db15814e7818d8b9593ad5","683db7602f5db6a34d12d064","6875173b5c9869b127479887","1","66db15814e7818d8b9593ad5","1","2025-07-14T14:46:56.238Z","","","","","","","","","","","StressQ","","50","","","","","","","","","","","","","","","","","","","","","","","","","","","","",""
"2306","","<div style=""width:500px;"">
  <p>What best describes how you currently feel?</p>
  </div>","36","html-slider-response","18","213804","0.0-5.0-4.1","35","1","2025-07-14 14:43:23","01610cd0009c79a99da7d0a3353eb402","89.154.153.225","Mozilla/5.0 (Macintosh; Intel Mac OS X 10_15_7) AppleWebKit/537.36 (KHTML, like Gecko) Chrome/138.0.0.0 Safari/537.36","Macintosh","Chrome","138.0.0.0","OS X","10_15_7","https://app.prolific.com/","pt-PT,pt;q=0.9,en-US;q=0.8,en;q=0.7,ca;q=0.6,fr;q=0.5,de;q=0.4","66db15814e7818d8b9593ad5","683db7602f5db6a34d12d064","6875173b5c9869b127479887","1","66db15814e7818d8b9593ad5","1","2025-07-14T14:46:58.546Z","","","","","","","","","","","MotivationQ","","50","","","","","","","","","","","","","","","","","","","","","","","","","","","","",""
"","","","","ctl-task-cpt","19","247274","0.0-5.0-0.2","35","1","2025-07-14 14:43:23","01610cd0009c79a99da7d0a3353eb402","89.154.153.225","Mozilla/5.0 (Macintosh; Intel Mac OS X 10_15_7) AppleWebKit/537.36 (KHTML, like Gecko) Chrome/138.0.0.0 Safari/537.36","Macintosh","Chrome","138.0.0.0","OS X","10_15_7","https://app.prolific.com/","pt-PT,pt;q=0.9,en-US;q=0.8,en;q=0.7,ca;q=0.6,fr;q=0.5,de;q=0.4","66db15814e7818d8b9593ad5","683db7602f5db6a34d12d064","6875173b5c9869b127479887","1","66db15814e7818d8b9593ad5","1","2025-07-14T14:47:32.016Z","","","","","","","","","","","","","","win-only","0","g1:NW,g2:SE","0.8","3","0","215502.3","1195.6","6197.9","30461","1","4","4","6","2","4","3","4","1","0.030303030303030304","1358.2","3000","685","[""down"",""right""]","{""num_key_presses"":8,""num_perfect"":5,""num_errors"":1,""num_randdir"":2,""num_randdir_good_moves"":2,""num_whilered"":0,""num_whileblue"":1,""num_blue"":2,""num_good_moves"":7}","[745,727.796875,0.1,745,727.796875,100.8,745,727.796875,205.5,745,727.796875,307,745,727.796875,409.9,745,727.796875,509.9,745,727.796875,610.2,745,727.796875,710.6,745,727.796875,815.6,1259,1103.796875,920.7,1375,1243.796875,1020.9,1329,1263.796875,1124.8,1335,1285.796875,1225.6,1335,1285.796875,1327,1335,1285.796875,1429.7,1335,1285.796875,1530.7,1429,1117.796875,1630.8,1677,759.796875,1735.9,1675,757.796875,1842.5,1675,757.796875,1944.9,1675,757.796875,2045.1,1675,757.796875,2145.8,1675,757.796875,2249.9,1675,757.796875,2350.4,1675,757.796875,2450.6,1675,757.796875,2555,1675,757.796875,2656.8,1675,757.796875,2760.4,1675,757.796875,2865.8,1675,757.796875,2966,1675,757.796875,3066.7,1675,757.796875,3170.7,1675,757.796875,3275.3,1675,757.796875,3376.9,1675,757.796875,3480.3,1675,757.796875,3580.8,1675,757.796875,3684.9,1675,757.796875,3785.2,1675,757.796875,3885.8,1675,757.796875,3989.8,1675,757.796875,4091.4,1675,757.796875,4195.1,1675,757.796875,4295.4,1675,757.796875,4395.6,1675,757.796875,4500.8,1675,757.796875,4605.2,1675,757.796875,4705.4,1675,757.796875,4806.6,1675,757.796875,4910]","[1284.7,1284.7,1004.5,0,280.2,""while_blue"",""down"",""up"",""bad_move"",7444.1,6159.1,3091.4,3883.4,469.3,""smooth"",""down"",""down"",""good_move"",10459.3,3014.9,2703.2,7444.4,311.7,""smooth"",""down"",""down"",""good_move"",12660.6,2201.2,1871.6,10459.5,329.5,""smooth"",""down"",""down"",""good_move"",14900.4,2239.7,1951.7,12660.7,288,""smooth"",""right"",""right"",""good_move"",18734.4,3833.6,3503.5,14900.8,330.1,""smooth"",""right"",""right"",""good_move"",20903.2,2168.7,1853.1,18734.5,315.6,""oops"",""down"",""right"",""good_move"",24175.3,3271.9,2979.4,20903.4,292.5,""oops"",""down"",""down"",""good_move""]","",""
"3676","","<div style=""width:500px;"">
  <p>What determined the result of this run?</p>
  </div>","40","html-slider-response","20","250952","0.0-5.0-1.2","35","1","2025-07-14 14:43:23","01610cd0009c79a99da7d0a3353eb402","89.154.153.225","Mozilla/5.0 (Macintosh; Intel Mac OS X 10_15_7) AppleWebKit/537.36 (KHTML, like Gecko) Chrome/138.0.0.0 Safari/537.36","Macintosh","Chrome","138.0.0.0","OS X","10_15_7","https://app.prolific.com/","pt-PT,pt;q=0.9,en-US;q=0.8,en;q=0.7,ca;q=0.6,fr;q=0.5,de;q=0.4","66db15814e7818d8b9593ad5","683db7602f5db6a34d12d064","6875173b5c9869b127479887","1","66db15814e7818d8b9593ad5","1","2025-07-14T14:47:35.694Z","","","","","","","","","","","AttribQ","","50","","","","","","","","","","","","","","","","","","","","","","","","","","","","",""
"2247","","<div style=""width:500px;"">
  <p>How much control did you have over the ball?</p>
  </div>","39","html-slider-response","21","253200","0.0-5.0-2.2","35","1","2025-07-14 14:43:23","01610cd0009c79a99da7d0a3353eb402","89.154.153.225","Mozilla/5.0 (Macintosh; Intel Mac OS X 10_15_7) AppleWebKit/537.36 (KHTML, like Gecko) Chrome/138.0.0.0 Safari/537.36","Macintosh","Chrome","138.0.0.0","OS X","10_15_7","https://app.prolific.com/","pt-PT,pt;q=0.9,en-US;q=0.8,en;q=0.7,ca;q=0.6,fr;q=0.5,de;q=0.4","66db15814e7818d8b9593ad5","683db7602f5db6a34d12d064","6875173b5c9869b127479887","1","66db15814e7818d8b9593ad5","1","2025-07-14T14:47:37.942Z","","","","","","","","","","","ControlQ","","50","","","","","","","","","","","","","","","","","","","","","","","","","","","","",""
"3367","","<div style=""width:500px;"">
  <p>How would you describe your current emotional state?</p>
  </div>","46","html-slider-response","22","256569","0.0-5.0-3.2","35","1","2025-07-14 14:43:23","01610cd0009c79a99da7d0a3353eb402","89.154.153.225","Mozilla/5.0 (Macintosh; Intel Mac OS X 10_15_7) AppleWebKit/537.36 (KHTML, like Gecko) Chrome/138.0.0.0 Safari/537.36","Macintosh","Chrome","138.0.0.0","OS X","10_15_7","https://app.prolific.com/","pt-PT,pt;q=0.9,en-US;q=0.8,en;q=0.7,ca;q=0.6,fr;q=0.5,de;q=0.4","66db15814e7818d8b9593ad5","683db7602f5db6a34d12d064","6875173b5c9869b127479887","1","66db15814e7818d8b9593ad5","1","2025-07-14T14:47:41.311Z","","","","","","","","","","","StressQ","","50","","","","","","","","","","","","","","","","","","","","","","","","","","","","",""
"3043","","<div style=""width:500px;"">
  <p>What best describes how you currently feel?</p>
  </div>","41","html-slider-response","23","259613","0.0-5.0-4.2","35","1","2025-07-14 14:43:23","01610cd0009c79a99da7d0a3353eb402","89.154.153.225","Mozilla/5.0 (Macintosh; Intel Mac OS X 10_15_7) AppleWebKit/537.36 (KHTML, like Gecko) Chrome/138.0.0.0 Safari/537.36","Macintosh","Chrome","138.0.0.0","OS X","10_15_7","https://app.prolific.com/","pt-PT,pt;q=0.9,en-US;q=0.8,en;q=0.7,ca;q=0.6,fr;q=0.5,de;q=0.4","66db15814e7818d8b9593ad5","683db7602f5db6a34d12d064","6875173b5c9869b127479887","1","66db15814e7818d8b9593ad5","1","2025-07-14T14:47:44.356Z","","","","","","","","","","","MotivationQ","","50","","","","","","","","","","","","","","","","","","","","","","","","","","","","",""
"","","","","ctl-task-cpt","24","294055","0.0-5.0-0.3","35","1","2025-07-14 14:43:23","01610cd0009c79a99da7d0a3353eb402","89.154.153.225","Mozilla/5.0 (Macintosh; Intel Mac OS X 10_15_7) AppleWebKit/537.36 (KHTML, like Gecko) Chrome/138.0.0.0 Safari/537.36","Macintosh","Chrome","138.0.0.0","OS X","10_15_7","https://app.prolific.com/","pt-PT,pt;q=0.9,en-US;q=0.8,en;q=0.7,ca;q=0.6,fr;q=0.5,de;q=0.4","66db15814e7818d8b9593ad5","683db7602f5db6a34d12d064","6875173b5c9869b127479887","1","66db15814e7818d8b9593ad5","1","2025-07-14T14:48:18.797Z","","","","","","","","","","","","","","win-only","3","g1:SW,g2:NE","0.7","4","0","261310.9","1205.8","6206.4","31430.5","1","4","8","6","1","1","0","4","4","0.030303030303030304","1515.5","3000","525","[""down"",""left""]","{""num_key_presses"":8,""num_perfect"":5,""num_errors"":1,""num_randdir"":2,""num_randdir_good_moves"":1,""num_whilered"":0,""num_whileblue"":1,""num_blue"":2,""num_good_moves"":6}","[725,735.796875,0.2,725,735.796875,105.6,725,735.796875,209.6,791,731.796875,309.7,1003,717.796875,409.7,1027,713.796875,514.9,1027,713.796875,620.5,1027,711.796875,724.4,1027,711.796875,824.7,415,1119.796875,930.4,261,1203.796875,1034.6,261,1203.796875,1135.1,261,1203.796875,1240.1,137,1331.796875,1340.1,129,1335.796875,1440.1,129,1335.796875,1544.6,129,1335.796875,1645.3,155,1333.796875,1750,1119,1095.796875,1850.3,1339,1043.796875,1954.8,1347,1041.796875,2055,1347,1041.796875,2155.4,1347,1041.796875,2260.8,1347,1041.796875,2364.8,1347,1041.796875,2465.7,1347,1041.796875,2569.8,1347,1041.796875,2670.3,1347,1041.796875,2775.4,1347,1041.796875,2880.4,1347,1041.796875,2980.6,1347,1041.796875,3085.3,1347,1041.796875,3185.3,1347,1041.796875,3289.6,1347,1041.796875,3389.7,1347,1041.796875,3490,1347,1041.796875,3590.2,1347,1041.796875,3694.7,1347,1041.796875,3795.5,1347,1041.796875,3895.5,1347,1041.796875,3999.7,1347,1041.796875,4099.8,1347,1041.796875,4200.1,1347,1041.796875,4304.5,1347,1041.796875,4405.1,1347,1041.796875,4505.5,1347,1041.796875,4609.5,1347,1041.796875,4709.8,1347,1041.796875,4815,1347,1041.796875,4914.9]","[1301.2,1301.2,1004.5,0,296.7,""while_blue"",""down"",""up"",""bad_move"",3937,2635.4,2201.8,1301.7,433.5,""oops"",""left"",""up"",""bad_move"",6688,2750.8,2413.2,3937.2,337.6,""smooth"",""down"",""down"",""good_move"",9037.5,2349.2,1971.6,6688.3,377.6,""oops"",""down"",""down"",""good_move"",11841.5,2803.8,2490.9,9037.7,312.9,""smooth"",""down"",""down"",""good_move"",18684,6842.3,2298.3,16049,336.7,""smooth"",""left"",""left"",""good_move"",21484.1,2799.8,2399,18684.3,400.8,""smooth"",""left"",""left"",""good_move"",25138.7,3654.5,3325.7,21484.2,328.8,""smooth"",""down"",""down"",""good_move""]","",""
"3482","","<div style=""width:500px;"">
  <p>What determined the result of this run?</p>
  </div>","55","html-slider-response","25","297538","0.0-5.0-1.3","35","1","2025-07-14 14:43:23","01610cd0009c79a99da7d0a3353eb402","89.154.153.225","Mozilla/5.0 (Macintosh; Intel Mac OS X 10_15_7) AppleWebKit/537.36 (KHTML, like Gecko) Chrome/138.0.0.0 Safari/537.36","Macintosh","Chrome","138.0.0.0","OS X","10_15_7","https://app.prolific.com/","pt-PT,pt;q=0.9,en-US;q=0.8,en;q=0.7,ca;q=0.6,fr;q=0.5,de;q=0.4","66db15814e7818d8b9593ad5","683db7602f5db6a34d12d064","6875173b5c9869b127479887","1","66db15814e7818d8b9593ad5","1","2025-07-14T14:48:22.280Z","","","","","","","","","","","AttribQ","","50","","","","","","","","","","","","","","","","","","","","","","","","","","","","",""
"2968","","<div style=""width:500px;"">
  <p>How much control did you have over the ball?</p>
  </div>","43","html-slider-response","26","300507","0.0-5.0-2.3","35","1","2025-07-14 14:43:23","01610cd0009c79a99da7d0a3353eb402","89.154.153.225","Mozilla/5.0 (Macintosh; Intel Mac OS X 10_15_7) AppleWebKit/537.36 (KHTML, like Gecko) Chrome/138.0.0.0 Safari/537.36","Macintosh","Chrome","138.0.0.0","OS X","10_15_7","https://app.prolific.com/","pt-PT,pt;q=0.9,en-US;q=0.8,en;q=0.7,ca;q=0.6,fr;q=0.5,de;q=0.4","66db15814e7818d8b9593ad5","683db7602f5db6a34d12d064","6875173b5c9869b127479887","1","66db15814e7818d8b9593ad5","1","2025-07-14T14:48:25.249Z","","","","","","","","","","","ControlQ","","50","","","","","","","","","","","","","","","","","","","","","","","","","","","","",""
"3198","","<div style=""width:500px;"">
  <p>How would you describe your current emotional state?</p>
  </div>","47","html-slider-response","27","303706","0.0-5.0-3.3","35","1","2025-07-14 14:43:23","01610cd0009c79a99da7d0a3353eb402","89.154.153.225","Mozilla/5.0 (Macintosh; Intel Mac OS X 10_15_7) AppleWebKit/537.36 (KHTML, like Gecko) Chrome/138.0.0.0 Safari/537.36","Macintosh","Chrome","138.0.0.0","OS X","10_15_7","https://app.prolific.com/","pt-PT,pt;q=0.9,en-US;q=0.8,en;q=0.7,ca;q=0.6,fr;q=0.5,de;q=0.4","66db15814e7818d8b9593ad5","683db7602f5db6a34d12d064","6875173b5c9869b127479887","1","66db15814e7818d8b9593ad5","1","2025-07-14T14:48:28.448Z","","","","","","","","","","","StressQ","","50","","","","","","","","","","","","","","","","","","","","","","","","","","","","",""
"2225","","<div style=""width:500px;"">
  <p>What best describes how you currently feel?</p>
  </div>","45","html-slider-response","28","305932","0.0-5.0-4.3","35","1","2025-07-14 14:43:23","01610cd0009c79a99da7d0a3353eb402","89.154.153.225","Mozilla/5.0 (Macintosh; Intel Mac OS X 10_15_7) AppleWebKit/537.36 (KHTML, like Gecko) Chrome/138.0.0.0 Safari/537.36","Macintosh","Chrome","138.0.0.0","OS X","10_15_7","https://app.prolific.com/","pt-PT,pt;q=0.9,en-US;q=0.8,en;q=0.7,ca;q=0.6,fr;q=0.5,de;q=0.4","66db15814e7818d8b9593ad5","683db7602f5db6a34d12d064","6875173b5c9869b127479887","1","66db15814e7818d8b9593ad5","1","2025-07-14T14:48:30.674Z","","","","","","","","","","","MotivationQ","","50","","","","","","","","","","","","","","","","","","","","","","","","","","","","",""
"","","","","ctl-task-cpt","29","335208","0.0-5.0-0.4","35","1","2025-07-14 14:43:23","01610cd0009c79a99da7d0a3353eb402","89.154.153.225","Mozilla/5.0 (Macintosh; Intel Mac OS X 10_15_7) AppleWebKit/537.36 (KHTML, like Gecko) Chrome/138.0.0.0 Safari/537.36","Macintosh","Chrome","138.0.0.0","OS X","10_15_7","https://app.prolific.com/","pt-PT,pt;q=0.9,en-US;q=0.8,en;q=0.7,ca;q=0.6,fr;q=0.5,de;q=0.4","66db15814e7818d8b9593ad5","683db7602f5db6a34d12d064","6875173b5c9869b127479887","1","66db15814e7818d8b9593ad5","1","2025-07-14T14:48:59.950Z","","","","","","","","","","","","","","win-only","1","g1:NE,g2:SW","0.6","5","0","307628.9","1296.9","6300.6","26266.4","1","4","4","6","2","4","4","8","4","0.06060606060606061","1431.7","3000","1045","[""down"",""left""]","{""num_key_presses"":6,""num_perfect"":4,""num_errors"":0,""num_randdir"":2,""num_randdir_good_moves"":2,""num_whilered"":0,""num_whileblue"":0,""num_blue"":1,""num_good_moves"":6}","[723,727.796875,0.1,723,727.796875,103.9,723,727.796875,208.2,723,727.796875,308.8,779,723.796875,409,1339,665.796875,514.2,1449,669.796875,618.9,1451,671.796875,718.9,1441,673.796875,823.9,755,1027.796875,929,131,1299.796875,1029.3,127,1301.796875,1133.9,127,1301.796875,1234.4,127,1303.796875,1334.4,127,1303.796875,1438.7,127,1303.796875,1538.7,127,1303.796875,1644.8,127,1303.796875,1748.8,127,1303.796875,1849.6,127,1303.796875,1953.4,127,1303.796875,2053.8,127,1303.796875,2154.2,127,1303.796875,2258.5,127,1303.796875,2359,127,1303.796875,2459.4,127,1303.796875,2563.7,127,1303.796875,2664.2,127,1303.796875,2768.7,127,1303.796875,2869.2,127,1303.796875,2973.6,127,1303.796875,3073.6,127,1303.796875,3174.4,139,1303.796875,3278.7,635,1391.796875,3379.1,713,1419.796875,3483.9,715,1419.796875,3584.2,715,1419.796875,3684.7,715,1419.796875,3788.5,715,1419.796875,3888.6,715,1419.796875,3988.8,715,1419.796875,4093.7,715,1419.796875,4194.2,715,1419.796875,4298.8,715,1419.796875,4399.9,715,1419.796875,4504.2,715,1419.796875,4609.2,715,1419.796875,4713.5,715,1419.796875,4819.3,715,1419.796875,4924]","[1323.8,1323.8,1000,0,323.8,""smooth"",""down"",""down"",""good_move"",4303.1,2979,2649.6,1324.1,329.4,""oops"",""down"",""left"",""good_move"",6237.6,1934.1,1550,4303.5,384.1,""smooth"",""down"",""down"",""good_move"",9597.3,3359.5,3058.5,6237.8,301,""smooth"",""left"",""left"",""good_move"",13524,3926.5,3635.2,9597.6,291.2,""oops"",""left"",""left"",""good_move"",19877.8,6353.7,2323.5,17200.1,354.2,""smooth"",""down"",""down"",""good_move""]","",""
"2771","","<div style=""width:500px;"">
  <p>What determined the result of this run?</p>
  </div>","34","html-slider-response","30","337980","0.0-5.0-1.4","35","1","2025-07-14 14:43:23","01610cd0009c79a99da7d0a3353eb402","89.154.153.225","Mozilla/5.0 (Macintosh; Intel Mac OS X 10_15_7) AppleWebKit/537.36 (KHTML, like Gecko) Chrome/138.0.0.0 Safari/537.36","Macintosh","Chrome","138.0.0.0","OS X","10_15_7","https://app.prolific.com/","pt-PT,pt;q=0.9,en-US;q=0.8,en;q=0.7,ca;q=0.6,fr;q=0.5,de;q=0.4","66db15814e7818d8b9593ad5","683db7602f5db6a34d12d064","6875173b5c9869b127479887","1","66db15814e7818d8b9593ad5","1","2025-07-14T14:49:02.722Z","","","","","","","","","","","AttribQ","","50","","","","","","","","","","","","","","","","","","","","","","","","","","","","",""
"2273","","<div style=""width:500px;"">
  <p>How much control did you have over the ball?</p>
  </div>","38","html-slider-response","31","340254","0.0-5.0-2.4","35","1","2025-07-14 14:43:23","01610cd0009c79a99da7d0a3353eb402","89.154.153.225","Mozilla/5.0 (Macintosh; Intel Mac OS X 10_15_7) AppleWebKit/537.36 (KHTML, like Gecko) Chrome/138.0.0.0 Safari/537.36","Macintosh","Chrome","138.0.0.0","OS X","10_15_7","https://app.prolific.com/","pt-PT,pt;q=0.9,en-US;q=0.8,en;q=0.7,ca;q=0.6,fr;q=0.5,de;q=0.4","66db15814e7818d8b9593ad5","683db7602f5db6a34d12d064","6875173b5c9869b127479887","1","66db15814e7818d8b9593ad5","1","2025-07-14T14:49:04.996Z","","","","","","","","","","","ControlQ","","50","","","","","","","","","","","","","","","","","","","","","","","","","","","","",""
"3565","","<div style=""width:500px;"">
  <p>How would you describe your current emotional state?</p>
  </div>","43","html-slider-response","32","343820","0.0-5.0-3.4","35","1","2025-07-14 14:43:23","01610cd0009c79a99da7d0a3353eb402","89.154.153.225","Mozilla/5.0 (Macintosh; Intel Mac OS X 10_15_7) AppleWebKit/537.36 (KHTML, like Gecko) Chrome/138.0.0.0 Safari/537.36","Macintosh","Chrome","138.0.0.0","OS X","10_15_7","https://app.prolific.com/","pt-PT,pt;q=0.9,en-US;q=0.8,en;q=0.7,ca;q=0.6,fr;q=0.5,de;q=0.4","66db15814e7818d8b9593ad5","683db7602f5db6a34d12d064","6875173b5c9869b127479887","1","66db15814e7818d8b9593ad5","1","2025-07-14T14:49:08.563Z","","","","","","","","","","","StressQ","","50","","","","","","","","","","","","","","","","","","","","","","","","","","","","",""
"1922","","<div style=""width:500px;"">
  <p>What best describes how you currently feel?</p>
  </div>","41","html-slider-response","33","345743","0.0-5.0-4.4","35","1","2025-07-14 14:43:23","01610cd0009c79a99da7d0a3353eb402","89.154.153.225","Mozilla/5.0 (Macintosh; Intel Mac OS X 10_15_7) AppleWebKit/537.36 (KHTML, like Gecko) Chrome/138.0.0.0 Safari/537.36","Macintosh","Chrome","138.0.0.0","OS X","10_15_7","https://app.prolific.com/","pt-PT,pt;q=0.9,en-US;q=0.8,en;q=0.7,ca;q=0.6,fr;q=0.5,de;q=0.4","66db15814e7818d8b9593ad5","683db7602f5db6a34d12d064","6875173b5c9869b127479887","1","66db15814e7818d8b9593ad5","1","2025-07-14T14:49:10.485Z","","","","","","","","","","","MotivationQ","","50","","","","","","","","","","","","","","","","","","","","","","","","","","","","",""
"","","","","ctl-task-cpt","34","375038","0.0-5.0-0.5","35","1","2025-07-14 14:43:23","01610cd0009c79a99da7d0a3353eb402","89.154.153.225","Mozilla/5.0 (Macintosh; Intel Mac OS X 10_15_7) AppleWebKit/537.36 (KHTML, like Gecko) Chrome/138.0.0.0 Safari/537.36","Macintosh","Chrome","138.0.0.0","OS X","10_15_7","https://app.prolific.com/","pt-PT,pt;q=0.9,en-US;q=0.8,en;q=0.7,ca;q=0.6,fr;q=0.5,de;q=0.4","66db15814e7818d8b9593ad5","683db7602f5db6a34d12d064","6875173b5c9869b127479887","1","66db15814e7818d8b9593ad5","1","2025-07-14T14:49:39.781Z","","","","","","","","","","","","","","win-only","1","g1:NE,g2:SW","0.5","6","0","347439.7","1101.2","6105.9","26285.9","1","4","8","6","1","1","1","9","8","0.06818181818181818","1390.4","3000","715","[""up"",""right""]","{""num_key_presses"":6,""num_perfect"":4,""num_errors"":0,""num_randdir"":2,""num_randdir_good_moves"":1,""num_whilered"":0,""num_whileblue"":0,""num_blue"":1,""num_good_moves"":5}","[729,731.796875,0.3,729,731.796875,104.3,729,731.796875,204.6,763,739.796875,305,1037,877.796875,409.7,1069,905.796875,514.8,1103,917.796875,619.1,1109,919.796875,724,1109,919.796875,824,1251,627.796875,924.1,1397,299.796875,1024.3,1389,223.796875,1124.4,1379,181.796875,1229.3,1379,181.796875,1329.5,1379,181.796875,1430,1379,181.796875,1534.6,1379,183.796875,1639.1,1449,491.796875,1740,1485,607.796875,1844.1,1485,607.796875,1944.4,1485,607.796875,2044.7,1485,607.796875,2149.6,1485,607.796875,2254.6,1485,607.796875,2354.9,1485,607.796875,2454.9,1485,607.796875,2559.3,1485,607.796875,2664.2,1485,607.796875,2764.8,1485,607.796875,2866,1485,607.796875,2969.1,1485,607.796875,3069.4,1485,607.796875,3169.8,1485,607.796875,3274.5,1485,607.796875,3379.3,1485,607.796875,3484.3,1485,607.796875,3584.9,1485,607.796875,3689,1485,607.796875,3789.5,1485,607.796875,3894.2,1485,607.796875,4000.9,1485,607.796875,4104.7,1485,607.796875,4209.5,1485,607.796875,4314,1485,607.796875,4419.9,1485,607.796875,4523.9,1485,607.796875,4624.5,1485,607.796875,4724.5,1485,607.796875,4824.5,1485,607.796875,4929]","[4832.5,4832.5,2447.2,2004.5,380.8,""smooth"",""up"",""up"",""good_move"",8769.7,3936.9,3561.4,4832.8,375.5,""smooth"",""up"",""up"",""good_move"",11655.3,2885.4,2557.4,8769.9,328,""oops"",""right"",""left"",""bad_move"",14731.8,3076.1,2708.1,11655.7,368,""oops"",""right"",""right"",""good_move"",16906.8,2174.6,1656.3,14732.2,518.3,""smooth"",""right"",""right"",""good_move"",20093.8,3186.7,2843.8,16907.1,342.9,""smooth"",""right"",""right"",""good_move""]","",""
"4214","","<div style=""width:500px;"">
  <p>What determined the result of this run?</p>
  </div>","65","html-slider-response","35","379253","0.0-5.0-1.5","35","1","2025-07-14 14:43:23","01610cd0009c79a99da7d0a3353eb402","89.154.153.225","Mozilla/5.0 (Macintosh; Intel Mac OS X 10_15_7) AppleWebKit/537.36 (KHTML, like Gecko) Chrome/138.0.0.0 Safari/537.36","Macintosh","Chrome","138.0.0.0","OS X","10_15_7","https://app.prolific.com/","pt-PT,pt;q=0.9,en-US;q=0.8,en;q=0.7,ca;q=0.6,fr;q=0.5,de;q=0.4","66db15814e7818d8b9593ad5","683db7602f5db6a34d12d064","6875173b5c9869b127479887","1","66db15814e7818d8b9593ad5","1","2025-07-14T14:49:43.995Z","","","","","","","","","","","AttribQ","","50","","","","","","","","","","","","","","","","","","","","","","","","","","","","",""
"2273","","<div style=""width:500px;"">
  <p>How much control did you have over the ball?</p>
  </div>","40","html-slider-response","36","381527","0.0-5.0-2.5","35","1","2025-07-14 14:43:23","01610cd0009c79a99da7d0a3353eb402","89.154.153.225","Mozilla/5.0 (Macintosh; Intel Mac OS X 10_15_7) AppleWebKit/537.36 (KHTML, like Gecko) Chrome/138.0.0.0 Safari/537.36","Macintosh","Chrome","138.0.0.0","OS X","10_15_7","https://app.prolific.com/","pt-PT,pt;q=0.9,en-US;q=0.8,en;q=0.7,ca;q=0.6,fr;q=0.5,de;q=0.4","66db15814e7818d8b9593ad5","683db7602f5db6a34d12d064","6875173b5c9869b127479887","1","66db15814e7818d8b9593ad5","1","2025-07-14T14:49:46.269Z","","","","","","","","","","","ControlQ","","50","","","","","","","","","","","","","","","","","","","","","","","","","","","","",""
"2666","","<div style=""width:500px;"">
  <p>How would you describe your current emotional state?</p>
  </div>","43","html-slider-response","37","384194","0.0-5.0-3.5","35","1","2025-07-14 14:43:23","01610cd0009c79a99da7d0a3353eb402","89.154.153.225","Mozilla/5.0 (Macintosh; Intel Mac OS X 10_15_7) AppleWebKit/537.36 (KHTML, like Gecko) Chrome/138.0.0.0 Safari/537.36","Macintosh","Chrome","138.0.0.0","OS X","10_15_7","https://app.prolific.com/","pt-PT,pt;q=0.9,en-US;q=0.8,en;q=0.7,ca;q=0.6,fr;q=0.5,de;q=0.4","66db15814e7818d8b9593ad5","683db7602f5db6a34d12d064","6875173b5c9869b127479887","1","66db15814e7818d8b9593ad5","1","2025-07-14T14:49:48.936Z","","","","","","","","","","","StressQ","","50","","","","","","","","","","","","","","","","","","","","","","","","","","","","",""
"1766","","<div style=""width:500px;"">
  <p>What best describes how you currently feel?</p>
  </div>","42","html-slider-response","38","385961","0.0-5.0-4.5","35","1","2025-07-14 14:43:23","01610cd0009c79a99da7d0a3353eb402","89.154.153.225","Mozilla/5.0 (Macintosh; Intel Mac OS X 10_15_7) AppleWebKit/537.36 (KHTML, like Gecko) Chrome/138.0.0.0 Safari/537.36","Macintosh","Chrome","138.0.0.0","OS X","10_15_7","https://app.prolific.com/","pt-PT,pt;q=0.9,en-US;q=0.8,en;q=0.7,ca;q=0.6,fr;q=0.5,de;q=0.4","66db15814e7818d8b9593ad5","683db7602f5db6a34d12d064","6875173b5c9869b127479887","1","66db15814e7818d8b9593ad5","1","2025-07-14T14:49:50.703Z","","","","","","","","","","","MotivationQ","","50","","","","","","","","","","","","","","","","","","","","","","","","","","","","",""
"","","","","ctl-task-cpt","39","421078","0.0-5.0-0.6","35","1","2025-07-14 14:43:23","01610cd0009c79a99da7d0a3353eb402","89.154.153.225","Mozilla/5.0 (Macintosh; Intel Mac OS X 10_15_7) AppleWebKit/537.36 (KHTML, like Gecko) Chrome/138.0.0.0 Safari/537.36","Macintosh","Chrome","138.0.0.0","OS X","10_15_7","https://app.prolific.com/","pt-PT,pt;q=0.9,en-US;q=0.8,en;q=0.7,ca;q=0.6,fr;q=0.5,de;q=0.4","66db15814e7818d8b9593ad5","683db7602f5db6a34d12d064","6875173b5c9869b127479887","1","66db15814e7818d8b9593ad5","1","2025-07-14T14:50:25.820Z","","","","","","","","","","","","","","win-only","2","g1:SE,g2:NW","0.4","7","0","387657.7","1052.1","6056.1","32106.2","1","4","4","6","1","1","1","10","9","0.07575757575757576","1505.6","3000","785","[""down"",""right""]","{""num_key_presses"":6,""num_perfect"":2,""num_errors"":0,""num_randdir"":4,""num_randdir_good_moves"":3,""num_whilered"":0,""num_whileblue"":0,""num_blue"":3,""num_good_moves"":5}","[739,729.796875,0.1,739,729.796875,103.8,739,729.796875,204.1,793,715.796875,308.5,989,665.796875,408.5,1005,661.796875,513.2,1009,661.796875,618.2,1009,661.796875,718.7,1009,661.796875,823.4,1009,717.796875,928.3,1147,1133.796875,1028.6,1257,1305.796875,1129.2,1285,1317.796875,1233.1,1301,1329.796875,1333.5,1301,1329.796875,1433.8,1301,1329.796875,1538.4,1301,1329.796875,1638.5,1301,1329.796875,1738.5,1589,1163.796875,1838.6,1817,1071.796875,1943.6,1819,1069.796875,2048.4,1819,1069.796875,2148.9,1819,1069.796875,2253.9,1819,1069.796875,2354.1,1819,1069.796875,2458.7,1819,1069.796875,2559,1819,1069.796875,2663.7,1819,1069.796875,2769.1,1819,1069.796875,2873.5,1819,1069.796875,2973.5,1819,1069.796875,3079.2,1819,1069.796875,3183.5,1819,1069.796875,3283.5,1819,1069.796875,3384.2,1819,1069.796875,3488.7,1819,1069.796875,3589.5,1819,1069.796875,3693.9,1819,1069.796875,3794,1819,1069.796875,3899,1819,1069.796875,4003.5,1819,1069.796875,4103.5,1819,1069.796875,4203.5,1819,1069.796875,4309.2,1819,1069.796875,4413.4,1819,1069.796875,4518.7,1819,1069.796875,4624.1,1819,1069.796875,4728.2,1819,1069.796875,4828.7,1819,1069.796875,4929.1]","[5186.5,5186.5,2840,2009.6,336.9,""oops"",""down"",""right"",""good_move"",7390.2,2203.3,1665.8,5186.9,537.5,""oops"",""down"",""down"",""good_move"",10846.6,3456,3130.8,7390.6,325.2,""oops"",""right"",""up"",""bad_move"",13935.5,3088.5,2765.3,10847,323.3,""smooth"",""down"",""down"",""good_move"",19070.6,5134.8,1376,17334.4,360.3,""smooth"",""down"",""down"",""good_move"",25962.8,6891.8,2735.7,22870,357.1,""oops"",""right"",""right"",""good_move""]","",""
"3382","","<div style=""width:500px;"">
  <p>What determined the result of this run?</p>
  </div>","42","html-slider-response","40","424461","0.0-5.0-1.6","35","1","2025-07-14 14:43:23","01610cd0009c79a99da7d0a3353eb402","89.154.153.225","Mozilla/5.0 (Macintosh; Intel Mac OS X 10_15_7) AppleWebKit/537.36 (KHTML, like Gecko) Chrome/138.0.0.0 Safari/537.36","Macintosh","Chrome","138.0.0.0","OS X","10_15_7","https://app.prolific.com/","pt-PT,pt;q=0.9,en-US;q=0.8,en;q=0.7,ca;q=0.6,fr;q=0.5,de;q=0.4","66db15814e7818d8b9593ad5","683db7602f5db6a34d12d064","6875173b5c9869b127479887","1","66db15814e7818d8b9593ad5","1","2025-07-14T14:50:29.203Z","","","","","","","","","","","AttribQ","","50","","","","","","","","","","","","","","","","","","","","","","","","","","","","",""
"2805","","<div style=""width:500px;"">
  <p>How much control did you have over the ball?</p>
  </div>","34","html-slider-response","41","427267","0.0-5.0-2.6","35","1","2025-07-14 14:43:23","01610cd0009c79a99da7d0a3353eb402","89.154.153.225","Mozilla/5.0 (Macintosh; Intel Mac OS X 10_15_7) AppleWebKit/537.36 (KHTML, like Gecko) Chrome/138.0.0.0 Safari/537.36","Macintosh","Chrome","138.0.0.0","OS X","10_15_7","https://app.prolific.com/","pt-PT,pt;q=0.9,en-US;q=0.8,en;q=0.7,ca;q=0.6,fr;q=0.5,de;q=0.4","66db15814e7818d8b9593ad5","683db7602f5db6a34d12d064","6875173b5c9869b127479887","1","66db15814e7818d8b9593ad5","1","2025-07-14T14:50:32.009Z","","","","","","","","","","","ControlQ","","50","","","","","","","","","","","","","","","","","","","","","","","","","","","","",""
"3704","","<div style=""width:500px;"">
  <p>How would you describe your current emotional state?</p>
  </div>","53","html-slider-response","42","430972","0.0-5.0-3.6","35","1","2025-07-14 14:43:23","01610cd0009c79a99da7d0a3353eb402","89.154.153.225","Mozilla/5.0 (Macintosh; Intel Mac OS X 10_15_7) AppleWebKit/537.36 (KHTML, like Gecko) Chrome/138.0.0.0 Safari/537.36","Macintosh","Chrome","138.0.0.0","OS X","10_15_7","https://app.prolific.com/","pt-PT,pt;q=0.9,en-US;q=0.8,en;q=0.7,ca;q=0.6,fr;q=0.5,de;q=0.4","66db15814e7818d8b9593ad5","683db7602f5db6a34d12d064","6875173b5c9869b127479887","1","66db15814e7818d8b9593ad5","1","2025-07-14T14:50:35.714Z","","","","","","","","","","","StressQ","","50","","","","","","","","","","","","","","","","","","","","","","","","","","","","",""
"1880","","<div style=""width:500px;"">
  <p>What best describes how you currently feel?</p>
  </div>","43","html-slider-response","43","432853","0.0-5.0-4.6","35","1","2025-07-14 14:43:23","01610cd0009c79a99da7d0a3353eb402","89.154.153.225","Mozilla/5.0 (Macintosh; Intel Mac OS X 10_15_7) AppleWebKit/537.36 (KHTML, like Gecko) Chrome/138.0.0.0 Safari/537.36","Macintosh","Chrome","138.0.0.0","OS X","10_15_7","https://app.prolific.com/","pt-PT,pt;q=0.9,en-US;q=0.8,en;q=0.7,ca;q=0.6,fr;q=0.5,de;q=0.4","66db15814e7818d8b9593ad5","683db7602f5db6a34d12d064","6875173b5c9869b127479887","1","66db15814e7818d8b9593ad5","1","2025-07-14T14:50:37.595Z","","","","","","","","","","","MotivationQ","","50","","","","","","","","","","","","","","","","","","","","","","","","","","","","",""
"","","","","ctl-task-cpt","44","458979","0.0-5.0-0.7","35","1","2025-07-14 14:43:23","01610cd0009c79a99da7d0a3353eb402","89.154.153.225","Mozilla/5.0 (Macintosh; Intel Mac OS X 10_15_7) AppleWebKit/537.36 (KHTML, like Gecko) Chrome/138.0.0.0 Safari/537.36","Macintosh","Chrome","138.0.0.0","OS X","10_15_7","https://app.prolific.com/","pt-PT,pt;q=0.9,en-US;q=0.8,en;q=0.7,ca;q=0.6,fr;q=0.5,de;q=0.4","66db15814e7818d8b9593ad5","683db7602f5db6a34d12d064","6875173b5c9869b127479887","1","66db15814e7818d8b9593ad5","1","2025-07-14T14:51:03.721Z","","","","","","","","","","","","","","win-only","3","g1:SW,g2:NE","0.3","8","0","434549.8","1233.1","6236.2","23115.2","1","4","8","6","2","8","8","18","10","0.13636363636363635","1332.4","3000","945","[""up"",""right""]","{""num_key_presses"":6,""num_perfect"":3,""num_errors"":0,""num_randdir"":3,""num_randdir_good_moves"":3,""num_whilered"":0,""num_whileblue"":0,""num_blue"":0,""num_good_moves"":6}","[731,733.796875,0.2,731,733.796875,102.2,731,733.796875,202.7,771,731.796875,307.5,1185,707.796875,407.7,1251,707.796875,512,1259,709.796875,612.7,1291,659.796875,712.9,1447,261.796875,812.9,1455,241.796875,917.9,1455,241.796875,1018,1409,201.796875,1118.2,1397,193.796875,1222.2,1397,193.796875,1323.1,1397,193.796875,1423.2,1397,193.796875,1527.3,1569,309.796875,1627.3,1809,597.796875,1728.2,1809,597.796875,1833,1809,597.796875,1937.2,1809,597.796875,2037.8,1809,597.796875,2143.2,1809,597.796875,2243.4,1809,597.796875,2347.5,1809,597.796875,2447.6,1809,597.796875,2547.7,1809,597.796875,2653,1809,597.796875,2757.8,1809,597.796875,2858,1809,597.796875,2962.7,1809,597.796875,3062.7,1809,597.796875,3167.8,1809,597.796875,3273,1809,597.796875,3377.3,1809,597.796875,3478,1809,597.796875,3578.2,1809,597.796875,3682.7,1809,597.796875,3783,1809,597.796875,3887.8,1809,597.796875,3992.4,1809,597.796875,4092.6,1809,597.796875,4197.7,1809,597.796875,4302.3,1809,597.796875,4403,1809,597.796875,4507.8,1809,597.796875,4612.5,1809,597.796875,4713.1,1809,597.796875,4817.6,1809,597.796875,4922.7]","[1398.7,1398.7,1000,0,398.7,""oops"",""up"",""up"",""good_move"",4338.9,2940,2575.7,1398.9,364.3,""oops"",""up"",""right"",""good_move"",7065.3,2726.1,2422.1,4339.3,304,""smooth"",""up"",""up"",""good_move"",10447.9,3382.4,3069.3,7065.5,313.1,""smooth"",""up"",""up"",""good_move"",14306.7,3858.7,3528.3,10448,330.4,""smooth"",""right"",""right"",""good_move"",16790.7,2483.8,2100,14306.9,383.8,""oops"",""right"",""right"",""good_move""]","",""
"3874","","<div style=""width:500px;"">
  <p>What determined the result of this run?</p>
  </div>","48","html-slider-response","45","462854","0.0-5.0-1.7","35","1","2025-07-14 14:43:23","01610cd0009c79a99da7d0a3353eb402","89.154.153.225","Mozilla/5.0 (Macintosh; Intel Mac OS X 10_15_7) AppleWebKit/537.36 (KHTML, like Gecko) Chrome/138.0.0.0 Safari/537.36","Macintosh","Chrome","138.0.0.0","OS X","10_15_7","https://app.prolific.com/","pt-PT,pt;q=0.9,en-US;q=0.8,en;q=0.7,ca;q=0.6,fr;q=0.5,de;q=0.4","66db15814e7818d8b9593ad5","683db7602f5db6a34d12d064","6875173b5c9869b127479887","1","66db15814e7818d8b9593ad5","1","2025-07-14T14:51:07.596Z","","","","","","","","","","","AttribQ","","50","","","","","","","","","","","","","","","","","","","","","","","","","","","","",""
"3304","","<div style=""width:500px;"">
  <p>How much control did you have over the ball?</p>
  </div>","45","html-slider-response","46","466158","0.0-5.0-2.7","35","1","2025-07-14 14:43:23","01610cd0009c79a99da7d0a3353eb402","89.154.153.225","Mozilla/5.0 (Macintosh; Intel Mac OS X 10_15_7) AppleWebKit/537.36 (KHTML, like Gecko) Chrome/138.0.0.0 Safari/537.36","Macintosh","Chrome","138.0.0.0","OS X","10_15_7","https://app.prolific.com/","pt-PT,pt;q=0.9,en-US;q=0.8,en;q=0.7,ca;q=0.6,fr;q=0.5,de;q=0.4","66db15814e7818d8b9593ad5","683db7602f5db6a34d12d064","6875173b5c9869b127479887","1","66db15814e7818d8b9593ad5","1","2025-07-14T14:51:10.900Z","","","","","","","","","","","ControlQ","","50","","","","","","","","","","","","","","","","","","","","","","","","","","","","",""
"4105","","<div style=""width:500px;"">
  <p>How would you describe your current emotional state?</p>
  </div>","48","html-slider-response","47","470264","0.0-5.0-3.7","35","1","2025-07-14 14:43:23","01610cd0009c79a99da7d0a3353eb402","89.154.153.225","Mozilla/5.0 (Macintosh; Intel Mac OS X 10_15_7) AppleWebKit/537.36 (KHTML, like Gecko) Chrome/138.0.0.0 Safari/537.36","Macintosh","Chrome","138.0.0.0","OS X","10_15_7","https://app.prolific.com/","pt-PT,pt;q=0.9,en-US;q=0.8,en;q=0.7,ca;q=0.6,fr;q=0.5,de;q=0.4","66db15814e7818d8b9593ad5","683db7602f5db6a34d12d064","6875173b5c9869b127479887","1","66db15814e7818d8b9593ad5","1","2025-07-14T14:51:15.007Z","","","","","","","","","","","StressQ","","50","","","","","","","","","","","","","","","","","","","","","","","","","","","","",""
"2739","","<div style=""width:500px;"">
  <p>What best describes how you currently feel?</p>
  </div>","46","html-slider-response","48","473004","0.0-5.0-4.7","35","1","2025-07-14 14:43:23","01610cd0009c79a99da7d0a3353eb402","89.154.153.225","Mozilla/5.0 (Macintosh; Intel Mac OS X 10_15_7) AppleWebKit/537.36 (KHTML, like Gecko) Chrome/138.0.0.0 Safari/537.36","Macintosh","Chrome","138.0.0.0","OS X","10_15_7","https://app.prolific.com/","pt-PT,pt;q=0.9,en-US;q=0.8,en;q=0.7,ca;q=0.6,fr;q=0.5,de;q=0.4","66db15814e7818d8b9593ad5","683db7602f5db6a34d12d064","6875173b5c9869b127479887","1","66db15814e7818d8b9593ad5","1","2025-07-14T14:51:17.746Z","","","","","","","","","","","MotivationQ","","50","","","","","","","","","","","","","","","","","","","","","","","","","","","","",""
"","","","","ctl-task-cpt","49","517255","0.0-5.0-0.8","35","1","2025-07-14 14:43:23","01610cd0009c79a99da7d0a3353eb402","89.154.153.225","Mozilla/5.0 (Macintosh; Intel Mac OS X 10_15_7) AppleWebKit/537.36 (KHTML, like Gecko) Chrome/138.0.0.0 Safari/537.36","Macintosh","Chrome","138.0.0.0","OS X","10_15_7","https://app.prolific.com/","pt-PT,pt;q=0.9,en-US;q=0.8,en;q=0.7,ca;q=0.6,fr;q=0.5,de;q=0.4","66db15814e7818d8b9593ad5","683db7602f5db6a34d12d064","6875173b5c9869b127479887","1","66db15814e7818d8b9593ad5","1","2025-07-14T14:52:01.997Z","","","","","","","","","","","","","","win-only","1","g1:NE,g2:SW","0.2","9","0","474700.4","1183.4","6185.9","41241.2","1","4","8","6","1","-1","-1","17","18","0.12878787878787878","1251.2","3000","-3000","[""up"",""right""]","{""num_key_presses"":8,""num_perfect"":2,""num_errors"":0,""num_randdir"":6,""num_randdir_good_moves"":3,""num_whilered"":0,""num_whileblue"":0,""num_blue"":3,""num_good_moves"":5}","[729,731.796875,0.1,729,731.796875,102.4,729,731.796875,202.5,991,703.796875,307.5,1387,691.796875,411.9,1397,691.796875,512.4,1397,691.796875,617.7,1397,691.796875,722.1,1395,685.796875,822.5,1427,135.796875,922.5,1437,51.796875,1026.9,1437,51.796875,1127.5,1437,51.796875,1227.7,1437,51.796875,1332.5,1437,51.796875,1436.8,1683,433.796875,1541.8,1847,707.796875,1642.1,1847,707.796875,1742.9,1847,707.796875,1847.3,1847,707.796875,1952.3,1847,707.796875,2057,1847,707.796875,2161.6,1847,707.796875,2262.6,1847,707.796875,2366.9,1847,707.796875,2468.1,1847,707.796875,2572.5,1847,707.796875,2672.5,1847,707.796875,2772.5,1847,707.796875,2877.3,1847,707.796875,2981.7,1847,707.796875,3082.5,1847,707.796875,3186.9,1847,707.796875,3287,1847,707.796875,3387.5,1847,707.796875,3492,1847,707.796875,3592.5,1847,707.796875,3692.5,1847,707.796875,3797.3,1847,707.796875,3897.3,1847,707.796875,3997.6,1847,707.796875,4101.9,1847,707.796875,4207.1,1847,707.796875,4307.2,1847,707.796875,4407.3,1847,707.796875,4507.6,1847,707.796875,4607.6,1847,707.796875,4712.6,1847,707.796875,4817.8,1847,707.796875,4922.4]","[1333.7,1333.7,1000,0,333.7,""oops"",""up"",""down"",""bad_move"",9666.9,8332.8,2343.4,7015.1,308.4,""oops"",""up"",""up"",""good_move"",13716.4,4049.2,3641.9,9667.2,407.3,""oops"",""up"",""down"",""bad_move"",16961.7,3245.1,2932.2,13716.6,312.9,""oops"",""right"",""up"",""good_move"",20191.3,3229.3,2893.1,16962,336.2,""oops"",""right"",""up"",""good_move"",22437.1,2245.6,1815.7,20191.5,429.9,""smooth"",""right"",""right"",""good_move"",25131.6,2694,2377.5,22437.6,316.5,""smooth"",""up"",""up"",""good_move"",32454.4,7322.5,2827.9,29215.1,411.4,""oops"",""right"",""down"",""bad_move""]","",""
"3100","","<div style=""width:500px;"">
  <p>What determined the result of this run?</p>
  </div>","23","html-slider-response","50","520357","0.0-5.0-1.8","35","1","2025-07-14 14:43:23","01610cd0009c79a99da7d0a3353eb402","89.154.153.225","Mozilla/5.0 (Macintosh; Intel Mac OS X 10_15_7) AppleWebKit/537.36 (KHTML, like Gecko) Chrome/138.0.0.0 Safari/537.36","Macintosh","Chrome","138.0.0.0","OS X","10_15_7","https://app.prolific.com/","pt-PT,pt;q=0.9,en-US;q=0.8,en;q=0.7,ca;q=0.6,fr;q=0.5,de;q=0.4","66db15814e7818d8b9593ad5","683db7602f5db6a34d12d064","6875173b5c9869b127479887","1","66db15814e7818d8b9593ad5","1","2025-07-14T14:52:05.099Z","","","","","","","","","","","AttribQ","","50","","","","","","","","","","","","","","","","","","","","","","","","","","","","",""
"2118","","<div style=""width:500px;"">
  <p>How much control did you have over the ball?</p>
  </div>","16","html-slider-response","51","522475","0.0-5.0-2.8","35","1","2025-07-14 14:43:23","01610cd0009c79a99da7d0a3353eb402","89.154.153.225","Mozilla/5.0 (Macintosh; Intel Mac OS X 10_15_7) AppleWebKit/537.36 (KHTML, like Gecko) Chrome/138.0.0.0 Safari/537.36","Macintosh","Chrome","138.0.0.0","OS X","10_15_7","https://app.prolific.com/","pt-PT,pt;q=0.9,en-US;q=0.8,en;q=0.7,ca;q=0.6,fr;q=0.5,de;q=0.4","66db15814e7818d8b9593ad5","683db7602f5db6a34d12d064","6875173b5c9869b127479887","1","66db15814e7818d8b9593ad5","1","2025-07-14T14:52:07.217Z","","","","","","","","","","","ControlQ","","50","","","","","","","","","","","","","","","","","","","","","","","","","","","","",""
"2395","","<div style=""width:500px;"">
  <p>How would you describe your current emotional state?</p>
  </div>","59","html-slider-response","52","524871","0.0-5.0-3.8","35","1","2025-07-14 14:43:23","01610cd0009c79a99da7d0a3353eb402","89.154.153.225","Mozilla/5.0 (Macintosh; Intel Mac OS X 10_15_7) AppleWebKit/537.36 (KHTML, like Gecko) Chrome/138.0.0.0 Safari/537.36","Macintosh","Chrome","138.0.0.0","OS X","10_15_7","https://app.prolific.com/","pt-PT,pt;q=0.9,en-US;q=0.8,en;q=0.7,ca;q=0.6,fr;q=0.5,de;q=0.4","66db15814e7818d8b9593ad5","683db7602f5db6a34d12d064","6875173b5c9869b127479887","1","66db15814e7818d8b9593ad5","1","2025-07-14T14:52:09.613Z","","","","","","","","","","","StressQ","","50","","","","","","","","","","","","","","","","","","","","","","","","","","","","",""
"1694","","<div style=""width:500px;"">
  <p>What best describes how you currently feel?</p>
  </div>","44","html-slider-response","53","526566","0.0-5.0-4.8","35","1","2025-07-14 14:43:23","01610cd0009c79a99da7d0a3353eb402","89.154.153.225","Mozilla/5.0 (Macintosh; Intel Mac OS X 10_15_7) AppleWebKit/537.36 (KHTML, like Gecko) Chrome/138.0.0.0 Safari/537.36","Macintosh","Chrome","138.0.0.0","OS X","10_15_7","https://app.prolific.com/","pt-PT,pt;q=0.9,en-US;q=0.8,en;q=0.7,ca;q=0.6,fr;q=0.5,de;q=0.4","66db15814e7818d8b9593ad5","683db7602f5db6a34d12d064","6875173b5c9869b127479887","1","66db15814e7818d8b9593ad5","1","2025-07-14T14:52:11.308Z","","","","","","","","","","","MotivationQ","","50","","","","","","","","","","","","","","","","","","","","","","","","","","","","",""
"","","","","ctl-task-cpt","54","567662","0.0-5.0-0.9","35","1","2025-07-14 14:43:23","01610cd0009c79a99da7d0a3353eb402","89.154.153.225","Mozilla/5.0 (Macintosh; Intel Mac OS X 10_15_7) AppleWebKit/537.36 (KHTML, like Gecko) Chrome/138.0.0.0 Safari/537.36","Macintosh","Chrome","138.0.0.0","OS X","10_15_7","https://app.prolific.com/","pt-PT,pt;q=0.9,en-US;q=0.8,en;q=0.7,ca;q=0.6,fr;q=0.5,de;q=0.4","66db15814e7818d8b9593ad5","683db7602f5db6a34d12d064","6875173b5c9869b127479887","1","66db15814e7818d8b9593ad5","1","2025-07-14T14:52:52.404Z","","","","","","","","","","","","","","win-only","2","g1:SE,g2:NW","0.4","10","0","528262.3","1346.6","6350.7","38085.3","1","4","4","6","2","-4","-4","13","17","0.09848484848484848","2429.6","3000","-3000","[""left"",""up""]","{""num_key_presses"":8,""num_perfect"":4,""num_errors"":0,""num_randdir"":4,""num_randdir_good_moves"":2,""num_whilered"":0,""num_whileblue"":0,""num_blue"":2,""num_good_moves"":6}","[749,725.796875,0.1,749,725.796875,104.3,749,725.796875,209,751,725.796875,309.3,1407,657.796875,414,1561,679.796875,518.9,1573,735.796875,619.2,1537,793.796875,719.2,1529,807.796875,819.3,1513,839.796875,924.3,1347,1223.796875,1024.4,1331,1299.796875,1129.1,1333,1305.796875,1229.1,1333,1305.796875,1329.2,1333,1305.796875,1429.3,1333,1305.796875,1536.4,1333,1305.796875,1638.7,1333,1305.796875,1738.7,961,1067.796875,1838.9,7,357.796875,1939,-27,317.796875,2039.1,7,273.796875,2144.4,105,213.796875,2244.7,105,213.796875,2349.9,105,213.796875,2453.7,105,213.796875,2558.8,105,213.796875,2659.1,229,239.796875,2763.9,1351,647.796875,2863.9,1379,655.796875,2971,1379,655.796875,3073.8,1379,655.796875,3175.2,1379,655.796875,3279.5,1379,655.796875,3384.1,1379,655.796875,3484.2,1379,655.796875,3584.2,1379,655.796875,3688.9,1379,655.796875,3788.9,1379,655.796875,3894.1,1379,655.796875,3994.6,1379,655.796875,4098.9,1379,655.796875,4199.2,1379,655.796875,4299.5,1379,655.796875,4404.7,1379,655.796875,4509.4,1379,655.796875,4609.6,1379,655.796875,4713.9,1379,655.796875,4818.7,1379,655.796875,4918.7]","[1305.4,1305.4,1000,0,305.4,""smooth"",""left"",""left"",""good_move"",3990.5,2684.9,2307.6,1305.6,377.3,""oops"",""left"",""left"",""good_move"",13869.3,9878.5,2527.6,10980.1,361.6,""oops"",""up"",""left"",""good_move"",16789.6,2920,2506.2,13869.6,413.8,""smooth"",""up"",""up"",""good_move"",19835.9,3046.1,2655.4,16789.8,390.7,""oops"",""up"",""down"",""bad_move"",23087,3250.8,2926.5,19836.2,324.3,""smooth"",""up"",""up"",""good_move"",25745.5,2658.3,2318,23087.2,340.3,""smooth"",""up"",""up"",""good_move"",29637.6,3891.9,3530.1,25745.7,361.8,""oops"",""up"",""down"",""bad_move""]","",""
"3426","","<div style=""width:500px;"">
  <p>What determined the result of this run?</p>
  </div>","22","html-slider-response","55","571089","0.0-5.0-1.9","35","1","2025-07-14 14:43:23","01610cd0009c79a99da7d0a3353eb402","89.154.153.225","Mozilla/5.0 (Macintosh; Intel Mac OS X 10_15_7) AppleWebKit/537.36 (KHTML, like Gecko) Chrome/138.0.0.0 Safari/537.36","Macintosh","Chrome","138.0.0.0","OS X","10_15_7","https://app.prolific.com/","pt-PT,pt;q=0.9,en-US;q=0.8,en;q=0.7,ca;q=0.6,fr;q=0.5,de;q=0.4","66db15814e7818d8b9593ad5","683db7602f5db6a34d12d064","6875173b5c9869b127479887","1","66db15814e7818d8b9593ad5","1","2025-07-14T14:52:55.831Z","","","","","","","","","","","AttribQ","","50","","","","","","","","","","","","","","","","","","","","","","","","","","","","",""
"1643","","<div style=""width:500px;"">
  <p>How much control did you have over the ball?</p>
  </div>","18","html-slider-response","56","572733","0.0-5.0-2.9","35","1","2025-07-14 14:43:23","01610cd0009c79a99da7d0a3353eb402","89.154.153.225","Mozilla/5.0 (Macintosh; Intel Mac OS X 10_15_7) AppleWebKit/537.36 (KHTML, like Gecko) Chrome/138.0.0.0 Safari/537.36","Macintosh","Chrome","138.0.0.0","OS X","10_15_7","https://app.prolific.com/","pt-PT,pt;q=0.9,en-US;q=0.8,en;q=0.7,ca;q=0.6,fr;q=0.5,de;q=0.4","66db15814e7818d8b9593ad5","683db7602f5db6a34d12d064","6875173b5c9869b127479887","1","66db15814e7818d8b9593ad5","1","2025-07-14T14:52:57.475Z","","","","","","","","","","","ControlQ","","50","","","","","","","","","","","","","","","","","","","","","","","","","","","","",""
"1913","","<div style=""width:500px;"">
  <p>How would you describe your current emotional state?</p>
  </div>","61","html-slider-response","57","574646","0.0-5.0-3.9","35","1","2025-07-14 14:43:23","01610cd0009c79a99da7d0a3353eb402","89.154.153.225","Mozilla/5.0 (Macintosh; Intel Mac OS X 10_15_7) AppleWebKit/537.36 (KHTML, like Gecko) Chrome/138.0.0.0 Safari/537.36","Macintosh","Chrome","138.0.0.0","OS X","10_15_7","https://app.prolific.com/","pt-PT,pt;q=0.9,en-US;q=0.8,en;q=0.7,ca;q=0.6,fr;q=0.5,de;q=0.4","66db15814e7818d8b9593ad5","683db7602f5db6a34d12d064","6875173b5c9869b127479887","1","66db15814e7818d8b9593ad5","1","2025-07-14T14:52:59.389Z","","","","","","","","","","","StressQ","","50","","","","","","","","","","","","","","","","","","","","","","","","","","","","",""
"1432","","<div style=""width:500px;"">
  <p>What best describes how you currently feel?</p>
  </div>","46","html-slider-response","58","576079","0.0-5.0-4.9","35","1","2025-07-14 14:43:23","01610cd0009c79a99da7d0a3353eb402","89.154.153.225","Mozilla/5.0 (Macintosh; Intel Mac OS X 10_15_7) AppleWebKit/537.36 (KHTML, like Gecko) Chrome/138.0.0.0 Safari/537.36","Macintosh","Chrome","138.0.0.0","OS X","10_15_7","https://app.prolific.com/","pt-PT,pt;q=0.9,en-US;q=0.8,en;q=0.7,ca;q=0.6,fr;q=0.5,de;q=0.4","66db15814e7818d8b9593ad5","683db7602f5db6a34d12d064","6875173b5c9869b127479887","1","66db15814e7818d8b9593ad5","1","2025-07-14T14:53:00.821Z","","","","","","","","","","","MotivationQ","","50","","","","","","","","","","","","","","","","","","","","","","","","","","","","",""
"","","","","ctl-task-cpt","59","617624","0.0-5.0-0.10","35","1","2025-07-14 14:43:23","01610cd0009c79a99da7d0a3353eb402","89.154.153.225","Mozilla/5.0 (Macintosh; Intel Mac OS X 10_15_7) AppleWebKit/537.36 (KHTML, like Gecko) Chrome/138.0.0.0 Safari/537.36","Macintosh","Chrome","138.0.0.0","OS X","10_15_7","https://app.prolific.com/","pt-PT,pt;q=0.9,en-US;q=0.8,en;q=0.7,ca;q=0.6,fr;q=0.5,de;q=0.4","66db15814e7818d8b9593ad5","683db7602f5db6a34d12d064","6875173b5c9869b127479887","1","66db15814e7818d8b9593ad5","1","2025-07-14T14:53:42.366Z","","","","","","","","","","","","","","win-only","0","g1:NW,g2:SE","0.5","11","0","577774.5","1022.8","6025.6","38535.6","1","4","4","6","1","1","1","14","13","0.10606060606060606","1617.5","3000","175","[""left"",""up""]","{""num_key_presses"":8,""num_perfect"":5,""num_errors"":0,""num_randdir"":3,""num_randdir_good_moves"":1,""num_whilered"":0,""num_whileblue"":0,""num_blue"":3,""num_good_moves"":6}","[729,731.796875,0.1,729,731.796875,103.1,729,731.796875,207.8,729,731.796875,307.9,887,703.796875,412,1187,719.796875,513.1,1211,737.796875,617.5,1219,1071.796875,722.3,1237,1175.796875,823.3,1231,1177.796875,927.9,891,1117.796875,1028.1,169,319.796875,1132.3,153,275.796875,1232.5,195,145.796875,1332.6,189,95.796875,1437.9,189,95.796875,1538,189,95.796875,1638.4,189,95.796875,1743.3,189,95.796875,1847.2,189,95.796875,1947.5,457,191.796875,2047.7,733,293.796875,2148,733,293.796875,2248.1,733,293.796875,2348.2,733,293.796875,2451.3,733,293.796875,2553.3,733,293.796875,2657.9,733,293.796875,2758.2,733,293.796875,2862.5,733,293.796875,2962.8,733,293.796875,3063,733,293.796875,3167.3,733,293.796875,3267.4,733,293.796875,3372.8,733,293.796875,3477.7,733,293.796875,3578.4,733,293.796875,3683.2,733,293.796875,3787.7,733,293.796875,3888,733,293.796875,3992.2,733,293.796875,4092.4,733,293.796875,4197.4,733,293.796875,4297.8,733,293.796875,4398.4,733,293.796875,4498.4,733,293.796875,4603.3,733,293.796875,4707.5,733,293.796875,4808.4,733,293.796875,4912.6]","[1323.6,1323.6,1000,0,323.6,""smooth"",""up"",""up"",""good_move"",4755.9,3432,2958.6,1323.9,473.4,""smooth"",""up"",""up"",""good_move"",6998.1,2242.1,1848,4756,394.1,""smooth"",""left"",""left"",""good_move"",9234.3,2235.8,1932.4,6998.5,303.4,""oops"",""left"",""right"",""bad_move"",16008.6,6774.1,2761.4,12889.5,357.7,""oops"",""left"",""down"",""bad_move"",18998.3,2989.4,2629.7,16008.9,359.7,""smooth"",""left"",""left"",""good_move"",21559.7,2561,2210,18998.7,351,""smooth"",""left"",""left"",""good_move"",32422.7,10862.9,2194.3,29919.6,308.8,""oops"",""up"",""up"",""good_move""]","",""
"2636","","<div style=""width:500px;"">
  <p>What determined the result of this run?</p>
  </div>","39","html-slider-response","60","620261","0.0-5.0-1.10","35","1","2025-07-14 14:43:23","01610cd0009c79a99da7d0a3353eb402","89.154.153.225","Mozilla/5.0 (Macintosh; Intel Mac OS X 10_15_7) AppleWebKit/537.36 (KHTML, like Gecko) Chrome/138.0.0.0 Safari/537.36","Macintosh","Chrome","138.0.0.0","OS X","10_15_7","https://app.prolific.com/","pt-PT,pt;q=0.9,en-US;q=0.8,en;q=0.7,ca;q=0.6,fr;q=0.5,de;q=0.4","66db15814e7818d8b9593ad5","683db7602f5db6a34d12d064","6875173b5c9869b127479887","1","66db15814e7818d8b9593ad5","1","2025-07-14T14:53:45.003Z","","","","","","","","","","","AttribQ","","50","","","","","","","","","","","","","","","","","","","","","","","","","","","","",""
"2839","","<div style=""width:500px;"">
  <p>How much control did you have over the ball?</p>
  </div>","32","html-slider-response","61","623101","0.0-5.0-2.10","35","1","2025-07-14 14:43:23","01610cd0009c79a99da7d0a3353eb402","89.154.153.225","Mozilla/5.0 (Macintosh; Intel Mac OS X 10_15_7) AppleWebKit/537.36 (KHTML, like Gecko) Chrome/138.0.0.0 Safari/537.36","Macintosh","Chrome","138.0.0.0","OS X","10_15_7","https://app.prolific.com/","pt-PT,pt;q=0.9,en-US;q=0.8,en;q=0.7,ca;q=0.6,fr;q=0.5,de;q=0.4","66db15814e7818d8b9593ad5","683db7602f5db6a34d12d064","6875173b5c9869b127479887","1","66db15814e7818d8b9593ad5","1","2025-07-14T14:53:47.843Z","","","","","","","","","","","ControlQ","","50","","","","","","","","","","","","","","","","","","","","","","","","","","","","",""
"1766","","<div style=""width:500px;"">
  <p>How would you describe your current emotional state?</p>
  </div>","56","html-slider-response","62","624868","0.0-5.0-3.10","35","1","2025-07-14 14:43:23","01610cd0009c79a99da7d0a3353eb402","89.154.153.225","Mozilla/5.0 (Macintosh; Intel Mac OS X 10_15_7) AppleWebKit/537.36 (KHTML, like Gecko) Chrome/138.0.0.0 Safari/537.36","Macintosh","Chrome","138.0.0.0","OS X","10_15_7","https://app.prolific.com/","pt-PT,pt;q=0.9,en-US;q=0.8,en;q=0.7,ca;q=0.6,fr;q=0.5,de;q=0.4","66db15814e7818d8b9593ad5","683db7602f5db6a34d12d064","6875173b5c9869b127479887","1","66db15814e7818d8b9593ad5","1","2025-07-14T14:53:49.610Z","","","","","","","","","","","StressQ","","50","","","","","","","","","","","","","","","","","","","","","","","","","","","","",""
"3721","","<div style=""width:500px;"">
  <p>What best describes how you currently feel?</p>
  </div>","47","html-slider-response","63","628589","0.0-5.0-4.10","35","1","2025-07-14 14:43:23","01610cd0009c79a99da7d0a3353eb402","89.154.153.225","Mozilla/5.0 (Macintosh; Intel Mac OS X 10_15_7) AppleWebKit/537.36 (KHTML, like Gecko) Chrome/138.0.0.0 Safari/537.36","Macintosh","Chrome","138.0.0.0","OS X","10_15_7","https://app.prolific.com/","pt-PT,pt;q=0.9,en-US;q=0.8,en;q=0.7,ca;q=0.6,fr;q=0.5,de;q=0.4","66db15814e7818d8b9593ad5","683db7602f5db6a34d12d064","6875173b5c9869b127479887","1","66db15814e7818d8b9593ad5","1","2025-07-14T14:53:53.331Z","","","","","","","","","","","MotivationQ","","50","","","","","","","","","","","","","","","","","","","","","","","","","","","","",""
"","","","","ctl-task-cpt","64","647149","0.0-5.0-0.11","35","1","2025-07-14 14:43:23","01610cd0009c79a99da7d0a3353eb402","89.154.153.225","Mozilla/5.0 (Macintosh; Intel Mac OS X 10_15_7) AppleWebKit/537.36 (KHTML, like Gecko) Chrome/138.0.0.0 Safari/537.36","Macintosh","Chrome","138.0.0.0","OS X","10_15_7","https://app.prolific.com/","pt-PT,pt;q=0.9,en-US;q=0.8,en;q=0.7,ca;q=0.6,fr;q=0.5,de;q=0.4","66db15814e7818d8b9593ad5","683db7602f5db6a34d12d064","6875173b5c9869b127479887","1","66db15814e7818d8b9593ad5","1","2025-07-14T14:54:11.892Z","","","","","","","","","","","","","","win-only","3","g1:SW,g2:NE","0.6","12","0","630284.8","1134.2","6136.6","15550.9","1","4","8","6","1","1","1","15","14","0.11363636363636363","2168.3","3000","1565","[""down"",""left""]","{""num_key_presses"":4,""num_perfect"":4,""num_errors"":0,""num_randdir"":0,""num_randdir_good_moves"":0,""num_whilered"":0,""num_whileblue"":0,""num_blue"":0,""num_good_moves"":4}","[731,729.796875,0.1,731,729.796875,101.9,731,729.796875,203,731,729.796875,306.5,731,729.796875,412.1,731,729.796875,517,731,729.796875,622.1,731,729.796875,726.7,731,729.796875,831.4,731,729.796875,936.5,729,731.796875,1036.8,269,1221.796875,1136.8,231,1251.796875,1241.6,231,1251.796875,1342.3,227,1253.796875,1446.6,217,1263.796875,1551.7,215,1265.796875,1656.6,213,1267.796875,1761.8,213,1267.796875,1861.9,213,1267.796875,1962.6,213,1267.796875,2066.9,213,1267.796875,2167.2,213,1267.796875,2271.7,213,1267.796875,2376.4,213,1267.796875,2481.5,1067,1237.796875,2581.5,1223,1273.796875,2686.7,1223,1273.796875,2792.3,1223,1273.796875,2896.8,1223,1273.796875,3002,1223,1273.796875,3107.1,1223,1273.796875,3211.5,1223,1273.796875,3311.6,1223,1273.796875,3416.5,1223,1273.796875,3516.9,1223,1273.796875,3619.2,1223,1273.796875,3722.2,1223,1273.796875,3826,1223,1273.796875,3926.6,1223,1273.796875,4027,1223,1273.796875,4131.7,1223,1273.796875,4236.5,1223,1273.796875,4336.5,1223,1273.796875,4442,1223,1273.796875,4546.9,1223,1273.796875,4651.8,1223,1273.796875,4752,1223,1273.796875,4852.2,1223,1273.796875,4956.4]","[1398.3,1398.3,1000,0,398.3,""smooth"",""down"",""down"",""good_move"",3950.1,2551.4,2187.2,1398.7,364.2,""smooth"",""left"",""left"",""good_move"",6396.3,2445.8,2043.5,3950.5,402.3,""smooth"",""left"",""left"",""good_move"",9328.9,2932.4,2630.2,6396.5,302.2,""smooth"",""down"",""down"",""good_move""]","",""
"3112","","<div style=""width:500px;"">
  <p>What determined the result of this run?</p>
  </div>","83","html-slider-response","65","650262","0.0-5.0-1.11","35","1","2025-07-14 14:43:23","01610cd0009c79a99da7d0a3353eb402","89.154.153.225","Mozilla/5.0 (Macintosh; Intel Mac OS X 10_15_7) AppleWebKit/537.36 (KHTML, like Gecko) Chrome/138.0.0.0 Safari/537.36","Macintosh","Chrome","138.0.0.0","OS X","10_15_7","https://app.prolific.com/","pt-PT,pt;q=0.9,en-US;q=0.8,en;q=0.7,ca;q=0.6,fr;q=0.5,de;q=0.4","66db15814e7818d8b9593ad5","683db7602f5db6a34d12d064","6875173b5c9869b127479887","1","66db15814e7818d8b9593ad5","1","2025-07-14T14:54:15.004Z","","","","","","","","","","","AttribQ","","50","","","","","","","","","","","","","","","","","","","","","","","","","","","","",""
"1584","","<div style=""width:500px;"">
  <p>How much control did you have over the ball?</p>
  </div>","90","html-slider-response","66","651847","0.0-5.0-2.11","35","1","2025-07-14 14:43:23","01610cd0009c79a99da7d0a3353eb402","89.154.153.225","Mozilla/5.0 (Macintosh; Intel Mac OS X 10_15_7) AppleWebKit/537.36 (KHTML, like Gecko) Chrome/138.0.0.0 Safari/537.36","Macintosh","Chrome","138.0.0.0","OS X","10_15_7","https://app.prolific.com/","pt-PT,pt;q=0.9,en-US;q=0.8,en;q=0.7,ca;q=0.6,fr;q=0.5,de;q=0.4","66db15814e7818d8b9593ad5","683db7602f5db6a34d12d064","6875173b5c9869b127479887","1","66db15814e7818d8b9593ad5","1","2025-07-14T14:54:16.589Z","","","","","","","","","","","ControlQ","","50","","","","","","","","","","","","","","","","","","","","","","","","","","","","",""
"2520","","<div style=""width:500px;"">
  <p>How would you describe your current emotional state?</p>
  </div>","46","html-slider-response","67","654368","0.0-5.0-3.11","35","1","2025-07-14 14:43:23","01610cd0009c79a99da7d0a3353eb402","89.154.153.225","Mozilla/5.0 (Macintosh; Intel Mac OS X 10_15_7) AppleWebKit/537.36 (KHTML, like Gecko) Chrome/138.0.0.0 Safari/537.36","Macintosh","Chrome","138.0.0.0","OS X","10_15_7","https://app.prolific.com/","pt-PT,pt;q=0.9,en-US;q=0.8,en;q=0.7,ca;q=0.6,fr;q=0.5,de;q=0.4","66db15814e7818d8b9593ad5","683db7602f5db6a34d12d064","6875173b5c9869b127479887","1","66db15814e7818d8b9593ad5","1","2025-07-14T14:54:19.110Z","","","","","","","","","","","StressQ","","50","","","","","","","","","","","","","","","","","","","","","","","","","","","","",""
"1971","","<div style=""width:500px;"">
  <p>What best describes how you currently feel?</p>
  </div>","45","html-slider-response","68","656339","0.0-5.0-4.11","35","1","2025-07-14 14:43:23","01610cd0009c79a99da7d0a3353eb402","89.154.153.225","Mozilla/5.0 (Macintosh; Intel Mac OS X 10_15_7) AppleWebKit/537.36 (KHTML, like Gecko) Chrome/138.0.0.0 Safari/537.36","Macintosh","Chrome","138.0.0.0","OS X","10_15_7","https://app.prolific.com/","pt-PT,pt;q=0.9,en-US;q=0.8,en;q=0.7,ca;q=0.6,fr;q=0.5,de;q=0.4","66db15814e7818d8b9593ad5","683db7602f5db6a34d12d064","6875173b5c9869b127479887","1","66db15814e7818d8b9593ad5","1","2025-07-14T14:54:21.081Z","","","","","","","","","","","MotivationQ","","50","","","","","","","","","","","","","","","","","","","","","","","","","","","","",""
"","","","","ctl-task-cpt","69","705640","0.0-5.0-0.12","35","1","2025-07-14 14:43:23","01610cd0009c79a99da7d0a3353eb402","89.154.153.225","Mozilla/5.0 (Macintosh; Intel Mac OS X 10_15_7) AppleWebKit/537.36 (KHTML, like Gecko) Chrome/138.0.0.0 Safari/537.36","Macintosh","Chrome","138.0.0.0","OS X","10_15_7","https://app.prolific.com/","pt-PT,pt;q=0.9,en-US;q=0.8,en;q=0.7,ca;q=0.6,fr;q=0.5,de;q=0.4","66db15814e7818d8b9593ad5","683db7602f5db6a34d12d064","6875173b5c9869b127479887","1","66db15814e7818d8b9593ad5","1","2025-07-14T14:55:10.382Z","","","","","","","","","","","","","","win-only","2","g1:SE,g2:NW","0.7","13","0","658035.2","1062","6065.9","46290.2","1","4","4","6","2","-4","-4","11","15","0.08333333333333333","1692.8","3000","-3000","[""left"",""up""]","{""num_key_presses"":8,""num_perfect"":5,""num_errors"":0,""num_randdir"":3,""num_randdir_good_moves"":1,""num_whilered"":0,""num_whileblue"":0,""num_blue"":4,""num_good_moves"":6}","[731,737.796875,0.1,731,737.796875,104.1,731,737.796875,209,767,741.796875,313.7,1021,787.796875,413.7,1083,817.796875,518.5,1087,823.796875,624.1,1089,829.796875,728.6,1085,839.796875,833.4,989,837.796875,933.8,925,803.796875,1038.7,537,433.796875,1143.7,533,423.796875,1244.4,455,361.796875,1349,199,161.796875,1449.2,191,151.796875,1554.3,191,151.796875,1659.3,191,151.796875,1764.1,191,151.796875,1868.3,349,233.796875,1973.2,1305,775.796875,2073.8,1331,789.796875,2179.1,1331,789.796875,2284.2,1331,789.796875,2389.3,1331,789.796875,2494,1331,789.796875,2594.1,1331,789.796875,2698.6,1331,789.796875,2799.2,1331,789.796875,2903.9,1331,789.796875,3008.4,1331,789.796875,3113.6,1331,789.796875,3213.8,1331,789.796875,3314.1,1331,789.796875,3414.1,1331,789.796875,3518.7,1331,789.796875,3619.1,1331,789.796875,3719.1,1331,789.796875,3819.1,1331,789.796875,3923.5,1331,789.796875,4028.3,1331,789.796875,4128.8,1331,789.796875,4228.9,1331,789.796875,4329.1,1331,789.796875,4434,1331,789.796875,4538.9,1331,789.796875,4639.2,1331,789.796875,4744.1,1331,789.796875,4844.1,1331,789.796875,4948.1]","[8505.3,8505.3,2772.9,5240.3,492.1,""smooth"",""left"",""left"",""good_move"",11754.4,3248.8,2861.7,8505.6,387.1,""oops"",""left"",""right"",""bad_move"",14915.4,3160.5,2845.2,11754.9,315.3,""smooth"",""up"",""up"",""good_move"",18364.2,3448.5,3089.3,14915.7,359.2,""oops"",""up"",""down"",""bad_move"",21290.3,2925.7,2626.9,18364.6,298.8,""smooth"",""left"",""left"",""good_move"",24235.5,2945,2635.7,21290.5,309.3,""smooth"",""left"",""left"",""good_move"",30789.6,6553.9,2707.9,27754.6,327.1,""smooth"",""up"",""up"",""good_move"",33975.3,3185.4,2894.1,30789.9,291.3,""oops"",""up"",""left"",""good_move""]","",""
"1971","","<div style=""width:500px;"">
  <p>What determined the result of this run?</p>
  </div>","23","html-slider-response","70","707612","0.0-5.0-1.12","35","1","2025-07-14 14:43:23","01610cd0009c79a99da7d0a3353eb402","89.154.153.225","Mozilla/5.0 (Macintosh; Intel Mac OS X 10_15_7) AppleWebKit/537.36 (KHTML, like Gecko) Chrome/138.0.0.0 Safari/537.36","Macintosh","Chrome","138.0.0.0","OS X","10_15_7","https://app.prolific.com/","pt-PT,pt;q=0.9,en-US;q=0.8,en;q=0.7,ca;q=0.6,fr;q=0.5,de;q=0.4","66db15814e7818d8b9593ad5","683db7602f5db6a34d12d064","6875173b5c9869b127479887","1","66db15814e7818d8b9593ad5","1","2025-07-14T14:55:12.354Z","","","","","","","","","","","AttribQ","","50","","","","","","","","","","","","","","","","","","","","","","","","","","","","",""
"1422","","<div style=""width:500px;"">
  <p>How much control did you have over the ball?</p>
  </div>","25","html-slider-response","71","709035","0.0-5.0-2.12","35","1","2025-07-14 14:43:23","01610cd0009c79a99da7d0a3353eb402","89.154.153.225","Mozilla/5.0 (Macintosh; Intel Mac OS X 10_15_7) AppleWebKit/537.36 (KHTML, like Gecko) Chrome/138.0.0.0 Safari/537.36","Macintosh","Chrome","138.0.0.0","OS X","10_15_7","https://app.prolific.com/","pt-PT,pt;q=0.9,en-US;q=0.8,en;q=0.7,ca;q=0.6,fr;q=0.5,de;q=0.4","66db15814e7818d8b9593ad5","683db7602f5db6a34d12d064","6875173b5c9869b127479887","1","66db15814e7818d8b9593ad5","1","2025-07-14T14:55:13.778Z","","","","","","","","","","","ControlQ","","50","","","","","","","","","","","","","","","","","","","","","","","","","","","","",""
"4123","","<div style=""width:500px;"">
  <p>How would you describe your current emotional state?</p>
  </div>","64","html-slider-response","72","713159","0.0-5.0-3.12","35","1","2025-07-14 14:43:23","01610cd0009c79a99da7d0a3353eb402","89.154.153.225","Mozilla/5.0 (Macintosh; Intel Mac OS X 10_15_7) AppleWebKit/537.36 (KHTML, like Gecko) Chrome/138.0.0.0 Safari/537.36","Macintosh","Chrome","138.0.0.0","OS X","10_15_7","https://app.prolific.com/","pt-PT,pt;q=0.9,en-US;q=0.8,en;q=0.7,ca;q=0.6,fr;q=0.5,de;q=0.4","66db15814e7818d8b9593ad5","683db7602f5db6a34d12d064","6875173b5c9869b127479887","1","66db15814e7818d8b9593ad5","1","2025-07-14T14:55:17.901Z","","","","","","","","","","","StressQ","","50","","","","","","","","","","","","","","","","","","","","","","","","","","","","",""
"1831","","<div style=""width:500px;"">
  <p>What best describes how you currently feel?</p>
  </div>","47","html-slider-response","73","714991","0.0-5.0-4.12","35","1","2025-07-14 14:43:23","01610cd0009c79a99da7d0a3353eb402","89.154.153.225","Mozilla/5.0 (Macintosh; Intel Mac OS X 10_15_7) AppleWebKit/537.36 (KHTML, like Gecko) Chrome/138.0.0.0 Safari/537.36","Macintosh","Chrome","138.0.0.0","OS X","10_15_7","https://app.prolific.com/","pt-PT,pt;q=0.9,en-US;q=0.8,en;q=0.7,ca;q=0.6,fr;q=0.5,de;q=0.4","66db15814e7818d8b9593ad5","683db7602f5db6a34d12d064","6875173b5c9869b127479887","1","66db15814e7818d8b9593ad5","1","2025-07-14T14:55:19.733Z","","","","","","","","","","","MotivationQ","","50","","","","","","","","","","","","","","","","","","","","","","","","","","","","",""
"","","","","ctl-task-cpt","74","735392","0.0-5.0-0.13","35","1","2025-07-14 14:43:23","01610cd0009c79a99da7d0a3353eb402","89.154.153.225","Mozilla/5.0 (Macintosh; Intel Mac OS X 10_15_7) AppleWebKit/537.36 (KHTML, like Gecko) Chrome/138.0.0.0 Safari/537.36","Macintosh","Chrome","138.0.0.0","OS X","10_15_7","https://app.prolific.com/","pt-PT,pt;q=0.9,en-US;q=0.8,en;q=0.7,ca;q=0.6,fr;q=0.5,de;q=0.4","66db15814e7818d8b9593ad5","683db7602f5db6a34d12d064","6875173b5c9869b127479887","1","66db15814e7818d8b9593ad5","1","2025-07-14T14:55:40.134Z","","","","","","","","","","","","","","win-only","1","g1:NE,g2:SW","0.8","14","0","716686.1","1772.6","6776.2","17391","1","4","8","6","1","1","1","12","11","0.09090909090909091","1287.8","3000","1690","[""up"",""right""]","{""num_key_presses"":4,""num_perfect"":3,""num_errors"":0,""num_randdir"":1,""num_randdir_good_moves"":1,""num_whilered"":0,""num_whileblue"":0,""num_blue"":0,""num_good_moves"":4}","[731,725.796875,0.1,731,725.796875,103.1,731,725.796875,208.3,731,725.796875,312.5,731,725.796875,413,731,725.796875,518.6,731,725.796875,622.7,731,725.796875,723,731,723.796875,823.5,1235,199.796875,928.4,1317,155.796875,1028.5,1325,173.796875,1132.9,1325,173.796875,1233,1325,173.796875,1333.2,1325,173.796875,1438.5,1423,229.796875,1542.9,1707,437.796875,1643.4,1707,437.796875,1747.9,1707,437.796875,1853.2,1707,437.796875,1957.7,1707,437.796875,2057.7,1707,437.796875,2158.5,1707,437.796875,2262.6,1707,437.796875,2362.5,1707,437.796875,2462.9,1707,437.796875,2563.7,1707,437.796875,2668.3,1707,437.796875,2768.3,1707,437.796875,2868.6,1707,437.796875,2972.9,1707,437.796875,3073.4,1707,437.796875,3178.5,1707,437.796875,3282.9,1707,437.796875,3382.9,1707,437.796875,3488.6,1707,437.796875,3592.6,1707,437.796875,3692.6,1707,437.796875,3794.3,1707,437.796875,3897.6,1707,437.796875,3998.4,1707,437.796875,4098.6,1707,437.796875,4203,1707,437.796875,4303.2,1707,437.796875,4407.6,1707,437.796875,4508.2,1707,437.796875,4608.4,1707,437.796875,4713.1,1707,437.796875,4813.5,1707,437.796875,4913.5]","[1327.3,1327.3,1000,0,327.3,""smooth"",""up"",""up"",""good_move"",3803.9,2476.1,2149.8,1327.8,326.3,""smooth"",""up"",""up"",""good_move"",7455.5,3651.4,3314.1,3804.1,337.3,""smooth"",""right"",""right"",""good_move"",10519.9,3064.2,2722,7455.7,342.2,""oops"",""right"",""right"",""good_move""]","",""
"2512","","<div style=""width:500px;"">
  <p>What determined the result of this run?</p>
  </div>","67","html-slider-response","75","737906","0.0-5.0-1.13","35","1","2025-07-14 14:43:23","01610cd0009c79a99da7d0a3353eb402","89.154.153.225","Mozilla/5.0 (Macintosh; Intel Mac OS X 10_15_7) AppleWebKit/537.36 (KHTML, like Gecko) Chrome/138.0.0.0 Safari/537.36","Macintosh","Chrome","138.0.0.0","OS X","10_15_7","https://app.prolific.com/","pt-PT,pt;q=0.9,en-US;q=0.8,en;q=0.7,ca;q=0.6,fr;q=0.5,de;q=0.4","66db15814e7818d8b9593ad5","683db7602f5db6a34d12d064","6875173b5c9869b127479887","1","66db15814e7818d8b9593ad5","1","2025-07-14T14:55:42.648Z","","","","","","","","","","","AttribQ","","50","","","","","","","","","","","","","","","","","","","","","","","","","","","","",""
"1545","","<div style=""width:500px;"">
  <p>How much control did you have over the ball?</p>
  </div>","82","html-slider-response","76","739451","0.0-5.0-2.13","35","1","2025-07-14 14:43:23","01610cd0009c79a99da7d0a3353eb402","89.154.153.225","Mozilla/5.0 (Macintosh; Intel Mac OS X 10_15_7) AppleWebKit/537.36 (KHTML, like Gecko) Chrome/138.0.0.0 Safari/537.36","Macintosh","Chrome","138.0.0.0","OS X","10_15_7","https://app.prolific.com/","pt-PT,pt;q=0.9,en-US;q=0.8,en;q=0.7,ca;q=0.6,fr;q=0.5,de;q=0.4","66db15814e7818d8b9593ad5","683db7602f5db6a34d12d064","6875173b5c9869b127479887","1","66db15814e7818d8b9593ad5","1","2025-07-14T14:55:44.193Z","","","","","","","","","","","ControlQ","","50","","","","","","","","","","","","","","","","","","","","","","","","","","","","",""
"3786","","<div style=""width:500px;"">
  <p>How would you describe your current emotional state?</p>
  </div>","46","html-slider-response","77","743238","0.0-5.0-3.13","35","1","2025-07-14 14:43:23","01610cd0009c79a99da7d0a3353eb402","89.154.153.225","Mozilla/5.0 (Macintosh; Intel Mac OS X 10_15_7) AppleWebKit/537.36 (KHTML, like Gecko) Chrome/138.0.0.0 Safari/537.36","Macintosh","Chrome","138.0.0.0","OS X","10_15_7","https://app.prolific.com/","pt-PT,pt;q=0.9,en-US;q=0.8,en;q=0.7,ca;q=0.6,fr;q=0.5,de;q=0.4","66db15814e7818d8b9593ad5","683db7602f5db6a34d12d064","6875173b5c9869b127479887","1","66db15814e7818d8b9593ad5","1","2025-07-14T14:55:47.980Z","","","","","","","","","","","StressQ","","50","","","","","","","","","","","","","","","","","","","","","","","","","","","","",""
"2200","","<div style=""width:500px;"">
  <p>What best describes how you currently feel?</p>
  </div>","47","html-slider-response","78","745439","0.0-5.0-4.13","35","1","2025-07-14 14:43:23","01610cd0009c79a99da7d0a3353eb402","89.154.153.225","Mozilla/5.0 (Macintosh; Intel Mac OS X 10_15_7) AppleWebKit/537.36 (KHTML, like Gecko) Chrome/138.0.0.0 Safari/537.36","Macintosh","Chrome","138.0.0.0","OS X","10_15_7","https://app.prolific.com/","pt-PT,pt;q=0.9,en-US;q=0.8,en;q=0.7,ca;q=0.6,fr;q=0.5,de;q=0.4","66db15814e7818d8b9593ad5","683db7602f5db6a34d12d064","6875173b5c9869b127479887","1","66db15814e7818d8b9593ad5","1","2025-07-14T14:55:50.181Z","","","","","","","","","","","MotivationQ","","50","","","","","","","","","","","","","","","","","","","","","","","","","","","","",""
"","","","","ctl-task-cpt","79","763720","0.0-5.0-0.14","35","1","2025-07-14 14:43:23","01610cd0009c79a99da7d0a3353eb402","89.154.153.225","Mozilla/5.0 (Macintosh; Intel Mac OS X 10_15_7) AppleWebKit/537.36 (KHTML, like Gecko) Chrome/138.0.0.0 Safari/537.36","Macintosh","Chrome","138.0.0.0","OS X","10_15_7","https://app.prolific.com/","pt-PT,pt;q=0.9,en-US;q=0.8,en;q=0.7,ca;q=0.6,fr;q=0.5,de;q=0.4","66db15814e7818d8b9593ad5","683db7602f5db6a34d12d064","6875173b5c9869b127479887","1","66db15814e7818d8b9593ad5","1","2025-07-14T14:56:08.463Z","","","","","","","","","","","","","","win-only","3","g1:SW,g2:NE","0.9","15","0","747134.5","1078.7","6080.8","15271.2","1","4","8","6","1","1","1","13","12","0.09848484848484848","1560.7","3000","1725","[""down"",""left""]","{""num_key_presses"":4,""num_perfect"":4,""num_errors"":0,""num_randdir"":0,""num_randdir_good_moves"":0,""num_whilered"":0,""num_whileblue"":0,""num_blue"":0,""num_good_moves"":4}","[733,733.796875,0.2,733,733.796875,102.3,733,733.796875,207,733,733.796875,307.6,733,733.796875,411.7,733,733.796875,512.6,733,733.796875,617.3,733,733.796875,717.5,733,733.796875,822,733,733.796875,922.5,413,1011.796875,1027.1,207,1187.796875,1127.5,207,1189.796875,1231.6,181,1293.796875,1332.1,149,1413.796875,1437.4,149,1413.796875,1541.8,149,1413.796875,1641.8,149,1413.796875,1742,501,1293.796875,1847.2,1359,1185.796875,1952.6,1359,1185.796875,2052.6,1359,1185.796875,2157,1359,1185.796875,2257.2,1359,1185.796875,2362.5,1359,1185.796875,2467.7,1359,1185.796875,2571.8,1359,1185.796875,2672.5,1359,1185.796875,2772.7,1359,1185.796875,2877.6,1359,1185.796875,2977.6,1359,1185.796875,3082.2,1359,1185.796875,3186.6,1359,1185.796875,3286.7,1359,1185.796875,3386.8,1359,1185.796875,3487.3,1359,1185.796875,3592.4,1359,1185.796875,3698,1359,1185.796875,3801.7,1359,1185.796875,3906.9,1359,1185.796875,4011.7,1359,1185.796875,4112.4,1359,1185.796875,4216.4,1359,1185.796875,4317.6,1359,1185.796875,4422.5,1359,1185.796875,4527.5,1359,1185.796875,4631.9,1359,1185.796875,4737.3,1359,1185.796875,4837.4,1359,1185.796875,4941.8]","[1317.1,1317.1,1000,0,317.1,""smooth"",""down"",""down"",""good_move"",3840,2522.6,2194.9,1317.4,327.7,""smooth"",""left"",""left"",""good_move"",6249.1,2408.8,2088.7,3840.3,320.1,""smooth"",""down"",""down"",""good_move"",9101.3,2851.9,2512.8,6249.4,339.1,""smooth"",""left"",""left"",""good_move""]","",""
"2158","","<div style=""width:500px;"">
  <p>What determined the result of this run?</p>
  </div>","82","html-slider-response","80","765880","0.0-5.0-1.14","35","1","2025-07-14 14:43:23","01610cd0009c79a99da7d0a3353eb402","89.154.153.225","Mozilla/5.0 (Macintosh; Intel Mac OS X 10_15_7) AppleWebKit/537.36 (KHTML, like Gecko) Chrome/138.0.0.0 Safari/537.36","Macintosh","Chrome","138.0.0.0","OS X","10_15_7","https://app.prolific.com/","pt-PT,pt;q=0.9,en-US;q=0.8,en;q=0.7,ca;q=0.6,fr;q=0.5,de;q=0.4","66db15814e7818d8b9593ad5","683db7602f5db6a34d12d064","6875173b5c9869b127479887","1","66db15814e7818d8b9593ad5","1","2025-07-14T14:56:10.622Z","","","","","","","","","","","AttribQ","","50","","","","","","","","","","","","","","","","","","","","","","","","","","","","",""
"1937","","<div style=""width:500px;"">
  <p>How much control did you have over the ball?</p>
  </div>","83","html-slider-response","81","767818","0.0-5.0-2.14","35","1","2025-07-14 14:43:23","01610cd0009c79a99da7d0a3353eb402","89.154.153.225","Mozilla/5.0 (Macintosh; Intel Mac OS X 10_15_7) AppleWebKit/537.36 (KHTML, like Gecko) Chrome/138.0.0.0 Safari/537.36","Macintosh","Chrome","138.0.0.0","OS X","10_15_7","https://app.prolific.com/","pt-PT,pt;q=0.9,en-US;q=0.8,en;q=0.7,ca;q=0.6,fr;q=0.5,de;q=0.4","66db15814e7818d8b9593ad5","683db7602f5db6a34d12d064","6875173b5c9869b127479887","1","66db15814e7818d8b9593ad5","1","2025-07-14T14:56:12.560Z","","","","","","","","","","","ControlQ","","50","","","","","","","","","","","","","","","","","","","","","","","","","","","","",""
"2991","","<div style=""width:500px;"">
  <p>How would you describe your current emotional state?</p>
  </div>","45","html-slider-response","82","770810","0.0-5.0-3.14","35","1","2025-07-14 14:43:23","01610cd0009c79a99da7d0a3353eb402","89.154.153.225","Mozilla/5.0 (Macintosh; Intel Mac OS X 10_15_7) AppleWebKit/537.36 (KHTML, like Gecko) Chrome/138.0.0.0 Safari/537.36","Macintosh","Chrome","138.0.0.0","OS X","10_15_7","https://app.prolific.com/","pt-PT,pt;q=0.9,en-US;q=0.8,en;q=0.7,ca;q=0.6,fr;q=0.5,de;q=0.4","66db15814e7818d8b9593ad5","683db7602f5db6a34d12d064","6875173b5c9869b127479887","1","66db15814e7818d8b9593ad5","1","2025-07-14T14:56:15.552Z","","","","","","","","","","","StressQ","","50","","","","","","","","","","","","","","","","","","","","","","","","","","","","",""
"1677","","<div style=""width:500px;"">
  <p>What best describes how you currently feel?</p>
  </div>","47","html-slider-response","83","772488","0.0-5.0-4.14","35","1","2025-07-14 14:43:23","01610cd0009c79a99da7d0a3353eb402","89.154.153.225","Mozilla/5.0 (Macintosh; Intel Mac OS X 10_15_7) AppleWebKit/537.36 (KHTML, like Gecko) Chrome/138.0.0.0 Safari/537.36","Macintosh","Chrome","138.0.0.0","OS X","10_15_7","https://app.prolific.com/","pt-PT,pt;q=0.9,en-US;q=0.8,en;q=0.7,ca;q=0.6,fr;q=0.5,de;q=0.4","66db15814e7818d8b9593ad5","683db7602f5db6a34d12d064","6875173b5c9869b127479887","1","66db15814e7818d8b9593ad5","1","2025-07-14T14:56:17.230Z","","","","","","","","","","","MotivationQ","","50","","","","","","","","","","","","","","","","","","","","","","","","","","","","",""
"","","","","ctl-task-cpt","84","796684","0.0-5.0-0.15","35","1","2025-07-14 14:43:23","01610cd0009c79a99da7d0a3353eb402","89.154.153.225","Mozilla/5.0 (Macintosh; Intel Mac OS X 10_15_7) AppleWebKit/537.36 (KHTML, like Gecko) Chrome/138.0.0.0 Safari/537.36","Macintosh","Chrome","138.0.0.0","OS X","10_15_7","https://app.prolific.com/","pt-PT,pt;q=0.9,en-US;q=0.8,en;q=0.7,ca;q=0.6,fr;q=0.5,de;q=0.4","66db15814e7818d8b9593ad5","683db7602f5db6a34d12d064","6875173b5c9869b127479887","1","66db15814e7818d8b9593ad5","1","2025-07-14T14:56:41.426Z","","","","","","","","","","","","","","win-only","1","g1:NE,g2:SW","0.8","16","0","774183.1","1331.4","6335.4","21186","1","4","4","6","1","1","1","14","13","0.10606060606060606","1390.8","3000","1545","[""up"",""right""]","{""num_key_presses"":4,""num_perfect"":4,""num_errors"":0,""num_randdir"":0,""num_randdir_good_moves"":0,""num_whilered"":0,""num_whileblue"":0,""num_blue"":1,""num_good_moves"":4}","[707,725.796875,0.2,707,725.796875,104.6,707,725.796875,205.2,741,725.796875,308.7,1039,729.796875,409.5,1091,729.796875,509.5,1101,729.796875,613.7,1287,369.796875,713.7,1317,257.796875,814.4,1317,255.796875,914.6,1317,255.796875,1014.7,1317,255.796875,1119.1,1317,187.796875,1219.4,1317,187.796875,1319.8,1317,187.796875,1424.1,1317,187.796875,1525,1489,279.796875,1629.8,1843,623.796875,1734.2,1843,623.796875,1834.6,1843,623.796875,1934.8,1843,623.796875,2039.2,1843,623.796875,2139.6,1843,623.796875,2244.7,1843,623.796875,2349.4,1843,623.796875,2454.6,1843,623.796875,2559.5,1843,623.796875,2664.3,1843,623.796875,2769.1,1843,623.796875,2869.7,1843,623.796875,2974.3,1843,623.796875,3079.2,1843,623.796875,3179.9,1843,623.796875,3284.6,1843,623.796875,3389.7,1843,623.796875,3494.4,1843,623.796875,3598.7,1843,623.796875,3699.5,1843,623.796875,3804,1843,623.796875,3904.6,1843,623.796875,4007.1,1843,623.796875,4109.3,1843,623.796875,4214.3,1843,623.796875,4314.8,1843,623.796875,4419.1,1843,623.796875,4519.3,1843,623.796875,4624.5,1843,623.796875,4724.7,1843,623.796875,4829.1,1843,623.796875,4933.8]","[1306.6,1306.6,1000,0,306.6,""smooth"",""up"",""up"",""good_move"",4382,3075.2,2719.1,1306.8,356.1,""smooth"",""up"",""up"",""good_move"",11658.1,7276,3326.8,7945.2,386.1,""smooth"",""right"",""right"",""good_move"",14764.6,3106.2,2675.6,11658.4,430.6,""smooth"",""right"",""right"",""good_move""]","",""
"3071","","<div style=""width:500px;"">
  <p>What determined the result of this run?</p>
  </div>","85","html-slider-response","85","799755","0.0-5.0-1.15","35","1","2025-07-14 14:43:23","01610cd0009c79a99da7d0a3353eb402","89.154.153.225","Mozilla/5.0 (Macintosh; Intel Mac OS X 10_15_7) AppleWebKit/537.36 (KHTML, like Gecko) Chrome/138.0.0.0 Safari/537.36","Macintosh","Chrome","138.0.0.0","OS X","10_15_7","https://app.prolific.com/","pt-PT,pt;q=0.9,en-US;q=0.8,en;q=0.7,ca;q=0.6,fr;q=0.5,de;q=0.4","66db15814e7818d8b9593ad5","683db7602f5db6a34d12d064","6875173b5c9869b127479887","1","66db15814e7818d8b9593ad5","1","2025-07-14T14:56:44.498Z","","","","","","","","","","","AttribQ","","50","","","","","","","","","","","","","","","","","","","","","","","","","","","","",""
"1848","","<div style=""width:500px;"">
  <p>How much control did you have over the ball?</p>
  </div>","96","html-slider-response","86","801604","0.0-5.0-2.15","35","1","2025-07-14 14:43:23","01610cd0009c79a99da7d0a3353eb402","89.154.153.225","Mozilla/5.0 (Macintosh; Intel Mac OS X 10_15_7) AppleWebKit/537.36 (KHTML, like Gecko) Chrome/138.0.0.0 Safari/537.36","Macintosh","Chrome","138.0.0.0","OS X","10_15_7","https://app.prolific.com/","pt-PT,pt;q=0.9,en-US;q=0.8,en;q=0.7,ca;q=0.6,fr;q=0.5,de;q=0.4","66db15814e7818d8b9593ad5","683db7602f5db6a34d12d064","6875173b5c9869b127479887","1","66db15814e7818d8b9593ad5","1","2025-07-14T14:56:46.346Z","","","","","","","","","","","ControlQ","","50","","","","","","","","","","","","","","","","","","","","","","","","","","","","",""
"2960","","<div style=""width:500px;"">
  <p>How would you describe your current emotional state?</p>
  </div>","43","html-slider-response","87","804565","0.0-5.0-3.15","35","1","2025-07-14 14:43:23","01610cd0009c79a99da7d0a3353eb402","89.154.153.225","Mozilla/5.0 (Macintosh; Intel Mac OS X 10_15_7) AppleWebKit/537.36 (KHTML, like Gecko) Chrome/138.0.0.0 Safari/537.36","Macintosh","Chrome","138.0.0.0","OS X","10_15_7","https://app.prolific.com/","pt-PT,pt;q=0.9,en-US;q=0.8,en;q=0.7,ca;q=0.6,fr;q=0.5,de;q=0.4","66db15814e7818d8b9593ad5","683db7602f5db6a34d12d064","6875173b5c9869b127479887","1","66db15814e7818d8b9593ad5","1","2025-07-14T14:56:49.307Z","","","","","","","","","","","StressQ","","50","","","","","","","","","","","","","","","","","","","","","","","","","","","","",""
"2354","","<div style=""width:500px;"">
  <p>What best describes how you currently feel?</p>
