"rt","response_timestamp","stimulus","response","trial_type","trial_index","time_elapsed","internal_node_id","run_id","condition","recorded_at","source_code_version","ip","user_agent","device","browser","browser_version","platform","platform_version","referer","accept_language","PROLIFIC_PID","STUDY_ID","SESSION_ID","WEEK","BATCH","prolific_id","week","batch","realtime","success","responses","item_order","radio_event_ids","radio_event_times","key_event_times","mouse_event_times","straightlining","zigzagging","honeypot","eventType","view_history","slider_start","which_type","canvas_config","goals_layout","control_level","trial_number","tutorial_trial_number","trial_start_time","phase1_start_time","phase2_start_time","phase3_start_time","goal_1_value","goal_1_distance","goal_2_value","goal_2_distance","goal_selected","outcome","outcome_total","participant_final_score","participant_initial_score","participant_final_score_prop","goal_choice_rt","allocated_time","allocated_time_remaining","goal_direction","counts","mouse_movements","key_presses","question_order","question_id"
"5703","1752653861318","<p style='font-size:40px;line-height:1.25'><strong>Welcome to the experiment!</strong></p><p style='font-size:1.1em;line-height:1.25'>Thank you for participanting in our experiment again! You will be asked to play the Dysfunctional Ball Game again. We will briefly recap the rules before we start.</p><p style='font-size:1.1em;line-height:1.25'>Press <strong>Next</strong> to continue.</p>","0","custom-html-button-response","0","5705","0.0-0.0","41","1","2025-07-16 08:17:33","1f75c3e559b7213887762d5229550c2b","41.56.153.67","Mozilla/5.0 (Windows NT 10.0; Win64; x64) AppleWebKit/537.36 (KHTML, like Gecko) Chrome/138.0.0.0 Safari/537.36","WebKit","Chrome","138.0.0.0","Windows","10.0","https://app.prolific.com/","en-ZA,en-GB;q=0.9,en-US;q=0.8,en;q=0.7","60292aabf20c7d2af65541a7","686e379bc37a29ffa5cdc956","687760135eeea959a6c60763","1","1","60292aabf20c7d2af65541a7","1","1","2025-07-16T08:17:41.320Z","","","","","","","","","","","","","","","","","","","","","","","","","","","","","","","","","","","","","","","","","",""
"38965","","","","fullscreen","1","45676","0.0-1.0","41","1","2025-07-16 08:17:33","1f75c3e559b7213887762d5229550c2b","41.56.153.67","Mozilla/5.0 (Windows NT 10.0; Win64; x64) AppleWebKit/537.36 (KHTML, like Gecko) Chrome/138.0.0.0 Safari/537.36","WebKit","Chrome","138.0.0.0","Windows","10.0","https://app.prolific.com/","en-ZA,en-GB;q=0.9,en-US;q=0.8,en;q=0.7","60292aabf20c7d2af65541a7","686e379bc37a29ffa5cdc956","687760135eeea959a6c60763","1","1","60292aabf20c7d2af65541a7","1","1","","true","","","","","","","","","","","","","","","","","","","","","","","","","","","","","","","","","","","","","","","","",""
"3713","1752653905006","<p style='font-size:1.1em;line-height:1.25'>In the following, we will ask you a few questions relating to your feelings in the last 24 hours.<br></p><p style='font-size:1.1em;line-height:1.25'>Press the <strong>Next</strong> button to continue.</p>","0","custom-html-button-response","2","49392","0.0-2.0-0.0","41","1","2025-07-16 08:17:33","1f75c3e559b7213887762d5229550c2b","41.56.153.67","Mozilla/5.0 (Windows NT 10.0; Win64; x64) AppleWebKit/537.36 (KHTML, like Gecko) Chrome/138.0.0.0 Safari/537.36","WebKit","Chrome","138.0.0.0","Windows","10.0","https://app.prolific.com/","en-ZA,en-GB;q=0.9,en-US;q=0.8,en;q=0.7","60292aabf20c7d2af65541a7","686e379bc37a29ffa5cdc956","687760135eeea959a6c60763","1","1","60292aabf20c7d2af65541a7","1","1","2025-07-16T08:18:25.006Z","","","","","","","","","","","","","","","","","","","","","","","","","","","","","","","","","","","","","","","","","",""
"73584.59999999404","","","","survey-template","3","122982","0.0-2.0-1.0","41","1","2025-07-16 08:17:33","1f75c3e559b7213887762d5229550c2b","41.56.153.67","Mozilla/5.0 (Windows NT 10.0; Win64; x64) AppleWebKit/537.36 (KHTML, like Gecko) Chrome/138.0.0.0 Safari/537.36","WebKit","Chrome","138.0.0.0","Windows","10.0","https://app.prolific.com/","en-ZA,en-GB;q=0.9,en-US;q=0.8,en;q=0.7","60292aabf20c7d2af65541a7","686e379bc37a29ffa5cdc956","687760135eeea959a6c60763","1","1","60292aabf20c7d2af65541a7","1","1","2025-07-16T08:19:38.596Z","","{""Q01"":""0"",""Q02"":""0"",""Q03"":""0"",""Q04"":""0"",""Q05"":""0"",""Q06"":""0"",""Q07"":""0"",""Q08"":""0"",""Q09"":""0"",""Q10"":""0"",""Q11"":""0"",""Q12"":""0"",""Q13"":""5"",""Q14"":""0"",""Q15"":""0"",""Q16"":""0"",""Q17"":""0"",""Q18"":""0"",""Q19"":""1"",""Q20"":""1"",""Q21"":""1"",""Q22"":""0""}","[0,1,2,3,4,5,6,7,8,9,10,11,12,13,14,15,16,17,18,19,20,21]","[""Q01"",""Q02"",""Q03"",""Q04"",""Q05"",""Q06"",""Q07"",""Q08"",""Q09"",""Q10"",""Q11"",""Q12"",""Q13"",""Q14"",""Q15"",""Q16"",""Q17"",""Q18"",""Q19"",""Q20"",""Q21"",""Q22""]","[4140.70000000298,8412.59999999404,9292.70000000298,10564.79999999702,11644.59999999404,15172.70000000298,16468.59999999404,18924.59999999404,28260.5,29604.59999999404,31124.59999999404,31980.5,34820.40000000596,39100.40000000596,40524.40000000596,43308.29999999702,44684.29999999702,45876.5,51028.40000000596,58444.40000000596,66660.29999999702,72532.29999999702]","[]","[0.09999999403953552,4140.70000000298,4932.5999999940395,6700.4000000059605,7340.5999999940395,8412.59999999404,9292.70000000298,10564.79999999702,11644.59999999404,13180.90000000596,15172.70000000298,16468.59999999404,18924.59999999404,28260.5,28900.70000000298,29604.59999999404,30268.70000000298,31124.59999999404,31980.5,34820.40000000596,39100.40000000596,40524.40000000596,41644.59999999404,42652.70000000298,43308.29999999702,44684.29999999702,45876.5,51028.40000000596,58444.40000000596,66660.29999999702,71436.5,72532.29999999702,73580.70000000298]","0.8181818181818182","0.19047619047619047","0","drsp","","","","","","","","","","","","","","","","","","","","","","","","","","","","","","",""
"15592.29999999702","","","","survey-template","4","138577","0.0-2.0-2.0","41","1","2025-07-16 08:17:33","1f75c3e559b7213887762d5229550c2b","41.56.153.67","Mozilla/5.0 (Windows NT 10.0; Win64; x64) AppleWebKit/537.36 (KHTML, like Gecko) Chrome/138.0.0.0 Safari/537.36","WebKit","Chrome","138.0.0.0","Windows","10.0","https://app.prolific.com/","en-ZA,en-GB;q=0.9,en-US;q=0.8,en;q=0.7","60292aabf20c7d2af65541a7","686e379bc37a29ffa5cdc956","687760135eeea959a6c60763","1","1","60292aabf20c7d2af65541a7","1","1","2025-07-16T08:19:54.191Z","","{""Q01"":""0"",""Q02"":""5"",""Q03"":""0""}","[0,1,2]","[""Q01"",""Q02"",""Q03""]","[7215.5,12335.09999999404,14679.29999999702]","[]","[7215.5,11295.39999999106,12335.09999999404,13879.39999999106,14679.29999999702,15591.5]","1","0","0","stress","","","","","","","","","","","","","","","","","","","","","","","","","","","","","","",""
"12806","","","","instructions","5","151384","0.0-3.0-0.0","41","1","2025-07-16 08:17:33","1f75c3e559b7213887762d5229550c2b","41.56.153.67","Mozilla/5.0 (Windows NT 10.0; Win64; x64) AppleWebKit/537.36 (KHTML, like Gecko) Chrome/138.0.0.0 Safari/537.36","WebKit","Chrome","138.0.0.0","Windows","10.0","https://app.prolific.com/","en-ZA,en-GB;q=0.9,en-US;q=0.8,en;q=0.7","60292aabf20c7d2af65541a7","686e379bc37a29ffa5cdc956","687760135eeea959a6c60763","1","1","60292aabf20c7d2af65541a7","1","1","","","","","","","","","","","","","[{""page_index"":0,""viewing_time"":12805}]","","","","","","","","","","","","","","","","","","","","","","","","","","","","","",""
"15934","","<p>Before you start with this game please answer the following three questions yourself. </p>
  <p>Through this game, we measure several aspects of your cognitive performance, such as reaction times, multi-tasking capabilities </p>
  <p>and the ability to assess the situation you are in.</p>
  <p></p>
  <p><b>How good do you usually are in such tasks?</b></p>","77","html-slider-response","6","167320","0.0-4.0-0.0","41","1","2025-07-16 08:17:33","1f75c3e559b7213887762d5229550c2b","41.56.153.67","Mozilla/5.0 (Windows NT 10.0; Win64; x64) AppleWebKit/537.36 (KHTML, like Gecko) Chrome/138.0.0.0 Safari/537.36","WebKit","Chrome","138.0.0.0","Windows","10.0","https://app.prolific.com/","en-ZA,en-GB;q=0.9,en-US;q=0.8,en;q=0.7","60292aabf20c7d2af65541a7","686e379bc37a29ffa5cdc956","687760135eeea959a6c60763","1","1","60292aabf20c7d2af65541a7","1","1","2025-07-16T08:20:22.934Z","","","","","","","","","","","PreSkillQ","","50","","","","","","","","","","","","","","","","","","","","","","","","","","","","",""
"5590","","<div style=""width:500px;"">
  <p>How well do you think you will perform in this task compared to other participants?</p>
  </div>","74","html-slider-response","7","172912","0.0-4.0-1.0","41","1","2025-07-16 08:17:33","1f75c3e559b7213887762d5229550c2b","41.56.153.67","Mozilla/5.0 (Windows NT 10.0; Win64; x64) AppleWebKit/537.36 (KHTML, like Gecko) Chrome/138.0.0.0 Safari/537.36","WebKit","Chrome","138.0.0.0","Windows","10.0","https://app.prolific.com/","en-ZA,en-GB;q=0.9,en-US;q=0.8,en;q=0.7","60292aabf20c7d2af65541a7","686e379bc37a29ffa5cdc956","687760135eeea959a6c60763","1","1","60292aabf20c7d2af65541a7","1","1","2025-07-16T08:20:28.526Z","","","","","","","","","","","PrePerfQ","","50","","","","","","","","","","","","","","","","","","","","","","","","","","","","",""
"5287","","<div style=""width:500px;"">
  <p>What best describes how you currently feel?</p>
  </div>","94","html-slider-response","8","178200","0.0-4.0-2.0","41","1","2025-07-16 08:17:33","1f75c3e559b7213887762d5229550c2b","41.56.153.67","Mozilla/5.0 (Windows NT 10.0; Win64; x64) AppleWebKit/537.36 (KHTML, like Gecko) Chrome/138.0.0.0 Safari/537.36","WebKit","Chrome","138.0.0.0","Windows","10.0","https://app.prolific.com/","en-ZA,en-GB;q=0.9,en-US;q=0.8,en;q=0.7","60292aabf20c7d2af65541a7","686e379bc37a29ffa5cdc956","687760135eeea959a6c60763","1","1","60292aabf20c7d2af65541a7","1","1","2025-07-16T08:20:33.814Z","","","","","","","","","","","PreMotivationQ","","50","","","","","","","","","","","","","","","","","","","","","","","","","","","","",""
"","","","","ctl-task-cpt","9","217755","0.0-5.0-0.0","41","1","2025-07-16 08:17:33","1f75c3e559b7213887762d5229550c2b","41.56.153.67","Mozilla/5.0 (Windows NT 10.0; Win64; x64) AppleWebKit/537.36 (KHTML, like Gecko) Chrome/138.0.0.0 Safari/537.36","WebKit","Chrome","138.0.0.0","Windows","10.0","https://app.prolific.com/","en-ZA,en-GB;q=0.9,en-US;q=0.8,en;q=0.7","60292aabf20c7d2af65541a7","686e379bc37a29ffa5cdc956","687760135eeea959a6c60763","1","1","60292aabf20c7d2af65541a7","1","1","2025-07-16T08:21:13.370Z","","","","","","","","","","","","","","win-only","3","g1:SW,g2:NE","1","1","0","181118.8","9174.6","14176.3","36548.9","1","4","8","6","1","1","1","1","0","0.007575757575757576","1479.2","3000","1315","[""down"",""left""]","{""num_key_presses"":4,""num_perfect"":4,""num_errors"":0,""num_randdir"":0,""num_randdir_good_moves"":0,""num_whilered"":0,""num_whileblue"":0,""num_blue"":3,""num_good_moves"":4}","[346.14285714285717,353.04910714285717,0.4,346.14285714285717,353.04910714285717,101.7,346.14285714285717,353.04910714285717,210.5,346.14285714285717,353.04910714285717,311.7,346.14285714285717,353.04910714285717,417.7,346.14285714285717,353.04910714285717,521.7,342.14285714285717,375.04910714285717,628.2,304.14285714285717,398.04910714285717,732.9,198.14285714285714,542.0491071428571,836.9,123.14285714285714,573.0491071428571,944.5,123.14285714285714,574.0491071428571,1047.7,123.14285714285714,577.0491071428571,1151.7,100.14285714285714,612.0491071428571,1251.7,84.14285714285714,616.0491071428571,1352.8,82.14285714285714,616.0491071428571,1461.2,82.14285714285714,616.0491071428571,1561.4,82.14285714285714,616.0491071428571,1667.8,82.14285714285714,616.0491071428571,1767.8,276.14285714285717,606.0491071428571,1878.7,352.14285714285717,587.0491071428571,1982.7,352.14285714285717,587.0491071428571,2086.2,352.14285714285717,587.0491071428571,2189.7,353.14285714285717,587.0491071428571,2295.3,353.14285714285717,587.0491071428571,2397,353.14285714285717,587.0491071428571,2501.8,353.14285714285717,587.0491071428571,2607,353.14285714285717,587.0491071428571,2713.7,353.14285714285717,587.0491071428571,2816.7,353.14285714285717,587.0491071428571,2916.7,353.14285714285717,587.0491071428571,3016.7,353.14285714285717,587.0491071428571,3126.7,353.14285714285717,587.0491071428571,3226.9,353.14285714285717,587.0491071428571,3327,353.14285714285717,587.0491071428571,3427.1,353.14285714285717,587.0491071428571,3531.5,353.14285714285717,587.0491071428571,3636.4,353.14285714285717,587.0491071428571,3736.5,353.14285714285717,587.0491071428571,3836.5,353.14285714285717,587.0491071428571,3937.4,353.14285714285717,587.0491071428571,4044.6,353.14285714285717,587.0491071428571,4147.2,353.14285714285717,587.0491071428571,4252.6,353.14285714285717,587.0491071428571,4356.7,353.14285714285717,587.0491071428571,4459.2,353.14285714285717,587.0491071428571,4559.6,353.14285714285717,587.0491071428571,4660.4,353.14285714285717,587.0491071428571,4760.7,353.14285714285717,587.0491071428571,4861.5,353.14285714285717,587.0491071428571,4966.4]","[2029.5,2029.5,1000,0,1029.5,""smooth"",""down"",""down"",""good_move"",5132.4,3102,2467.6,2030.6,634.2,""smooth"",""down"",""down"",""good_move"",19122.4,13989.5,2857.5,15609.7,655.2,""smooth"",""left"",""left"",""good_move"",22275.9,3153,2512.9,19122.9,640.1,""smooth"",""left"",""left"",""good_move""]","",""
"4514","","<div style=""width:500px;"">
  <p>What determined the result of this run?</p>
  </div>","97","html-slider-response","10","222271","0.0-5.0-1.0","41","1","2025-07-16 08:17:33","1f75c3e559b7213887762d5229550c2b","41.56.153.67","Mozilla/5.0 (Windows NT 10.0; Win64; x64) AppleWebKit/537.36 (KHTML, like Gecko) Chrome/138.0.0.0 Safari/537.36","WebKit","Chrome","138.0.0.0","Windows","10.0","https://app.prolific.com/","en-ZA,en-GB;q=0.9,en-US;q=0.8,en;q=0.7","60292aabf20c7d2af65541a7","686e379bc37a29ffa5cdc956","687760135eeea959a6c60763","1","1","60292aabf20c7d2af65541a7","1","1","2025-07-16T08:21:17.886Z","","","","","","","","","","","AttribQ","","50","","","","","","","","","","","","","","","","","","","","","","","","","","","","",""
"2727","","<div style=""width:500px;"">
  <p>How much control did you have over the ball?</p>
  </div>","100","html-slider-response","11","225000","0.0-5.0-2.0","41","1","2025-07-16 08:17:33","1f75c3e559b7213887762d5229550c2b","41.56.153.67","Mozilla/5.0 (Windows NT 10.0; Win64; x64) AppleWebKit/537.36 (KHTML, like Gecko) Chrome/138.0.0.0 Safari/537.36","WebKit","Chrome","138.0.0.0","Windows","10.0","https://app.prolific.com/","en-ZA,en-GB;q=0.9,en-US;q=0.8,en;q=0.7","60292aabf20c7d2af65541a7","686e379bc37a29ffa5cdc956","687760135eeea959a6c60763","1","1","60292aabf20c7d2af65541a7","1","1","2025-07-16T08:21:20.614Z","","","","","","","","","","","ControlQ","","50","","","","","","","","","","","","","","","","","","","","","","","","","","","","",""
"5007","","<div style=""width:500px;"">
  <p>How would you describe your current emotional state?</p>
  </div>","45","html-slider-response","12","230008","0.0-5.0-3.0","41","1","2025-07-16 08:17:33","1f75c3e559b7213887762d5229550c2b","41.56.153.67","Mozilla/5.0 (Windows NT 10.0; Win64; x64) AppleWebKit/537.36 (KHTML, like Gecko) Chrome/138.0.0.0 Safari/537.36","WebKit","Chrome","138.0.0.0","Windows","10.0","https://app.prolific.com/","en-ZA,en-GB;q=0.9,en-US;q=0.8,en;q=0.7","60292aabf20c7d2af65541a7","686e379bc37a29ffa5cdc956","687760135eeea959a6c60763","1","1","60292aabf20c7d2af65541a7","1","1","2025-07-16T08:21:25.622Z","","","","","","","","","","","StressQ","","50","","","","","","","","","","","","","","","","","","","","","","","","","","","","",""
"4367","","<div style=""width:500px;"">
  <p>What best describes how you currently feel?</p>
  </div>","100","html-slider-response","13","234376","0.0-5.0-4.0","41","1","2025-07-16 08:17:33","1f75c3e559b7213887762d5229550c2b","41.56.153.67","Mozilla/5.0 (Windows NT 10.0; Win64; x64) AppleWebKit/537.36 (KHTML, like Gecko) Chrome/138.0.0.0 Safari/537.36","WebKit","Chrome","138.0.0.0","Windows","10.0","https://app.prolific.com/","en-ZA,en-GB;q=0.9,en-US;q=0.8,en;q=0.7","60292aabf20c7d2af65541a7","686e379bc37a29ffa5cdc956","687760135eeea959a6c60763","1","1","60292aabf20c7d2af65541a7","1","1","2025-07-16T08:21:29.990Z","","","","","","","","","","","MotivationQ","","50","","","","","","","","","","","","","","","","","","","","","","","","","","","","",""
"","","","","ctl-task-cpt","14","265227","0.0-5.0-0.1","41","1","2025-07-16 08:17:33","1f75c3e559b7213887762d5229550c2b","41.56.153.67","Mozilla/5.0 (Windows NT 10.0; Win64; x64) AppleWebKit/537.36 (KHTML, like Gecko) Chrome/138.0.0.0 Safari/537.36","WebKit","Chrome","138.0.0.0","Windows","10.0","https://app.prolific.com/","en-ZA,en-GB;q=0.9,en-US;q=0.8,en;q=0.7","60292aabf20c7d2af65541a7","686e379bc37a29ffa5cdc956","687760135eeea959a6c60763","1","1","60292aabf20c7d2af65541a7","1","1","2025-07-16T08:22:00.842Z","","","","","","","","","","","","","","win-only","0","g1:NW,g2:SE","0.9","2","0","237292.8","2504","7507.1","27841.6","1","4","4","6","1","1","1","2","1","0.015151515151515152","3520.4","3000","375","[""left"",""up""]","{""num_key_presses"":6,""num_perfect"":5,""num_errors"":0,""num_randdir"":1,""num_randdir_good_moves"":0,""num_whilered"":0,""num_whileblue"":0,""num_blue"":1,""num_good_moves"":5}","[354.14285714285717,342.04910714285717,0.3,354.14285714285717,342.04910714285717,102.8,352.14285714285717,342.04910714285717,208.2,352.14285714285717,342.04910714285717,317,352.14285714285717,342.04910714285717,417.5,352.14285714285717,342.04910714285717,517.6,352.14285714285717,342.04910714285717,617.6,352.14285714285717,342.04910714285717,722.3,352.14285714285717,342.04910714285717,827.2,352.14285714285717,342.04910714285717,928.3,352.14285714285717,342.04910714285717,1028.3,352.14285714285717,342.04910714285717,1138.7,352.14285714285717,342.04910714285717,1242.3,352.14285714285717,342.04910714285717,1347.1,352.14285714285717,342.04910714285717,1452,352.14285714285717,342.04910714285717,1553.1,352.14285714285717,342.04910714285717,1658.1,352.14285714285717,342.04910714285717,1762,352.14285714285717,342.04910714285717,1868.3,352.14285714285717,342.04910714285717,1972.1,352.14285714285717,342.04910714285717,2073.1,352.14285714285717,342.04910714285717,2173.1,352.14285714285717,342.04910714285717,2287,352.14285714285717,342.04910714285717,2387.1,352.14285714285717,342.04910714285717,2487.2,351.14285714285717,345.04910714285717,2593.1,209.14285714285714,174.04910714285714,2693.2,129.14285714285714,118.04910714285714,2802.2,123.14285714285714,107.04910714285714,2907,110.14285714285714,107.04910714285714,3012.5,97.14285714285714,104.04910714285714,3117.8,96.14285714285714,104.04910714285714,3220.1,95.14285714285714,103.04910714285714,3322.1,95.14285714285714,103.04910714285714,3422.2,95.14285714285714,103.04910714285714,3529.3,90.14285714285714,101.04910714285714,3633.9,90.14285714285714,101.04910714285714,3734.4,90.14285714285714,101.04910714285714,3837.9,90.14285714285714,101.04910714285714,3938,90.14285714285714,101.04910714285714,4041.9,90.14285714285714,101.04910714285714,4141.9,90.14285714285714,102.04910714285714,4241.9,100.14285714285714,127.04910714285714,4341.9,102.14285714285714,130.04910714285714,4442,105.14285714285714,143.04910714285714,4549.9,105.14285714285714,143.04910714285714,4651.9,155.14285714285714,241.04910714285714,4751.9,152.14285714285714,280.04910714285717,4852.2,152.14285714285714,280.04910714285717,4957.9]","[1531.4,1531.4,1000,0,531.4,""smooth"",""up"",""up"",""good_move"",5246.7,3714.7,3053.9,1532,660.8,""smooth"",""up"",""up"",""good_move"",8280,3033,2553.8,5247,479.2,""smooth"",""left"",""left"",""good_move"",10835.1,2554.6,2101.9,8280.5,452.7,""oops"",""left"",""right"",""bad_move"",14187.5,3351.9,2902.2,10835.6,449.7,""smooth"",""left"",""left"",""good_move"",20244,6056,2330.3,17413.7,500,""smooth"",""left"",""left"",""good_move""]","",""
"3498","","<div style=""width:500px;"">
  <p>What determined the result of this run?</p>
  </div>","97","html-slider-response","15","268728","0.0-5.0-1.1","41","1","2025-07-16 08:17:33","1f75c3e559b7213887762d5229550c2b","41.56.153.67","Mozilla/5.0 (Windows NT 10.0; Win64; x64) AppleWebKit/537.36 (KHTML, like Gecko) Chrome/138.0.0.0 Safari/537.36","WebKit","Chrome","138.0.0.0","Windows","10.0","https://app.prolific.com/","en-ZA,en-GB;q=0.9,en-US;q=0.8,en;q=0.7","60292aabf20c7d2af65541a7","686e379bc37a29ffa5cdc956","687760135eeea959a6c60763","1","1","60292aabf20c7d2af65541a7","1","1","2025-07-16T08:22:04.342Z","","","","","","","","","","","AttribQ","","50","","","","","","","","","","","","","","","","","","","","","","","","","","","","",""
"4127","","<div style=""width:500px;"">
  <p>How much control did you have over the ball?</p>
  </div>","83","html-slider-response","16","272855","0.0-5.0-2.1","41","1","2025-07-16 08:17:33","1f75c3e559b7213887762d5229550c2b","41.56.153.67","Mozilla/5.0 (Windows NT 10.0; Win64; x64) AppleWebKit/537.36 (KHTML, like Gecko) Chrome/138.0.0.0 Safari/537.36","WebKit","Chrome","138.0.0.0","Windows","10.0","https://app.prolific.com/","en-ZA,en-GB;q=0.9,en-US;q=0.8,en;q=0.7","60292aabf20c7d2af65541a7","686e379bc37a29ffa5cdc956","687760135eeea959a6c60763","1","1","60292aabf20c7d2af65541a7","1","1","2025-07-16T08:22:08.470Z","","","","","","","","","","","ControlQ","","50","","","","","","","","","","","","","","","","","","","","","","","","","","","","",""
"3847","","<div style=""width:500px;"">
  <p>How would you describe your current emotional state?</p>
  </div>","40","html-slider-response","17","276704","0.0-5.0-3.1","41","1","2025-07-16 08:17:33","1f75c3e559b7213887762d5229550c2b","41.56.153.67","Mozilla/5.0 (Windows NT 10.0; Win64; x64) AppleWebKit/537.36 (KHTML, like Gecko) Chrome/138.0.0.0 Safari/537.36","WebKit","Chrome","138.0.0.0","Windows","10.0","https://app.prolific.com/","en-ZA,en-GB;q=0.9,en-US;q=0.8,en;q=0.7","60292aabf20c7d2af65541a7","686e379bc37a29ffa5cdc956","687760135eeea959a6c60763","1","1","60292aabf20c7d2af65541a7","1","1","2025-07-16T08:22:12.318Z","","","","","","","","","","","StressQ","","50","","","","","","","","","","","","","","","","","","","","","","","","","","","","",""
"2886","","<div style=""width:500px;"">
  <p>What best describes how you currently feel?</p>
  </div>","100","html-slider-response","18","279592","0.0-5.0-4.1","41","1","2025-07-16 08:17:33","1f75c3e559b7213887762d5229550c2b","41.56.153.67","Mozilla/5.0 (Windows NT 10.0; Win64; x64) AppleWebKit/537.36 (KHTML, like Gecko) Chrome/138.0.0.0 Safari/537.36","WebKit","Chrome","138.0.0.0","Windows","10.0","https://app.prolific.com/","en-ZA,en-GB;q=0.9,en-US;q=0.8,en;q=0.7","60292aabf20c7d2af65541a7","686e379bc37a29ffa5cdc956","687760135eeea959a6c60763","1","1","60292aabf20c7d2af65541a7","1","1","2025-07-16T08:22:15.206Z","","","","","","","","","","","MotivationQ","","50","","","","","","","","","","","","","","","","","","","","","","","","","","","","",""
"","","","","ctl-task-cpt","19","303489","0.0-5.0-0.2","41","1","2025-07-16 08:17:33","1f75c3e559b7213887762d5229550c2b","41.56.153.67","Mozilla/5.0 (Windows NT 10.0; Win64; x64) AppleWebKit/537.36 (KHTML, like Gecko) Chrome/138.0.0.0 Safari/537.36","WebKit","Chrome","138.0.0.0","Windows","10.0","https://app.prolific.com/","en-ZA,en-GB;q=0.9,en-US;q=0.8,en;q=0.7","60292aabf20c7d2af65541a7","686e379bc37a29ffa5cdc956","687760135eeea959a6c60763","1","1","60292aabf20c7d2af65541a7","1","1","2025-07-16T08:22:39.103Z","","","","","","","","","","","","","","win-only","0","g1:NW,g2:SE","0.8","3","0","282509.9","1726.3","6731.4","20879.6","1","4","4","6","1","1","1","3","2","0.022727272727272728","1936","3000","1115","[""left"",""up""]","{""num_key_presses"":4,""num_perfect"":4,""num_errors"":0,""num_randdir"":0,""num_randdir_good_moves"":0,""num_whilered"":0,""num_whileblue"":0,""num_blue"":1,""num_good_moves"":4}","[346.14285714285717,343.04910714285717,0.3,346.14285714285717,343.04910714285717,106.9,346.14285714285717,343.04910714285717,207.5,346.14285714285717,344.04910714285717,308.9,346.14285714285717,344.04910714285717,410.3,346.14285714285717,344.04910714285717,515,346.14285714285717,344.04910714285717,623.3,346.14285714285717,344.04910714285717,724.9,346.14285714285717,344.04910714285717,829.3,346.14285714285717,344.04910714285717,934.4,346.14285714285717,344.04910714285717,1038,346.14285714285717,344.04910714285717,1139.2,346.14285714285717,344.04910714285717,1239.8,346.14285714285717,344.04910714285717,1340,313.14285714285717,15.049107142857146,1444.1,142.14285714285714,-91.95089285714286,1544.7,85.14285714285714,-54.950892857142854,1650.9,76.14285714285714,13.049107142857146,1752.6,73.14285714285714,54.049107142857146,1854.8,73.14285714285714,54.049107142857146,1960.9,73.14285714285714,54.049107142857146,2068.5,72.14285714285714,54.049107142857146,2169.4,72.14285714285714,53.049107142857146,2271.3,74.14285714285714,56.049107142857146,2374.8,174.14285714285714,191.04910714285714,2479.9,216.14285714285714,233.04910714285714,2579.9,216.14285714285714,233.04910714285714,2679.9,216.14285714285714,233.04910714285714,2786.7,216.14285714285714,233.04910714285714,2886.8,216.14285714285714,233.04910714285714,2989.3,216.14285714285714,233.04910714285714,3089.5,216.14285714285714,233.04910714285714,3190.1,216.14285714285714,233.04910714285714,3294.5,216.14285714285714,233.04910714285714,3400.5,216.14285714285714,233.04910714285714,3501.8,216.14285714285714,233.04910714285714,3605.4,216.14285714285714,233.04910714285714,3709.3,216.14285714285714,233.04910714285714,3815.7,216.14285714285714,233.04910714285714,3918.6,216.14285714285714,233.04910714285714,4020.4,216.14285714285714,233.04910714285714,4121.5,216.14285714285714,233.04910714285714,4224.8,216.14285714285714,233.04910714285714,4325.8,216.14285714285714,233.04910714285714,4429.7,216.14285714285714,233.04910714285714,4537,216.14285714285714,233.04910714285714,4640.7,216.14285714285714,233.04910714285714,4744.7,216.14285714285714,233.04910714285714,4846,216.14285714285714,233.04910714285714,4950]","[1497.8,1497.8,1000,0,497.8,""smooth"",""up"",""up"",""good_move"",4698.4,3200.1,2769.5,1498.4,430.6,""smooth"",""up"",""up"",""good_move"",7494.2,2795.4,2327.1,4698.8,468.3,""smooth"",""left"",""left"",""good_move"",14050,6555.3,2547.8,10989.8,512.4,""smooth"",""left"",""left"",""good_move""]","",""
"3013","","<div style=""width:500px;"">
  <p>What determined the result of this run?</p>
  </div>","99","html-slider-response","20","306504","0.0-5.0-1.2","41","1","2025-07-16 08:17:33","1f75c3e559b7213887762d5229550c2b","41.56.153.67","Mozilla/5.0 (Windows NT 10.0; Win64; x64) AppleWebKit/537.36 (KHTML, like Gecko) Chrome/138.0.0.0 Safari/537.36","WebKit","Chrome","138.0.0.0","Windows","10.0","https://app.prolific.com/","en-ZA,en-GB;q=0.9,en-US;q=0.8,en;q=0.7","60292aabf20c7d2af65541a7","686e379bc37a29ffa5cdc956","687760135eeea959a6c60763","1","1","60292aabf20c7d2af65541a7","1","1","2025-07-16T08:22:42.118Z","","","","","","","","","","","AttribQ","","50","","","","","","","","","","","","","","","","","","","","","","","","","","","","",""
"3598","","<div style=""width:500px;"">
  <p>How much control did you have over the ball?</p>
  </div>","100","html-slider-response","21","310103","0.0-5.0-2.2","41","1","2025-07-16 08:17:33","1f75c3e559b7213887762d5229550c2b","41.56.153.67","Mozilla/5.0 (Windows NT 10.0; Win64; x64) AppleWebKit/537.36 (KHTML, like Gecko) Chrome/138.0.0.0 Safari/537.36","WebKit","Chrome","138.0.0.0","Windows","10.0","https://app.prolific.com/","en-ZA,en-GB;q=0.9,en-US;q=0.8,en;q=0.7","60292aabf20c7d2af65541a7","686e379bc37a29ffa5cdc956","687760135eeea959a6c60763","1","1","60292aabf20c7d2af65541a7","1","1","2025-07-16T08:22:45.718Z","","","","","","","","","","","ControlQ","","50","","","","","","","","","","","","","","","","","","","","","","","","","","","","",""
"3711","","<div style=""width:500px;"">
  <p>How would you describe your current emotional state?</p>
  </div>","46","html-slider-response","22","313815","0.0-5.0-3.2","41","1","2025-07-16 08:17:33","1f75c3e559b7213887762d5229550c2b","41.56.153.67","Mozilla/5.0 (Windows NT 10.0; Win64; x64) AppleWebKit/537.36 (KHTML, like Gecko) Chrome/138.0.0.0 Safari/537.36","WebKit","Chrome","138.0.0.0","Windows","10.0","https://app.prolific.com/","en-ZA,en-GB;q=0.9,en-US;q=0.8,en;q=0.7","60292aabf20c7d2af65541a7","686e379bc37a29ffa5cdc956","687760135eeea959a6c60763","1","1","60292aabf20c7d2af65541a7","1","1","2025-07-16T08:22:49.430Z","","","","","","","","","","","StressQ","","50","","","","","","","","","","","","","","","","","","","","","","","","","","","","",""
"2942","","<div style=""width:500px;"">
  <p>What best describes how you currently feel?</p>
  </div>","100","html-slider-response","23","316759","0.0-5.0-4.2","41","1","2025-07-16 08:17:33","1f75c3e559b7213887762d5229550c2b","41.56.153.67","Mozilla/5.0 (Windows NT 10.0; Win64; x64) AppleWebKit/537.36 (KHTML, like Gecko) Chrome/138.0.0.0 Safari/537.36","WebKit","Chrome","138.0.0.0","Windows","10.0","https://app.prolific.com/","en-ZA,en-GB;q=0.9,en-US;q=0.8,en;q=0.7","60292aabf20c7d2af65541a7","686e379bc37a29ffa5cdc956","687760135eeea959a6c60763","1","1","60292aabf20c7d2af65541a7","1","1","2025-07-16T08:22:52.373Z","","","","","","","","","","","MotivationQ","","50","","","","","","","","","","","","","","","","","","","","","","","","","","","","",""
"","","","","ctl-task-cpt","24","342453","0.0-5.0-0.3","41","1","2025-07-16 08:17:33","1f75c3e559b7213887762d5229550c2b","41.56.153.67","Mozilla/5.0 (Windows NT 10.0; Win64; x64) AppleWebKit/537.36 (KHTML, like Gecko) Chrome/138.0.0.0 Safari/537.36","WebKit","Chrome","138.0.0.0","Windows","10.0","https://app.prolific.com/","en-ZA,en-GB;q=0.9,en-US;q=0.8,en;q=0.7","60292aabf20c7d2af65541a7","686e379bc37a29ffa5cdc956","687760135eeea959a6c60763","1","1","60292aabf20c7d2af65541a7","1","1","2025-07-16T08:23:18.067Z","","","","","","","","","","","","","","win-only","3","g1:SW,g2:NE","0.7","4","0","319677.8","1593.1","6596.2","22675","1","4","8","6","1","1","1","4","3","0.030303030303030304","1069","3000","1115","[""down"",""left""]","{""num_key_presses"":4,""num_perfect"":3,""num_errors"":0,""num_randdir"":1,""num_randdir_good_moves"":1,""num_whilered"":0,""num_whileblue"":0,""num_blue"":2,""num_good_moves"":4}","[355.14285714285717,343.04910714285717,0.3,355.14285714285717,343.04910714285717,104,355.14285714285717,343.04910714285717,204,355.14285714285717,343.04910714285717,315.4,355.14285714285717,343.04910714285717,415.9,348.14285714285717,344.04910714285717,517.9,292.14285714285717,392.04910714285717,617.9,127.14285714285714,522.0491071428571,719,78.14285714285714,586.0491071428571,823.1,80.14285714285714,596.0491071428571,923.1,83.14285714285714,601.0491071428571,1027.6,83.14285714285714,601.0491071428571,1131.4,83.14285714285714,601.0491071428571,1233.7,141.14285714285714,593.0491071428571,1337.9,235.14285714285714,587.0491071428571,1438,315.14285714285717,570.0491071428571,1539,362.14285714285717,580.0491071428571,1650.4,362.14285714285717,580.0491071428571,1754,362.14285714285717,580.0491071428571,1857.9,362.14285714285717,580.0491071428571,1966.8,362.14285714285717,580.0491071428571,2068.9,362.14285714285717,580.0491071428571,2172.8,362.14285714285717,580.0491071428571,2274,362.14285714285717,580.0491071428571,2383.2,362.14285714285717,580.0491071428571,2487.8,362.14285714285717,580.0491071428571,2588.8,362.14285714285717,580.0491071428571,2688.8,362.14285714285717,580.0491071428571,2797.6,362.14285714285717,580.0491071428571,2901.6,362.14285714285717,580.0491071428571,3002.8,362.14285714285717,580.0491071428571,3103.8,362.14285714285717,580.0491071428571,3216.6,362.14285714285717,580.0491071428571,3317.8,362.14285714285717,580.0491071428571,3423.8,362.14285714285717,580.0491071428571,3527.9,362.14285714285717,580.0491071428571,3632.7,362.14285714285717,580.0491071428571,3734.3,362.14285714285717,580.0491071428571,3837.7,362.14285714285717,580.0491071428571,3937.7,362.14285714285717,580.0491071428571,4038.8,362.14285714285717,580.0491071428571,4142.6,362.14285714285717,580.0491071428571,4242.9,362.14285714285717,580.0491071428571,4348.7,362.14285714285717,580.0491071428571,4448.8,362.14285714285717,580.0491071428571,4552.7,362.14285714285717,580.0491071428571,4652.7,362.14285714285717,580.0491071428571,4753.7,362.14285714285717,580.0491071428571,4853.8,362.14285714285717,580.0491071428571,4965.8]","[1841.3,1841.3,1000,0,841.3,""smooth"",""down"",""down"",""good_move"",4017,2174.8,1672.1,1842.3,502.7,""smooth"",""down"",""down"",""good_move"",13393.2,9375.8,2918.8,10004.3,470.1,""smooth"",""left"",""left"",""good_move"",15976.5,2582.1,2039.2,13394.4,542.9,""oops"",""left"",""left"",""good_move""]","",""
"3793","","<div style=""width:500px;"">
  <p>What determined the result of this run?</p>
  </div>","100","html-slider-response","25","346248","0.0-5.0-1.3","41","1","2025-07-16 08:17:33","1f75c3e559b7213887762d5229550c2b","41.56.153.67","Mozilla/5.0 (Windows NT 10.0; Win64; x64) AppleWebKit/537.36 (KHTML, like Gecko) Chrome/138.0.0.0 Safari/537.36","WebKit","Chrome","138.0.0.0","Windows","10.0","https://app.prolific.com/","en-ZA,en-GB;q=0.9,en-US;q=0.8,en;q=0.7","60292aabf20c7d2af65541a7","686e379bc37a29ffa5cdc956","687760135eeea959a6c60763","1","1","60292aabf20c7d2af65541a7","1","1","2025-07-16T08:23:21.862Z","","","","","","","","","","","AttribQ","","50","","","","","","","","","","","","","","","","","","","","","","","","","","","","",""
"2710","","<div style=""width:500px;"">
  <p>How much control did you have over the ball?</p>
  </div>","100","html-slider-response","26","348960","0.0-5.0-2.3","41","1","2025-07-16 08:17:33","1f75c3e559b7213887762d5229550c2b","41.56.153.67","Mozilla/5.0 (Windows NT 10.0; Win64; x64) AppleWebKit/537.36 (KHTML, like Gecko) Chrome/138.0.0.0 Safari/537.36","WebKit","Chrome","138.0.0.0","Windows","10.0","https://app.prolific.com/","en-ZA,en-GB;q=0.9,en-US;q=0.8,en;q=0.7","60292aabf20c7d2af65541a7","686e379bc37a29ffa5cdc956","687760135eeea959a6c60763","1","1","60292aabf20c7d2af65541a7","1","1","2025-07-16T08:23:24.575Z","","","","","","","","","","","ControlQ","","50","","","","","","","","","","","","","","","","","","","","","","","","","","","","",""
"2542","","<div style=""width:500px;"">
  <p>How would you describe your current emotional state?</p>
  </div>","14","html-slider-response","27","351503","0.0-5.0-3.3","41","1","2025-07-16 08:17:33","1f75c3e559b7213887762d5229550c2b","41.56.153.67","Mozilla/5.0 (Windows NT 10.0; Win64; x64) AppleWebKit/537.36 (KHTML, like Gecko) Chrome/138.0.0.0 Safari/537.36","WebKit","Chrome","138.0.0.0","Windows","10.0","https://app.prolific.com/","en-ZA,en-GB;q=0.9,en-US;q=0.8,en;q=0.7","60292aabf20c7d2af65541a7","686e379bc37a29ffa5cdc956","687760135eeea959a6c60763","1","1","60292aabf20c7d2af65541a7","1","1","2025-07-16T08:23:27.117Z","","","","","","","","","","","StressQ","","50","","","","","","","","","","","","","","","","","","","","","","","","","","","","",""
"2991","","<div style=""width:500px;"">
  <p>What best describes how you currently feel?</p>
  </div>","100","html-slider-response","28","354495","0.0-5.0-4.3","41","1","2025-07-16 08:17:33","1f75c3e559b7213887762d5229550c2b","41.56.153.67","Mozilla/5.0 (Windows NT 10.0; Win64; x64) AppleWebKit/537.36 (KHTML, like Gecko) Chrome/138.0.0.0 Safari/537.36","WebKit","Chrome","138.0.0.0","Windows","10.0","https://app.prolific.com/","en-ZA,en-GB;q=0.9,en-US;q=0.8,en;q=0.7","60292aabf20c7d2af65541a7","686e379bc37a29ffa5cdc956","687760135eeea959a6c60763","1","1","60292aabf20c7d2af65541a7","1","1","2025-07-16T08:23:30.109Z","","","","","","","","","","","MotivationQ","","50","","","","","","","","","","","","","","","","","","","","","","","","","","","","",""
"","","","","ctl-task-cpt","29","373762","0.0-5.0-0.4","41","1","2025-07-16 08:17:33","1f75c3e559b7213887762d5229550c2b","41.56.153.67","Mozilla/5.0 (Windows NT 10.0; Win64; x64) AppleWebKit/537.36 (KHTML, like Gecko) Chrome/138.0.0.0 Safari/537.36","WebKit","Chrome","138.0.0.0","Windows","10.0","https://app.prolific.com/","en-ZA,en-GB;q=0.9,en-US;q=0.8,en;q=0.7","60292aabf20c7d2af65541a7","686e379bc37a29ffa5cdc956","687760135eeea959a6c60763","1","1","60292aabf20c7d2af65541a7","1","1","2025-07-16T08:23:49.376Z","","","","","","","","","","","","","","win-only","3","g1:SW,g2:NE","0.6","5","0","357414.9","1165.4","6169.5","16235.7","1","4","8","6","1","1","1","5","4","0.03787878787878788","1104.3","3000","1520","[""down"",""left""]","{""num_key_presses"":4,""num_perfect"":3,""num_errors"":0,""num_randdir"":1,""num_randdir_good_moves"":1,""num_whilered"":0,""num_whileblue"":0,""num_blue"":0,""num_good_moves"":4}","[346.14285714285717,340.04910714285717,0.6,346.14285714285717,340.04910714285717,105.1,346.14285714285717,340.04910714285717,205.5,346.14285714285717,340.04910714285717,320.9,346.14285714285717,340.04910714285717,425.5,346.14285714285717,340.04910714285717,526.4,177.14285714285714,487.04910714285717,631.1,86.14285714285714,544.0491071428571,735.6,82.14285714285714,566.0491071428571,840.4,82.14285714285714,600.0491071428571,940.6,84.14285714285714,609.0491071428571,1045.8,84.14285714285714,609.0491071428571,1150.5,84.14285714285714,609.0491071428571,1253.4,84.14285714285714,609.0491071428571,1356.1,333.14285714285717,601.0491071428571,1456.2,387.14285714285717,580.0491071428571,1556.8,388.14285714285717,577.0491071428571,1662.5,388.14285714285717,577.0491071428571,1771.3,388.14285714285717,577.0491071428571,1875.3,388.14285714285717,577.0491071428571,1975.3,388.14285714285717,577.0491071428571,2075.3,388.14285714285717,577.0491071428571,2175.4,388.14285714285717,577.0491071428571,2276.3,388.14285714285717,577.0491071428571,2384.5,388.14285714285717,577.0491071428571,2488.5,388.14285714285717,577.0491071428571,2590.6,388.14285714285717,577.0491071428571,2690.6,388.14285714285717,577.0491071428571,2791.3,388.14285714285717,577.0491071428571,2895.7,388.14285714285717,577.0491071428571,3002.6,388.14285714285717,577.0491071428571,3104.4,388.14285714285717,577.0491071428571,3206.2,388.14285714285717,577.0491071428571,3306.2,388.14285714285717,577.0491071428571,3421.6,388.14285714285717,577.0491071428571,3538,388.14285714285717,577.0491071428571,3640.4,388.14285714285717,577.0491071428571,3745.7,388.14285714285717,577.0491071428571,3846,388.14285714285717,577.0491071428571,3955.1,388.14285714285717,577.0491071428571,4055.4,388.14285714285717,577.0491071428571,4160.5,388.14285714285717,577.0491071428571,4260.5,388.14285714285717,577.0491071428571,4361,388.14285714285717,577.0491071428571,4465.5,388.14285714285717,577.0491071428571,4570.2,388.14285714285717,577.0491071428571,4670.3,388.14285714285717,577.0491071428571,4770.3,388.14285714285717,577.0491071428571,4870.3,388.14285714285717,577.0491071428571,4970.3]","[1554.6,1554.6,1000,0,554.6,""smooth"",""down"",""down"",""good_move"",4698.6,3143.4,2702.2,1555.2,441.2,""oops"",""down"",""left"",""good_move"",7410.8,2711.8,2202.4,4699.2,509.3,""smooth"",""down"",""down"",""good_move"",9946.7,2535.2,2062.5,7411.5,472.7,""smooth"",""left"",""left"",""good_move""]","",""
"2812","","<div style=""width:500px;"">
  <p>What determined the result of this run?</p>
  </div>","100","html-slider-response","30","376576","0.0-5.0-1.4","41","1","2025-07-16 08:17:33","1f75c3e559b7213887762d5229550c2b","41.56.153.67","Mozilla/5.0 (Windows NT 10.0; Win64; x64) AppleWebKit/537.36 (KHTML, like Gecko) Chrome/138.0.0.0 Safari/537.36","WebKit","Chrome","138.0.0.0","Windows","10.0","https://app.prolific.com/","en-ZA,en-GB;q=0.9,en-US;q=0.8,en;q=0.7","60292aabf20c7d2af65541a7","686e379bc37a29ffa5cdc956","687760135eeea959a6c60763","1","1","60292aabf20c7d2af65541a7","1","1","2025-07-16T08:23:52.190Z","","","","","","","","","","","AttribQ","","50","","","","","","","","","","","","","","","","","","","","","","","","","","","","",""
"3902","","<div style=""width:500px;"">
  <p>How much control did you have over the ball?</p>
  </div>","100","html-slider-response","31","380480","0.0-5.0-2.4","41","1","2025-07-16 08:17:33","1f75c3e559b7213887762d5229550c2b","41.56.153.67","Mozilla/5.0 (Windows NT 10.0; Win64; x64) AppleWebKit/537.36 (KHTML, like Gecko) Chrome/138.0.0.0 Safari/537.36","WebKit","Chrome","138.0.0.0","Windows","10.0","https://app.prolific.com/","en-ZA,en-GB;q=0.9,en-US;q=0.8,en;q=0.7","60292aabf20c7d2af65541a7","686e379bc37a29ffa5cdc956","687760135eeea959a6c60763","1","1","60292aabf20c7d2af65541a7","1","1","2025-07-16T08:23:56.094Z","","","","","","","","","","","ControlQ","","50","","","","","","","","","","","","","","","","","","","","","","","","","","","","",""
"5046","","<div style=""width:500px;"">
  <p>How would you describe your current emotional state?</p>
  </div>","26","html-slider-response","32","385528","0.0-5.0-3.4","41","1","2025-07-16 08:17:33","1f75c3e559b7213887762d5229550c2b","41.56.153.67","Mozilla/5.0 (Windows NT 10.0; Win64; x64) AppleWebKit/537.36 (KHTML, like Gecko) Chrome/138.0.0.0 Safari/537.36","WebKit","Chrome","138.0.0.0","Windows","10.0","https://app.prolific.com/","en-ZA,en-GB;q=0.9,en-US;q=0.8,en;q=0.7","60292aabf20c7d2af65541a7","686e379bc37a29ffa5cdc956","687760135eeea959a6c60763","1","1","60292aabf20c7d2af65541a7","1","1","2025-07-16T08:24:01.142Z","","","","","","","","","","","StressQ","","50","","","","","","","","","","","","","","","","","","","","","","","","","","","","",""
"2766","","<div style=""width:500px;"">
  <p>What best describes how you currently feel?</p>
  </div>","100","html-slider-response","33","388295","0.0-5.0-4.4","41","1","2025-07-16 08:17:33","1f75c3e559b7213887762d5229550c2b","41.56.153.67","Mozilla/5.0 (Windows NT 10.0; Win64; x64) AppleWebKit/537.36 (KHTML, like Gecko) Chrome/138.0.0.0 Safari/537.36","WebKit","Chrome","138.0.0.0","Windows","10.0","https://app.prolific.com/","en-ZA,en-GB;q=0.9,en-US;q=0.8,en;q=0.7","60292aabf20c7d2af65541a7","686e379bc37a29ffa5cdc956","687760135eeea959a6c60763","1","1","60292aabf20c7d2af65541a7","1","1","2025-07-16T08:24:03.910Z","","","","","","","","","","","MotivationQ","","50","","","","","","","","","","","","","","","","","","","","","","","","","","","","",""
"","","","","ctl-task-cpt","34","418209","0.0-5.0-0.5","41","1","2025-07-16 08:17:33","1f75c3e559b7213887762d5229550c2b","41.56.153.67","Mozilla/5.0 (Windows NT 10.0; Win64; x64) AppleWebKit/537.36 (KHTML, like Gecko) Chrome/138.0.0.0 Safari/537.36","WebKit","Chrome","138.0.0.0","Windows","10.0","https://app.prolific.com/","en-ZA,en-GB;q=0.9,en-US;q=0.8,en;q=0.7","60292aabf20c7d2af65541a7","686e379bc37a29ffa5cdc956","687760135eeea959a6c60763","1","1","60292aabf20c7d2af65541a7","1","1","2025-07-16T08:24:33.823Z","","","","","","","","","","","","","","win-only","0","g1:NW,g2:SE","0.5","6","0","391214.4","2181.6","7195.6","26895.4","1","4","4","6","1","1","1","6","5","0.045454545454545456","976.6","3000","585","[""left"",""up""]","{""num_key_presses"":6,""num_perfect"":3,""num_errors"":0,""num_randdir"":3,""num_randdir_good_moves"":2,""num_whilered"":0,""num_whileblue"":0,""num_blue"":1,""num_good_moves"":5}","[349.14285714285717,342.04910714285717,0.6,349.14285714285717,342.04910714285717,104.3,349.14285714285717,342.04910714285717,204.3,349.14285714285717,342.04910714285717,309.6,349.14285714285717,342.04910714285717,419,267.14285714285717,356.04910714285717,520.6,6.142857142857146,156.04910714285714,624.5,1.142857142857146,131.04910714285714,729,8.142857142857146,103.04910714285714,829.4,15.142857142857146,92.04910714285714,936.6,15.142857142857146,92.04910714285714,1051.2,15.142857142857146,92.04910714285714,1153.9,15.142857142857146,92.04910714285714,1254.6,26.142857142857146,149.04910714285714,1359.6,105.14285714285714,262.04910714285717,1464.6,119.14285714285714,323.04910714285717,1565.1,165.14285714285714,382.04910714285717,1670.2,175.14285714285714,389.04910714285717,1785.6,175.14285714285714,389.04910714285717,1900.8,176.14285714285714,391.04910714285717,2005.3,176.14285714285714,391.04910714285717,2109.3,176.14285714285714,391.04910714285717,2217.9,176.14285714285714,391.04910714285717,2318.8,176.14285714285714,391.04910714285717,2425,176.14285714285714,391.04910714285717,2532.1,176.14285714285714,391.04910714285717,2635.2,176.14285714285714,391.04910714285717,2739.2,176.14285714285714,391.04910714285717,2839.7,176.14285714285714,391.04910714285717,2940.3,176.14285714285714,391.04910714285717,3049.6,176.14285714285714,391.04910714285717,3150.4,176.14285714285714,391.04910714285717,3255.4,176.14285714285714,391.04910714285717,3375,176.14285714285714,391.04910714285717,3481.5,176.14285714285714,391.04910714285717,3585.3,176.14285714285714,391.04910714285717,3699.3,176.14285714285714,391.04910714285717,3801.7,176.14285714285714,391.04910714285717,3915.6,176.14285714285714,391.04910714285717,4017.8,176.14285714285714,391.04910714285717,4119.3,176.14285714285714,391.04910714285717,4233.9,176.14285714285714,391.04910714285717,4334.1,176.14285714285714,391.04910714285717,4434.3,176.14285714285714,391.04910714285717,4534.3,176.14285714285714,391.04910714285717,4639.1,176.14285714285714,391.04910714285717,4749.3,176.14285714285714,391.04910714285717,4850.3,176.14285714285714,391.04910714285717,4953.9]","[1489,1489,1000,0,489,""smooth"",""up"",""up"",""good_move"",7017.7,5528.3,1914.7,4585.4,517.7,""oops"",""up"",""down"",""bad_move"",10064.8,3046.6,2426,7018.2,620.6,""smooth"",""up"",""up"",""good_move"",12792.6,2727.4,2183.2,10065.2,544.2,""oops"",""up"",""left"",""good_move"",16625.4,3832.1,3176.9,12793.3,655.2,""smooth"",""up"",""up"",""good_move"",19584.7,2958.9,2520.8,16625.9,438,""oops"",""left"",""left"",""good_move""]","",""
"2446","","<div style=""width:500px;"">
  <p>What determined the result of this run?</p>
  </div>","100","html-slider-response","35","420656","0.0-5.0-1.5","41","1","2025-07-16 08:17:33","1f75c3e559b7213887762d5229550c2b","41.56.153.67","Mozilla/5.0 (Windows NT 10.0; Win64; x64) AppleWebKit/537.36 (KHTML, like Gecko) Chrome/138.0.0.0 Safari/537.36","WebKit","Chrome","138.0.0.0","Windows","10.0","https://app.prolific.com/","en-ZA,en-GB;q=0.9,en-US;q=0.8,en;q=0.7","60292aabf20c7d2af65541a7","686e379bc37a29ffa5cdc956","687760135eeea959a6c60763","1","1","60292aabf20c7d2af65541a7","1","1","2025-07-16T08:24:36.271Z","","","","","","","","","","","AttribQ","","50","","","","","","","","","","","","","","","","","","","","","","","","","","","","",""
"4229","","<div style=""width:500px;"">
  <p>How much control did you have over the ball?</p>
  </div>","75","html-slider-response","36","424887","0.0-5.0-2.5","41","1","2025-07-16 08:17:33","1f75c3e559b7213887762d5229550c2b","41.56.153.67","Mozilla/5.0 (Windows NT 10.0; Win64; x64) AppleWebKit/537.36 (KHTML, like Gecko) Chrome/138.0.0.0 Safari/537.36","WebKit","Chrome","138.0.0.0","Windows","10.0","https://app.prolific.com/","en-ZA,en-GB;q=0.9,en-US;q=0.8,en;q=0.7","60292aabf20c7d2af65541a7","686e379bc37a29ffa5cdc956","687760135eeea959a6c60763","1","1","60292aabf20c7d2af65541a7","1","1","2025-07-16T08:24:40.501Z","","","","","","","","","","","ControlQ","","50","","","","","","","","","","","","","","","","","","","","","","","","","","","","",""
"6311","","<div style=""width:500px;"">
  <p>How would you describe your current emotional state?</p>
  </div>","52","html-slider-response","37","431199","0.0-5.0-3.5","41","1","2025-07-16 08:17:33","1f75c3e559b7213887762d5229550c2b","41.56.153.67","Mozilla/5.0 (Windows NT 10.0; Win64; x64) AppleWebKit/537.36 (KHTML, like Gecko) Chrome/138.0.0.0 Safari/537.36","WebKit","Chrome","138.0.0.0","Windows","10.0","https://app.prolific.com/","en-ZA,en-GB;q=0.9,en-US;q=0.8,en;q=0.7","60292aabf20c7d2af65541a7","686e379bc37a29ffa5cdc956","687760135eeea959a6c60763","1","1","60292aabf20c7d2af65541a7","1","1","2025-07-16T08:24:46.814Z","","","","","","","","","","","StressQ","","50","","","","","","","","","","","","","","","","","","","","","","","","","","","","",""
"12086","","<div style=""width:500px;"">
  <p>What best describes how you currently feel?</p>
  </div>","100","html-slider-response","38","443287","0.0-5.0-4.5","41","1","2025-07-16 08:17:33","1f75c3e559b7213887762d5229550c2b","41.56.153.67","Mozilla/5.0 (Windows NT 10.0; Win64; x64) AppleWebKit/537.36 (KHTML, like Gecko) Chrome/138.0.0.0 Safari/537.36","WebKit","Chrome","138.0.0.0","Windows","10.0","https://app.prolific.com/","en-ZA,en-GB;q=0.9,en-US;q=0.8,en;q=0.7","60292aabf20c7d2af65541a7","686e379bc37a29ffa5cdc956","687760135eeea959a6c60763","1","1","60292aabf20c7d2af65541a7","1","1","2025-07-16T08:24:58.902Z","","","","","","","","","","","MotivationQ","","50","","","","","","","","","","","","","","","","","","","","","","","","","","","","",""
"","","","","ctl-task-cpt","39","483518","0.0-5.0-0.6","41","1","2025-07-16 08:17:33","1f75c3e559b7213887762d5229550c2b","41.56.153.67","Mozilla/5.0 (Windows NT 10.0; Win64; x64) AppleWebKit/537.36 (KHTML, like Gecko) Chrome/138.0.0.0 Safari/537.36","WebKit","Chrome","138.0.0.0","Windows","10.0","https://app.prolific.com/","en-ZA,en-GB;q=0.9,en-US;q=0.8,en;q=0.7","60292aabf20c7d2af65541a7","686e379bc37a29ffa5cdc956","687760135eeea959a6c60763","1","1","60292aabf20c7d2af65541a7","1","1","2025-07-16T08:25:39.133Z","","","","","","","","","","","","","","win-only","0","g1:NW,g2:SE","0.4","7","0","446206.7","1279.6","6282.3","37207.2","1","4","4","6","1","-1","-1","5","6","0.03787878787878788","1002.7","3000","-2210","[""left"",""up""]","{""num_key_presses"":8,""num_perfect"":4,""num_errors"":0,""num_randdir"":4,""num_randdir_good_moves"":1,""num_whilered"":0,""num_whileblue"":0,""num_blue"":1,""num_good_moves"":5}","[352.14285714285717,339.04910714285717,0.3,352.14285714285717,339.04910714285717,100.7,352.14285714285717,339.04910714285717,202.6,350.14285714285717,342.04910714285717,304.9,344.14285714285717,343.04910714285717,407.6,323.14285714285717,363.04910714285717,515,260.14285714285717,347.04910714285717,616.6,130.14285714285714,197.04910714285714,716.8,81.14285714285714,104.04910714285714,822.8,72.14285714285714,87.04910714285714,939.3,72.14285714285714,87.04910714285714,1045.9,72.14285714285714,87.04910714285714,1147,71.14285714285714,87.04910714285714,1247.8,133.14285714285714,188.04910714285714,1354.5,223.14285714285714,357.04910714285717,1456.1,227.14285714285714,369.04910714285717,1556.6,230.14285714285714,385.04910714285717,1656.6,230.14285714285714,385.04910714285717,1756.6,230.14285714285714,385.04910714285717,1856.6,230.14285714285714,385.04910714285717,1956.6,230.14285714285714,385.04910714285717,2057.6,230.14285714285714,385.04910714285717,2171.9,230.14285714285714,385.04910714285717,2271.9,230.14285714285714,385.04910714285717,2372.5,230.14285714285714,385.04910714285717,2486.5,230.14285714285714,385.04910714285717,2586.5,230.14285714285714,385.04910714285717,2687.4,230.14285714285714,385.04910714285717,2791,230.14285714285714,385.04910714285717,2896.6,230.14285714285714,385.04910714285717,3001.1,230.14285714285714,385.04910714285717,3101.4,230.14285714285714,385.04910714285717,3203.6,230.14285714285714,385.04910714285717,3305.8,230.14285714285714,385.04910714285717,3415.5,230.14285714285714,385.04910714285717,3516.5,230.14285714285714,385.04910714285717,3620.5,230.14285714285714,385.04910714285717,3721.3,230.14285714285714,385.04910714285717,3836.8,230.14285714285714,385.04910714285717,3941.5,230.14285714285714,385.04910714285717,4041.7,230.14285714285714,385.04910714285717,4149.4,230.14285714285714,385.04910714285717,4251.3,230.14285714285714,385.04910714285717,4352.3,230.14285714285714,385.04910714285717,4453.2,230.14285714285714,385.04910714285717,4557.2,230.14285714285714,385.04910714285717,4666.4,230.14285714285714,385.04910714285717,4766.4,230.14285714285714,385.04910714285717,4866.5,230.14285714285714,385.04910714285717,4969]","[1582.5,1582.5,1000,0,582.5,""smooth"",""up"",""up"",""good_move"",4794.2,3211,2647.2,1583.2,563.8,""smooth"",""up"",""up"",""good_move"",7963,3168.1,2680.1,4794.9,488,""oops"",""left"",""right"",""bad_move"",11682,3718.3,3304.1,7963.7,414.2,""oops"",""left"",""right"",""bad_move"",14611.9,2929.4,2384.9,11682.5,544.5,""oops"",""left"",""down"",""bad_move"",17727.3,3114.7,2630.2,14612.7,484.4,""smooth"",""left"",""left"",""good_move"",21217.4,3489.4,3001.9,17728.1,487.4,""oops"",""left"",""left"",""good_move"",23946.5,2728.6,2249,21217.9,479.6,""smooth"",""left"",""left"",""good_move""]","",""
"6711","","<div style=""width:500px;"">
  <p>What determined the result of this run?</p>
  </div>","52","html-slider-response","40","490231","0.0-5.0-1.6","41","1","2025-07-16 08:17:33","1f75c3e559b7213887762d5229550c2b","41.56.153.67","Mozilla/5.0 (Windows NT 10.0; Win64; x64) AppleWebKit/537.36 (KHTML, like Gecko) Chrome/138.0.0.0 Safari/537.36","WebKit","Chrome","138.0.0.0","Windows","10.0","https://app.prolific.com/","en-ZA,en-GB;q=0.9,en-US;q=0.8,en;q=0.7","60292aabf20c7d2af65541a7","686e379bc37a29ffa5cdc956","687760135eeea959a6c60763","1","1","60292aabf20c7d2af65541a7","1","1","2025-07-16T08:25:45.845Z","","","","","","","","","","","AttribQ","","50","","","","","","","","","","","","","","","","","","","","","","","","","","","","",""
"3863","","<div style=""width:500px;"">
  <p>How much control did you have over the ball?</p>
  </div>","4","html-slider-response","41","494095","0.0-5.0-2.6","41","1","2025-07-16 08:17:33","1f75c3e559b7213887762d5229550c2b","41.56.153.67","Mozilla/5.0 (Windows NT 10.0; Win64; x64) AppleWebKit/537.36 (KHTML, like Gecko) Chrome/138.0.0.0 Safari/537.36","WebKit","Chrome","138.0.0.0","Windows","10.0","https://app.prolific.com/","en-ZA,en-GB;q=0.9,en-US;q=0.8,en;q=0.7","60292aabf20c7d2af65541a7","686e379bc37a29ffa5cdc956","687760135eeea959a6c60763","1","1","60292aabf20c7d2af65541a7","1","1","2025-07-16T08:25:49.709Z","","","","","","","","","","","ControlQ","","50","","","","","","","","","","","","","","","","","","","","","","","","","","","","",""
"2670","","<div style=""width:500px;"">
  <p>How would you describe your current emotional state?</p>
  </div>","59","html-slider-response","42","496767","0.0-5.0-3.6","41","1","2025-07-16 08:17:33","1f75c3e559b7213887762d5229550c2b","41.56.153.67","Mozilla/5.0 (Windows NT 10.0; Win64; x64) AppleWebKit/537.36 (KHTML, like Gecko) Chrome/138.0.0.0 Safari/537.36","WebKit","Chrome","138.0.0.0","Windows","10.0","https://app.prolific.com/","en-ZA,en-GB;q=0.9,en-US;q=0.8,en;q=0.7","60292aabf20c7d2af65541a7","686e379bc37a29ffa5cdc956","687760135eeea959a6c60763","1","1","60292aabf20c7d2af65541a7","1","1","2025-07-16T08:25:52.381Z","","","","","","","","","","","StressQ","","50","","","","","","","","","","","","","","","","","","","","","","","","","","","","",""
"4615","","<div style=""width:500px;"">
  <p>What best describes how you currently feel?</p>
  </div>","100","html-slider-response","43","501383","0.0-5.0-4.6","41","1","2025-07-16 08:17:33","1f75c3e559b7213887762d5229550c2b","41.56.153.67","Mozilla/5.0 (Windows NT 10.0; Win64; x64) AppleWebKit/537.36 (KHTML, like Gecko) Chrome/138.0.0.0 Safari/537.36","WebKit","Chrome","138.0.0.0","Windows","10.0","https://app.prolific.com/","en-ZA,en-GB;q=0.9,en-US;q=0.8,en;q=0.7","60292aabf20c7d2af65541a7","686e379bc37a29ffa5cdc956","687760135eeea959a6c60763","1","1","60292aabf20c7d2af65541a7","1","1","2025-07-16T08:25:56.997Z","","","","","","","","","","","MotivationQ","","50","","","","","","","","","","","","","","","","","","","","","","","","","","","","",""
"","","","","ctl-task-cpt","44","522343","0.0-5.0-0.7","41","1","2025-07-16 08:17:33","1f75c3e559b7213887762d5229550c2b","41.56.153.67","Mozilla/5.0 (Windows NT 10.0; Win64; x64) AppleWebKit/537.36 (KHTML, like Gecko) Chrome/138.0.0.0 Safari/537.36","WebKit","Chrome","138.0.0.0","Windows","10.0","https://app.prolific.com/","en-ZA,en-GB;q=0.9,en-US;q=0.8,en;q=0.7","60292aabf20c7d2af65541a7","686e379bc37a29ffa5cdc956","687760135eeea959a6c60763","1","1","60292aabf20c7d2af65541a7","1","1","2025-07-16T08:26:17.958Z","","","","","","","","","","","","","","win-only","3","g1:SW,g2:NE","0.3","8","0","504302.5","1133.2","6136.9","17936.8","1","4","8","6","1","1","1","6","5","0.045454545454545456","1227.7","3000","730","[""down"",""left""]","{""num_key_presses"":4,""num_perfect"":2,""num_errors"":0,""num_randdir"":2,""num_randdir_good_moves"":2,""num_whilered"":0,""num_whileblue"":0,""num_blue"":0,""num_good_moves"":4}","[351.14285714285717,349.04910714285717,0.6,351.14285714285717,349.04910714285717,108.3,351.14285714285717,349.04910714285717,213.7,351.14285714285717,349.04910714285717,323.9,351.14285714285717,349.04910714285717,428.2,351.14285714285717,351.04910714285717,528.9,265.14285714285717,412.04910714285717,639.6,189.14285714285714,493.04910714285717,743.3,158.14285714285714,539.0491071428571,846.4,127.14285714285714,563.0491071428571,947.5,74.14285714285714,601.0491071428571,1053.7,72.14285714285714,603.0491071428571,1161.5,72.14285714285714,603.0491071428571,1264.4,72.14285714285714,603.0491071428571,1367.5,72.14285714285714,603.0491071428571,1473.6,72.14285714285714,604.0491071428571,1581.9,72.14285714285714,604.0491071428571,1682.9,72.14285714285714,604.0491071428571,1797.4,72.14285714285714,604.0491071428571,1899,72.14285714285714,604.0491071428571,2002.5,72.14285714285714,604.0491071428571,2102.7,72.14285714285714,604.0491071428571,2202.9,72.14285714285714,604.0491071428571,2308.6,72.14285714285714,604.0491071428571,2413.5,72.14285714285714,604.0491071428571,2514.2,72.14285714285714,604.0491071428571,2622.7,72.14285714285714,604.0491071428571,2724,72.14285714285714,604.0491071428571,2828.2,72.14285714285714,604.0491071428571,2932.5,72.14285714285714,604.0491071428571,3038.6,72.14285714285714,604.0491071428571,3148,72.14285714285714,604.0491071428571,3248.3,72.14285714285714,604.0491071428571,3348.4,72.14285714285714,604.0491071428571,3452.7,72.14285714285714,604.0491071428571,3563.2,72.14285714285714,604.0491071428571,3668.2,72.14285714285714,604.0491071428571,3773.9,72.14285714285714,604.0491071428571,3878.3,72.14285714285714,604.0491071428571,3996.1,72.14285714285714,604.0491071428571,4097.5,72.14285714285714,604.0491071428571,4197.5,72.14285714285714,604.0491071428571,4312.2,72.14285714285714,604.0491071428571,4412.3,72.14285714285714,604.0491071428571,4512.5,72.14285714285714,604.0491071428571,4612.5,72.14285714285714,604.0491071428571,4712.5,72.14285714285714,604.0491071428571,4812.6,72.14285714285714,604.0491071428571,4912.8]","[2323.1,2323.1,1000,0,1323.1,""smooth"",""left"",""left"",""good_move"",5267.5,2943.9,2131.8,2323.6,812.1,""oops"",""left"",""left"",""good_move"",8179.6,2911.5,2354.8,5268.1,556.7,""oops"",""down"",""down"",""good_move"",11684.7,3504.2,2871.7,8180.6,632.5,""smooth"",""down"",""down"",""good_move""]","",""
"2502","","<div style=""width:500px;"">
  <p>What determined the result of this run?</p>
  </div>","100","html-slider-response","45","524847","0.0-5.0-1.7","41","1","2025-07-16 08:17:33","1f75c3e559b7213887762d5229550c2b","41.56.153.67","Mozilla/5.0 (Windows NT 10.0; Win64; x64) AppleWebKit/537.36 (KHTML, like Gecko) Chrome/138.0.0.0 Safari/537.36","WebKit","Chrome","138.0.0.0","Windows","10.0","https://app.prolific.com/","en-ZA,en-GB;q=0.9,en-US;q=0.8,en;q=0.7","60292aabf20c7d2af65541a7","686e379bc37a29ffa5cdc956","687760135eeea959a6c60763","1","1","60292aabf20c7d2af65541a7","1","1","2025-07-16T08:26:20.461Z","","","","","","","","","","","AttribQ","","50","","","","","","","","","","","","","","","","","","","","","","","","","","","","",""
"3247","","<div style=""width:500px;"">
  <p>How much control did you have over the ball?</p>
  </div>","74","html-slider-response","46","528095","0.0-5.0-2.7","41","1","2025-07-16 08:17:33","1f75c3e559b7213887762d5229550c2b","41.56.153.67","Mozilla/5.0 (Windows NT 10.0; Win64; x64) AppleWebKit/537.36 (KHTML, like Gecko) Chrome/138.0.0.0 Safari/537.36","WebKit","Chrome","138.0.0.0","Windows","10.0","https://app.prolific.com/","en-ZA,en-GB;q=0.9,en-US;q=0.8,en;q=0.7","60292aabf20c7d2af65541a7","686e379bc37a29ffa5cdc956","687760135eeea959a6c60763","1","1","60292aabf20c7d2af65541a7","1","1","2025-07-16T08:26:23.710Z","","","","","","","","","","","ControlQ","","50","","","","","","","","","","","","","","","","","","","","","","","","","","","","",""
"4861","","<div style=""width:500px;"">
  <p>How would you describe your current emotional state?</p>
  </div>","38","html-slider-response","47","532959","0.0-5.0-3.7","41","1","2025-07-16 08:17:33","1f75c3e559b7213887762d5229550c2b","41.56.153.67","Mozilla/5.0 (Windows NT 10.0; Win64; x64) AppleWebKit/537.36 (KHTML, like Gecko) Chrome/138.0.0.0 Safari/537.36","WebKit","Chrome","138.0.0.0","Windows","10.0","https://app.prolific.com/","en-ZA,en-GB;q=0.9,en-US;q=0.8,en;q=0.7","60292aabf20c7d2af65541a7","686e379bc37a29ffa5cdc956","687760135eeea959a6c60763","1","1","60292aabf20c7d2af65541a7","1","1","2025-07-16T08:26:28.573Z","","","","","","","","","","","StressQ","","50","","","","","","","","","","","","","","","","","","","","","","","","","","","","",""
"3823","","<div style=""width:500px;"">
  <p>What best describes how you currently feel?</p>
  </div>","100","html-slider-response","48","536784","0.0-5.0-4.7","41","1","2025-07-16 08:17:33","1f75c3e559b7213887762d5229550c2b","41.56.153.67","Mozilla/5.0 (Windows NT 10.0; Win64; x64) AppleWebKit/537.36 (KHTML, like Gecko) Chrome/138.0.0.0 Safari/537.36","WebKit","Chrome","138.0.0.0","Windows","10.0","https://app.prolific.com/","en-ZA,en-GB;q=0.9,en-US;q=0.8,en;q=0.7","60292aabf20c7d2af65541a7","686e379bc37a29ffa5cdc956","687760135eeea959a6c60763","1","1","60292aabf20c7d2af65541a7","1","1","2025-07-16T08:26:32.398Z","","","","","","","","","","","MotivationQ","","50","","","","","","","","","","","","","","","","","","","","","","","","","","","","",""
"","","","","ctl-task-cpt","49","583891","0.0-5.0-0.8","41","1","2025-07-16 08:17:33","1f75c3e559b7213887762d5229550c2b","41.56.153.67","Mozilla/5.0 (Windows NT 10.0; Win64; x64) AppleWebKit/537.36 (KHTML, like Gecko) Chrome/138.0.0.0 Safari/537.36","WebKit","Chrome","138.0.0.0","Windows","10.0","https://app.prolific.com/","en-ZA,en-GB;q=0.9,en-US;q=0.8,en;q=0.7","60292aabf20c7d2af65541a7","686e379bc37a29ffa5cdc956","687760135eeea959a6c60763","1","1","60292aabf20c7d2af65541a7","1","1","2025-07-16T08:27:19.505Z","","","","","","","","","","","","","","win-only","3","g1:SW,g2:NE","0.2","9","0","539701.9","1390.6","6391.1","44086.8","1","4","8","6","1","-1","-1","5","6","0.03787878787878788","1015.5","3000","-2500","[""down"",""left""]","{""num_key_presses"":8,""num_perfect"":2,""num_errors"":0,""num_randdir"":6,""num_randdir_good_moves"":3,""num_whilered"":0,""num_whileblue"":0,""num_blue"":4,""num_good_moves"":5}","[349.14285714285717,342.04910714285717,0.4,349.14285714285717,342.04910714285717,100.8,349.14285714285717,342.04910714285717,204.1,349.14285714285717,342.04910714285717,322.9,349.14285714285717,342.04910714285717,438.6,243.14285714285714,444.04910714285717,542.1,113.14285714285714,555.0491071428571,646.3,110.14285714285714,558.0491071428571,750.5,101.14285714285714,580.0491071428571,854.2,77.14285714285714,615.0491071428571,974.5,77.14285714285714,616.0491071428571,1075.5,77.14285714285714,616.0491071428571,1181.5,77.14285714285714,616.0491071428571,1281.9,77.14285714285714,616.0491071428571,1385.8,77.14285714285714,616.0491071428571,1485.8,77.14285714285714,616.0491071428571,1585.9,77.14285714285714,616.0491071428571,1687.2,77.14285714285714,616.0491071428571,1796.3,77.14285714285714,616.0491071428571,1896.4,77.14285714285714,616.0491071428571,1998.9,77.14285714285714,616.0491071428571,2101.6,77.14285714285714,616.0491071428571,2201.6,77.14285714285714,616.0491071428571,2301.6,128.14285714285714,595.0491071428571,2401.9,204.14285714285714,584.0491071428571,2515.7,276.14285714285717,577.0491071428571,2630.3,279.14285714285717,578.0491071428571,2731.7,279.14285714285717,578.0491071428571,2835.6,279.14285714285717,578.0491071428571,2935.9,279.14285714285717,578.0491071428571,3042.1,279.14285714285717,578.0491071428571,3146.7,279.14285714285717,578.0491071428571,3250.6,279.14285714285717,578.0491071428571,3351.4,279.14285714285717,578.0491071428571,3452.2,279.14285714285717,578.0491071428571,3555.8,279.14285714285717,578.0491071428571,3660.7,279.14285714285717,578.0491071428571,3765.1,279.14285714285717,578.0491071428571,3865.2,279.14285714285717,578.0491071428571,3967.6,279.14285714285717,578.0491071428571,4069.8,279.14285714285717,578.0491071428571,4172.2,279.14285714285717,578.0491071428571,4276.9,279.14285714285717,578.0491071428571,4380.4,279.14285714285717,578.0491071428571,4480.4,279.14285714285717,578.0491071428571,4580.7,279.14285714285717,578.0491071428571,4684.8,279.14285714285717,578.0491071428571,4787.5,279.14285714285717,578.0491071428571,4903.8]","[1531.8,1531.8,1000,0,531.8,""oops"",""left"",""down"",""good_move"",7857.6,6325.2,2049.7,5249.2,558.7,""smooth"",""left"",""left"",""good_move"",9997.5,2139.1,1498.1,7858.5,640.9,""oops"",""left"",""right"",""bad_move"",16274.4,6276.5,2441.4,13362.4,470.7,""oops"",""left"",""right"",""bad_move"",19910,3635,3110.9,16275,524.1,""smooth"",""down"",""down"",""good_move"",22013.1,2102.4,1506.9,19910.7,595.5,""oops"",""left"",""left"",""good_move"",25365.3,3351.7,2841.8,22013.6,509.9,""oops"",""left"",""left"",""good_move"",32013.2,6647.4,2402.3,29171.6,439.3,""oops"",""left"",""up"",""bad_move""]","",""
"5859","","<div style=""width:500px;"">
  <p>What determined the result of this run?</p>
  </div>","0","html-slider-response","50","589751","0.0-5.0-1.8","41","1","2025-07-16 08:17:33","1f75c3e559b7213887762d5229550c2b","41.56.153.67","Mozilla/5.0 (Windows NT 10.0; Win64; x64) AppleWebKit/537.36 (KHTML, like Gecko) Chrome/138.0.0.0 Safari/537.36","WebKit","Chrome","138.0.0.0","Windows","10.0","https://app.prolific.com/","en-ZA,en-GB;q=0.9,en-US;q=0.8,en;q=0.7","60292aabf20c7d2af65541a7","686e379bc37a29ffa5cdc956","687760135eeea959a6c60763","1","1","60292aabf20c7d2af65541a7","1","1","2025-07-16T08:27:25.366Z","","","","","","","","","","","AttribQ","","50","","","","","","","","","","","","","","","","","","","","","","","","","","","","",""
"4221","","<div style=""width:500px;"">
  <p>How much control did you have over the ball?</p>
  </div>","1","html-slider-response","51","593975","0.0-5.0-2.8","41","1","2025-07-16 08:17:33","1f75c3e559b7213887762d5229550c2b","41.56.153.67","Mozilla/5.0 (Windows NT 10.0; Win64; x64) AppleWebKit/537.36 (KHTML, like Gecko) Chrome/138.0.0.0 Safari/537.36","WebKit","Chrome","138.0.0.0","Windows","10.0","https://app.prolific.com/","en-ZA,en-GB;q=0.9,en-US;q=0.8,en;q=0.7","60292aabf20c7d2af65541a7","686e379bc37a29ffa5cdc956","687760135eeea959a6c60763","1","1","60292aabf20c7d2af65541a7","1","1","2025-07-16T08:27:29.589Z","","","","","","","","","","","ControlQ","","50","","","","","","","","","","","","","","","","","","","","","","","","","","","","",""
"4729","","<div style=""width:500px;"">
  <p>How would you describe your current emotional state?</p>
  </div>","69","html-slider-response","52","598706","0.0-5.0-3.8","41","1","2025-07-16 08:17:33","1f75c3e559b7213887762d5229550c2b","41.56.153.67","Mozilla/5.0 (Windows NT 10.0; Win64; x64) AppleWebKit/537.36 (KHTML, like Gecko) Chrome/138.0.0.0 Safari/537.36","WebKit","Chrome","138.0.0.0","Windows","10.0","https://app.prolific.com/","en-ZA,en-GB;q=0.9,en-US;q=0.8,en;q=0.7","60292aabf20c7d2af65541a7","686e379bc37a29ffa5cdc956","687760135eeea959a6c60763","1","1","60292aabf20c7d2af65541a7","1","1","2025-07-16T08:27:34.320Z","","","","","","","","","","","StressQ","","50","","","","","","","","","","","","","","","","","","","","","","","","","","","","",""
"1915","","<div style=""width:500px;"">
  <p>What best describes how you currently feel?</p>
  </div>","100","html-slider-response","53","600623","0.0-5.0-4.8","41","1","2025-07-16 08:17:33","1f75c3e559b7213887762d5229550c2b","41.56.153.67","Mozilla/5.0 (Windows NT 10.0; Win64; x64) AppleWebKit/537.36 (KHTML, like Gecko) Chrome/138.0.0.0 Safari/537.36","WebKit","Chrome","138.0.0.0","Windows","10.0","https://app.prolific.com/","en-ZA,en-GB;q=0.9,en-US;q=0.8,en;q=0.7","60292aabf20c7d2af65541a7","686e379bc37a29ffa5cdc956","687760135eeea959a6c60763","1","1","60292aabf20c7d2af65541a7","1","1","2025-07-16T08:27:36.237Z","","","","","","","","","","","MotivationQ","","50","","","","","","","","","","","","","","","","","","","","","","","","","","","","",""
"","","","","ctl-task-cpt","54","628400","0.0-5.0-0.9","41","1","2025-07-16 08:17:33","1f75c3e559b7213887762d5229550c2b","41.56.153.67","Mozilla/5.0 (Windows NT 10.0; Win64; x64) AppleWebKit/537.36 (KHTML, like Gecko) Chrome/138.0.0.0 Safari/537.36","WebKit","Chrome","138.0.0.0","Windows","10.0","https://app.prolific.com/","en-ZA,en-GB;q=0.9,en-US;q=0.8,en;q=0.7","60292aabf20c7d2af65541a7","686e379bc37a29ffa5cdc956","687760135eeea959a6c60763","1","1","60292aabf20c7d2af65541a7","1","1","2025-07-16T08:28:04.014Z","","","","","","","","","","","","","","win-only","1","g1:NE,g2:SW","0.4","10","0","603542.3","1453.4","6455.7","24751.4","1","4","4","6","1","1","0","5","5","0.03787878787878788","881.4","3000","1215","[""up"",""right""]","{""num_key_presses"":5,""num_perfect"":2,""num_errors"":1,""num_randdir"":2,""num_randdir_good_moves"":2,""num_whilered"":0,""num_whileblue"":0,""num_blue"":1,""num_good_moves"":4}","[349.14285714285717,342.04910714285717,0.4,349.14285714285717,342.04910714285717,102.3,349.14285714285717,342.04910714285717,208.1,349.14285714285717,342.04910714285717,310.3,350.14285714285717,339.04910714285717,420.9,547.1428571428571,191.04910714285714,525.2,569.1428571428571,136.04910714285714,627.1,602.1428571428571,86.04910714285714,735.7,620.1428571428571,47.049107142857146,838,620.1428571428571,47.049107142857146,946.3,620.1428571428571,47.049107142857146,1057,620.1428571428571,47.049107142857146,1162.3,560.1428571428571,100.04910714285714,1266.8,437.14285714285717,216.04910714285714,1367,410.14285714285717,284.04910714285717,1476.5,405.14285714285717,336.04910714285717,1579.4,404.14285714285717,345.04910714285717,1686.7,402.14285714285717,350.04910714285717,1787.2,402.14285714285717,350.04910714285717,1887.8,402.14285714285717,351.04910714285717,1999.9,402.14285714285717,351.04910714285717,2102.9,402.14285714285717,351.04910714285717,2209.6,402.14285714285717,351.04910714285717,2320.8,402.14285714285717,351.04910714285717,2422.3,402.14285714285717,351.04910714285717,2524,402.14285714285717,351.04910714285717,2628.9,402.14285714285717,351.04910714285717,2735.2,402.14285714285717,351.04910714285717,2839.7,402.14285714285717,351.04910714285717,2945.5,402.14285714285717,351.04910714285717,3058.5,402.14285714285717,351.04910714285717,3174.1,402.14285714285717,351.04910714285717,3278.4,402.14285714285717,351.04910714285717,3378.7,402.14285714285717,351.04910714285717,3483.9,402.14285714285717,351.04910714285717,3587.2,402.14285714285717,351.04910714285717,3687.8,402.14285714285717,351.04910714285717,3787.8,402.14285714285717,351.04910714285717,3893.1,402.14285714285717,351.04910714285717,4001.1,402.14285714285717,351.04910714285717,4102.8,402.14285714285717,351.04910714285717,4202.8,402.14285714285717,351.04910714285717,4302.8,402.14285714285717,351.04910714285717,4407.7,402.14285714285717,351.04910714285717,4523.4,402.14285714285717,351.04910714285717,4627.2,402.14285714285717,351.04910714285717,4735.7,402.14285714285717,351.04910714285717,4837.8,402.14285714285717,351.04910714285717,4937.9]","[844.9,844.9,1000,0,-155.1,""error"",""-"",""-"",""no_move"",8365,7519.6,2720.2,5103.1,541.7,""oops"",""up"",""right"",""good_move"",11327.8,2962,2171.6,8365.8,790.4,""smooth"",""up"",""up"",""good_move"",14812.4,3483.6,2879.1,11328.8,604.6,""smooth"",""up"",""up"",""good_move"",18166.7,3353.9,2748.5,14812.9,605.3,""oops"",""right"",""right"",""good_move""]","",""
"4045","","<div style=""width:500px;"">
  <p>What determined the result of this run?</p>
  </div>","98","html-slider-response","55","632446","0.0-5.0-1.9","41","1","2025-07-16 08:17:33","1f75c3e559b7213887762d5229550c2b","41.56.153.67","Mozilla/5.0 (Windows NT 10.0; Win64; x64) AppleWebKit/537.36 (KHTML, like Gecko) Chrome/138.0.0.0 Safari/537.36","WebKit","Chrome","138.0.0.0","Windows","10.0","https://app.prolific.com/","en-ZA,en-GB;q=0.9,en-US;q=0.8,en;q=0.7","60292aabf20c7d2af65541a7","686e379bc37a29ffa5cdc956","687760135eeea959a6c60763","1","1","60292aabf20c7d2af65541a7","1","1","2025-07-16T08:28:08.061Z","","","","","","","","","","","AttribQ","","50","","","","","","","","","","","","","","","","","","","","","","","","","","","","",""
"3047","","<div style=""width:500px;"">
  <p>How much control did you have over the ball?</p>
  </div>","98","html-slider-response","56","635495","0.0-5.0-2.9","41","1","2025-07-16 08:17:33","1f75c3e559b7213887762d5229550c2b","41.56.153.67","Mozilla/5.0 (Windows NT 10.0; Win64; x64) AppleWebKit/537.36 (KHTML, like Gecko) Chrome/138.0.0.0 Safari/537.36","WebKit","Chrome","138.0.0.0","Windows","10.0","https://app.prolific.com/","en-ZA,en-GB;q=0.9,en-US;q=0.8,en;q=0.7","60292aabf20c7d2af65541a7","686e379bc37a29ffa5cdc956","687760135eeea959a6c60763","1","1","60292aabf20c7d2af65541a7","1","1","2025-07-16T08:28:11.109Z","","","","","","","","","","","ControlQ","","50","","","","","","","","","","","","","","","","","","","","","","","","","","","","",""
"4727","","<div style=""width:500px;"">
  <p>How would you describe your current emotional state?</p>
  </div>","79","html-slider-response","57","640223","0.0-5.0-3.9","41","1","2025-07-16 08:17:33","1f75c3e559b7213887762d5229550c2b","41.56.153.67","Mozilla/5.0 (Windows NT 10.0; Win64; x64) AppleWebKit/537.36 (KHTML, like Gecko) Chrome/138.0.0.0 Safari/537.36","WebKit","Chrome","138.0.0.0","Windows","10.0","https://app.prolific.com/","en-ZA,en-GB;q=0.9,en-US;q=0.8,en;q=0.7","60292aabf20c7d2af65541a7","686e379bc37a29ffa5cdc956","687760135eeea959a6c60763","1","1","60292aabf20c7d2af65541a7","1","1","2025-07-16T08:28:15.838Z","","","","","","","","","","","StressQ","","50","","","","","","","","","","","","","","","","","","","","","","","","","","","","",""
"2503","","<div style=""width:500px;"">
  <p>What best describes how you currently feel?</p>
  </div>","100","html-slider-response","58","642728","0.0-5.0-4.9","41","1","2025-07-16 08:17:33","1f75c3e559b7213887762d5229550c2b","41.56.153.67","Mozilla/5.0 (Windows NT 10.0; Win64; x64) AppleWebKit/537.36 (KHTML, like Gecko) Chrome/138.0.0.0 Safari/537.36","WebKit","Chrome","138.0.0.0","Windows","10.0","https://app.prolific.com/","en-ZA,en-GB;q=0.9,en-US;q=0.8,en;q=0.7","60292aabf20c7d2af65541a7","686e379bc37a29ffa5cdc956","687760135eeea959a6c60763","1","1","60292aabf20c7d2af65541a7","1","1","2025-07-16T08:28:18.342Z","","","","","","","","","","","MotivationQ","","50","","","","","","","","","","","","","","","","","","","","","","","","","","","","",""
"","","","","ctl-task-cpt","59","675895","0.0-5.0-0.10","41","1","2025-07-16 08:17:33","1f75c3e559b7213887762d5229550c2b","41.56.153.67","Mozilla/5.0 (Windows NT 10.0; Win64; x64) AppleWebKit/537.36 (KHTML, like Gecko) Chrome/138.0.0.0 Safari/537.36","WebKit","Chrome","138.0.0.0","Windows","10.0","https://app.prolific.com/","en-ZA,en-GB;q=0.9,en-US;q=0.8,en;q=0.7","60292aabf20c7d2af65541a7","686e379bc37a29ffa5cdc956","687760135eeea959a6c60763","1","1","60292aabf20c7d2af65541a7","1","1","2025-07-16T08:28:51.509Z","","","","","","","","","","","","","","win-only","2","g1:SE,g2:NW","0.5","11","0","645648","1355.6","6370.4","30137.2","1","4","4","6","1","1","1","6","5","0.045454545454545456","1520.7","3000","310","[""down"",""right""]","{""num_key_presses"":6,""num_perfect"":3,""num_errors"":0,""num_randdir"":3,""num_randdir_good_moves"":2,""num_whilered"":0,""num_whileblue"":0,""num_blue"":2,""num_good_moves"":5}","[349.14285714285717,352.04910714285717,0.3,349.14285714285717,352.04910714285717,101.3,349.14285714285717,352.04910714285717,202.9,349.14285714285717,352.04910714285717,306.9,349.14285714285717,352.04910714285717,411.9,349.14285714285717,352.04910714285717,522.3,397.14285714285717,424.04910714285717,631.7,441.14285714285717,468.04910714285717,734.5,482.14285714285717,527.0491071428571,835.5,529.1428571428571,585.0491071428571,937.5,545.1428571428571,596.0491071428571,1038.8,570.1428571428571,596.0491071428571,1150.4,581.1428571428571,599.0491071428571,1252.5,604.1428571428571,610.0491071428571,1363.1,605.1428571428571,611.0491071428571,1468.6,605.1428571428571,611.0491071428571,1582,605.1428571428571,611.0491071428571,1683.2,600.1428571428571,609.0491071428571,1783.2,581.1428571428571,598.0491071428571,1897.3,541.1428571428571,587.0491071428571,1999.4,539.1428571428571,587.0491071428571,2100.1,535.1428571428571,587.0491071428571,2202,533.1428571428571,587.0491071428571,2306.6,533.1428571428571,587.0491071428571,2406.7,533.1428571428571,587.0491071428571,2512.8,519.1428571428571,582.0491071428571,2620.5,475.14285714285717,574.0491071428571,2732.3,404.14285714285717,580.0491071428571,2843.7,321.14285714285717,592.0491071428571,2962.9,312.14285714285717,594.0491071428571,3067.6,312.14285714285717,594.0491071428571,3172.2,312.14285714285717,594.0491071428571,3272.9,312.14285714285717,594.0491071428571,3383.7,312.14285714285717,594.0491071428571,3486.6,312.14285714285717,594.0491071428571,3593.5,312.14285714285717,594.0491071428571,3717.4,312.14285714285717,594.0491071428571,3819.7,312.14285714285717,594.0491071428571,3920,312.14285714285717,594.0491071428571,4022.1,312.14285714285717,594.0491071428571,4144.7,312.14285714285717,594.0491071428571,4248.8,312.14285714285717,594.0491071428571,4349.9,312.14285714285717,594.0491071428571,4468.9,312.14285714285717,594.0491071428571,4575,312.14285714285717,594.0491071428571,4683.5,312.14285714285717,594.0491071428571,4794.9,312.14285714285717,594.0491071428571,4896.4]","[8120.2,8120.2,1800.5,5765.7,554,""oops"",""right"",""left"",""bad_move"",11426.3,3305.1,2355.4,8121.2,949.7,""smooth"",""right"",""right"",""good_move"",14437.2,3010.1,2466.5,11427.1,543.6,""smooth"",""down"",""down"",""good_move"",17673.7,3235.8,2548.5,14437.9,687.3,""oops"",""down"",""right"",""good_move"",20520.3,2846.3,1905.1,17674,941.2,""smooth"",""down"",""down"",""good_move"",23631.7,3110.8,2680.5,20520.9,430.3,""oops"",""right"",""right"",""good_move""]","",""
"2982","","<div style=""width:500px;"">
  <p>What determined the result of this run?</p>
  </div>","93","html-slider-response","60","678879","0.0-5.0-1.10","41","1","2025-07-16 08:17:33","1f75c3e559b7213887762d5229550c2b","41.56.153.67","Mozilla/5.0 (Windows NT 10.0; Win64; x64) AppleWebKit/537.36 (KHTML, like Gecko) Chrome/138.0.0.0 Safari/537.36","WebKit","Chrome","138.0.0.0","Windows","10.0","https://app.prolific.com/","en-ZA,en-GB;q=0.9,en-US;q=0.8,en;q=0.7","60292aabf20c7d2af65541a7","686e379bc37a29ffa5cdc956","687760135eeea959a6c60763","1","1","60292aabf20c7d2af65541a7","1","1","2025-07-16T08:28:54.494Z","","","","","","","","","","","AttribQ","","50","","","","","","","","","","","","","","","","","","","","","","","","","","","","",""
"3037","","<div style=""width:500px;"">
  <p>How much control did you have over the ball?</p>
  </div>","86","html-slider-response","61","681918","0.0-5.0-2.10","41","1","2025-07-16 08:17:33","1f75c3e559b7213887762d5229550c2b","41.56.153.67","Mozilla/5.0 (Windows NT 10.0; Win64; x64) AppleWebKit/537.36 (KHTML, like Gecko) Chrome/138.0.0.0 Safari/537.36","WebKit","Chrome","138.0.0.0","Windows","10.0","https://app.prolific.com/","en-ZA,en-GB;q=0.9,en-US;q=0.8,en;q=0.7","60292aabf20c7d2af65541a7","686e379bc37a29ffa5cdc956","687760135eeea959a6c60763","1","1","60292aabf20c7d2af65541a7","1","1","2025-07-16T08:28:57.532Z","","","","","","","","","","","ControlQ","","50","","","","","","","","","","","","","","","","","","","","","","","","","","","","",""
"2456","","<div style=""width:500px;"">
  <p>How would you describe your current emotional state?</p>
  </div>","56","html-slider-response","62","684375","0.0-5.0-3.10","41","1","2025-07-16 08:17:33","1f75c3e559b7213887762d5229550c2b","41.56.153.67","Mozilla/5.0 (Windows NT 10.0; Win64; x64) AppleWebKit/537.36 (KHTML, like Gecko) Chrome/138.0.0.0 Safari/537.36","WebKit","Chrome","138.0.0.0","Windows","10.0","https://app.prolific.com/","en-ZA,en-GB;q=0.9,en-US;q=0.8,en;q=0.7","60292aabf20c7d2af65541a7","686e379bc37a29ffa5cdc956","687760135eeea959a6c60763","1","1","60292aabf20c7d2af65541a7","1","1","2025-07-16T08:28:59.990Z","","","","","","","","","","","StressQ","","50","","","","","","","","","","","","","","","","","","","","","","","","","","","","",""
"3013","","<div style=""width:500px;"">
  <p>What best describes how you currently feel?</p>
  </div>","100","html-slider-response","63","687390","0.0-5.0-4.10","41","1","2025-07-16 08:17:33","1f75c3e559b7213887762d5229550c2b","41.56.153.67","Mozilla/5.0 (Windows NT 10.0; Win64; x64) AppleWebKit/537.36 (KHTML, like Gecko) Chrome/138.0.0.0 Safari/537.36","WebKit","Chrome","138.0.0.0","Windows","10.0","https://app.prolific.com/","en-ZA,en-GB;q=0.9,en-US;q=0.8,en;q=0.7","60292aabf20c7d2af65541a7","686e379bc37a29ffa5cdc956","687760135eeea959a6c60763","1","1","60292aabf20c7d2af65541a7","1","1","2025-07-16T08:29:03.005Z","","","","","","","","","","","MotivationQ","","50","","","","","","","","","","","","","","","","","","","","","","","","","","","","",""
"","","","","ctl-task-cpt","64","705819","0.0-5.0-0.11","41","1","2025-07-16 08:17:33","1f75c3e559b7213887762d5229550c2b","41.56.153.67","Mozilla/5.0 (Windows NT 10.0; Win64; x64) AppleWebKit/537.36 (KHTML, like Gecko) Chrome/138.0.0.0 Safari/537.36","WebKit","Chrome","138.0.0.0","Windows","10.0","https://app.prolific.com/","en-ZA,en-GB;q=0.9,en-US;q=0.8,en;q=0.7","60292aabf20c7d2af65541a7","686e379bc37a29ffa5cdc956","687760135eeea959a6c60763","1","1","60292aabf20c7d2af65541a7","1","1","2025-07-16T08:29:21.433Z","","","","","","","","","","","","","","win-only","2","g1:SE,g2:NW","0.6","12","0","690310.8","1089.6","6093.9","15407.1","1","4","8","6","1","1","1","7","6","0.05303030303030303","1339.5","3000","1635","[""down"",""right""]","{""num_key_presses"":4,""num_perfect"":4,""num_errors"":0,""num_randdir"":0,""num_randdir_good_moves"":0,""num_whilered"":0,""num_whileblue"":0,""num_blue"":0,""num_good_moves"":4}","[340.14285714285717,341.04910714285717,0.4,340.14285714285717,341.04910714285717,103.1,340.14285714285717,341.04910714285717,205.9,340.14285714285717,341.04910714285717,306.1,340.14285714285717,341.04910714285717,406.9,340.14285714285717,341.04910714285717,508.5,340.14285714285717,341.04910714285717,622.9,350.14285714285717,382.04910714285717,727.8,483.14285714285717,560.0491071428571,831.8,506.14285714285717,577.0491071428571,939.4,541.1428571428571,597.0491071428571,1042.5,611.1428571428571,598.0491071428571,1145.9,616.1428571428571,596.0491071428571,1259.9,616.1428571428571,596.0491071428571,1372.4,616.1428571428571,595.0491071428571,1481.4,613.1428571428571,594.0491071428571,1586.5,581.1428571428571,580.0491071428571,1695.6,579.1428571428571,580.0491071428571,1796,488.14285714285717,570.0491071428571,1898.1,486.14285714285717,570.0491071428571,2000.9,475.14285714285717,558.0491071428571,2110.7,465.14285714285717,533.0491071428571,2228,555.1428571428571,457.04910714285717,2346.2,589.1428571428571,425.04910714285717,2460.6,597.1428571428571,421.04910714285717,2570.2,597.1428571428571,421.04910714285717,2677.3,597.1428571428571,421.04910714285717,2786.1,597.1428571428571,421.04910714285717,2890.3,597.1428571428571,421.04910714285717,2995.3,597.1428571428571,421.04910714285717,3096.6,597.1428571428571,421.04910714285717,3201.1,597.1428571428571,421.04910714285717,3306.4,597.1428571428571,421.04910714285717,3410.9,597.1428571428571,421.04910714285717,3525.5,597.1428571428571,421.04910714285717,3637.3,597.1428571428571,421.04910714285717,3742,597.1428571428571,421.04910714285717,3842.4,597.1428571428571,421.04910714285717,3942.6,597.1428571428571,421.04910714285717,4050.3,597.1428571428571,421.04910714285717,4151.6,597.1428571428571,421.04910714285717,4252.3,597.1428571428571,421.04910714285717,4352.9,597.1428571428571,421.04910714285717,4457.2,597.1428571428571,421.04910714285717,4564.2,597.1428571428571,421.04910714285717,4666,597.1428571428571,421.04910714285717,4767,597.1428571428571,421.04910714285717,4871.7,597.1428571428571,421.04910714285717,4972.1]","[1525.7,1525.7,1000,0,525.7,""smooth"",""down"",""down"",""good_move"",3793.2,2266.5,1770.1,1526.7,496.4,""smooth"",""down"",""down"",""good_move"",6501.1,2707.5,2224.9,3793.6,482.6,""smooth"",""right"",""right"",""good_move"",9173.4,2670.9,2169.7,6502.5,501.2,""smooth"",""right"",""right"",""good_move""]","",""
"3706","","<div style=""width:500px;"">
  <p>What determined the result of this run?</p>
  </div>","99","html-slider-response","65","709527","0.0-5.0-1.11","41","1","2025-07-16 08:17:33","1f75c3e559b7213887762d5229550c2b","41.56.153.67","Mozilla/5.0 (Windows NT 10.0; Win64; x64) AppleWebKit/537.36 (KHTML, like Gecko) Chrome/138.0.0.0 Safari/537.36","WebKit","Chrome","138.0.0.0","Windows","10.0","https://app.prolific.com/","en-ZA,en-GB;q=0.9,en-US;q=0.8,en;q=0.7","60292aabf20c7d2af65541a7","686e379bc37a29ffa5cdc956","687760135eeea959a6c60763","1","1","60292aabf20c7d2af65541a7","1","1","2025-07-16T08:29:25.141Z","","","","","","","","","","","AttribQ","","50","","","","","","","","","","","","","","","","","","","","","","","","","","","","",""
"2735","","<div style=""width:500px;"">
  <p>How much control did you have over the ball?</p>
  </div>","100","html-slider-response","66","712263","0.0-5.0-2.11","41","1","2025-07-16 08:17:33","1f75c3e559b7213887762d5229550c2b","41.56.153.67","Mozilla/5.0 (Windows NT 10.0; Win64; x64) AppleWebKit/537.36 (KHTML, like Gecko) Chrome/138.0.0.0 Safari/537.36","WebKit","Chrome","138.0.0.0","Windows","10.0","https://app.prolific.com/","en-ZA,en-GB;q=0.9,en-US;q=0.8,en;q=0.7","60292aabf20c7d2af65541a7","686e379bc37a29ffa5cdc956","687760135eeea959a6c60763","1","1","60292aabf20c7d2af65541a7","1","1","2025-07-16T08:29:27.877Z","","","","","","","","","","","ControlQ","","50","","","","","","","","","","","","","","","","","","","","","","","","","","","","",""
"4615","","<div style=""width:500px;"">
  <p>How would you describe your current emotional state?</p>
  </div>","47","html-slider-response","67","716879","0.0-5.0-3.11","41","1","2025-07-16 08:17:33","1f75c3e559b7213887762d5229550c2b","41.56.153.67","Mozilla/5.0 (Windows NT 10.0; Win64; x64) AppleWebKit/537.36 (KHTML, like Gecko) Chrome/138.0.0.0 Safari/537.36","WebKit","Chrome","138.0.0.0","Windows","10.0","https://app.prolific.com/","en-ZA,en-GB;q=0.9,en-US;q=0.8,en;q=0.7","60292aabf20c7d2af65541a7","686e379bc37a29ffa5cdc956","687760135eeea959a6c60763","1","1","60292aabf20c7d2af65541a7","1","1","2025-07-16T08:29:32.493Z","","","","","","","","","","","StressQ","","50","","","","","","","","","","","","","","","","","","","","","","","","","","","","",""
"3207","","<div style=""width:500px;"">
  <p>What best describes how you currently feel?</p>
  </div>","100","html-slider-response","68","720088","0.0-5.0-4.11","41","1","2025-07-16 08:17:33","1f75c3e559b7213887762d5229550c2b","41.56.153.67","Mozilla/5.0 (Windows NT 10.0; Win64; x64) AppleWebKit/537.36 (KHTML, like Gecko) Chrome/138.0.0.0 Safari/537.36","WebKit","Chrome","138.0.0.0","Windows","10.0","https://app.prolific.com/","en-ZA,en-GB;q=0.9,en-US;q=0.8,en;q=0.7","60292aabf20c7d2af65541a7","686e379bc37a29ffa5cdc956","687760135eeea959a6c60763","1","1","60292aabf20c7d2af65541a7","1","1","2025-07-16T08:29:35.702Z","","","","","","","","","","","MotivationQ","","50","","","","","","","","","","","","","","","","","","","","","","","","","","","","",""
"","","","","ctl-task-cpt","69","750196","0.0-5.0-0.12","41","1","2025-07-16 08:17:33","1f75c3e559b7213887762d5229550c2b","41.56.153.67","Mozilla/5.0 (Windows NT 10.0; Win64; x64) AppleWebKit/537.36 (KHTML, like Gecko) Chrome/138.0.0.0 Safari/537.36","WebKit","Chrome","138.0.0.0","Windows","10.0","https://app.prolific.com/","en-ZA,en-GB;q=0.9,en-US;q=0.8,en;q=0.7","60292aabf20c7d2af65541a7","686e379bc37a29ffa5cdc956","687760135eeea959a6c60763","1","1","60292aabf20c7d2af65541a7","1","1","2025-07-16T08:30:05.810Z","","","","","","","","","","","","","","win-only","0","g1:NW,g2:SE","0.7","13","0","723006.4","998.2","6015.9","27087.6","1","4","8","6","1","1","1","8","7","0.06060606060606061","1155.2","3000","555","[""left"",""up""]","{""num_key_presses"":6,""num_perfect"":4,""num_errors"":0,""num_randdir"":2,""num_randdir_good_moves"":1,""num_whilered"":0,""num_whileblue"":0,""num_blue"":1,""num_good_moves"":5}","[340.14285714285717,355.04910714285717,0.4,340.14285714285717,355.04910714285717,103.5,340.14285714285717,355.04910714285717,209.8,340.14285714285717,355.04910714285717,313,340.14285714285717,355.04910714285717,429.4,339.14285714285717,365.04910714285717,530.6,141.14285714285714,271.04910714285717,646.3,68.14285714285714,126.04910714285714,749,68.14285714285714,126.04910714285714,852.4,65.14285714285714,114.04910714285714,960.5,58.142857142857146,81.04910714285714,1060.7,57.142857142857146,75.04910714285714,1160.9,57.142857142857146,75.04910714285714,1264.9,57.142857142857146,75.04910714285714,1368.2,127.14285714285714,151.04910714285714,1471.2,176.14285714285714,264.04910714285717,1574.7,196.14285714285714,321.04910714285717,1681.3,203.14285714285714,350.04910714285717,1795.8,204.14285714285714,354.04910714285717,1896.6,204.14285714285714,354.04910714285717,1997.2,204.14285714285714,354.04910714285717,2099.7,204.14285714285714,354.04910714285717,2204.8,204.14285714285714,354.04910714285717,2309,204.14285714285714,354.04910714285717,2412.5,204.14285714285714,354.04910714285717,2513.5,204.14285714285714,354.04910714285717,2618,204.14285714285714,354.04910714285717,2719.6,204.14285714285714,354.04910714285717,2819.7,204.14285714285714,354.04910714285717,2924.4,204.14285714285714,354.04910714285717,3024.5,204.14285714285714,354.04910714285717,3129.2,204.14285714285714,354.04910714285717,3233.2,204.14285714285714,354.04910714285717,3346.8,204.14285714285714,354.04910714285717,3447.5,204.14285714285714,354.04910714285717,3549.1,204.14285714285714,354.04910714285717,3649.2,204.14285714285714,354.04910714285717,3757.2,204.14285714285714,354.04910714285717,3858.8,204.14285714285714,354.04910714285717,3970,204.14285714285714,354.04910714285717,4080.8,204.14285714285714,354.04910714285717,4182.6,204.14285714285714,354.04910714285717,4282.7,204.14285714285714,354.04910714285717,4385.8,204.14285714285714,354.04910714285717,4486,204.14285714285714,354.04910714285717,4587.6,204.14285714285714,354.04910714285717,4693.6,204.14285714285714,354.04910714285717,4798.9,204.14285714285714,354.04910714285717,4898.9]","[2075.9,2075.9,1000,0,1075.9,""smooth"",""left"",""left"",""good_move"",9524.1,7447.1,2797.3,6259.8,467,""oops"",""up"",""down"",""bad_move"",11732.3,2207.2,1621.1,9525.1,586.1,""oops"",""left"",""left"",""good_move"",15274.6,3541.6,3069.9,11733,471.7,""smooth"",""up"",""up"",""good_move"",18139.9,2864.8,2333,15275.1,531.8,""smooth"",""up"",""up"",""good_move"",20940.1,2799.9,2327.4,18140.2,472.5,""smooth"",""up"",""up"",""good_move""]","",""
"3170","","<div style=""width:500px;"">
  <p>What determined the result of this run?</p>
  </div>","100","html-slider-response","70","753367","0.0-5.0-1.12","41","1","2025-07-16 08:17:33","1f75c3e559b7213887762d5229550c2b","41.56.153.67","Mozilla/5.0 (Windows NT 10.0; Win64; x64) AppleWebKit/537.36 (KHTML, like Gecko) Chrome/138.0.0.0 Safari/537.36","WebKit","Chrome","138.0.0.0","Windows","10.0","https://app.prolific.com/","en-ZA,en-GB;q=0.9,en-US;q=0.8,en;q=0.7","60292aabf20c7d2af65541a7","686e379bc37a29ffa5cdc956","687760135eeea959a6c60763","1","1","60292aabf20c7d2af65541a7","1","1","2025-07-16T08:30:08.981Z","","","","","","","","","","","AttribQ","","50","","","","","","","","","","","","","","","","","","","","","","","","","","","","",""
"3926","","<div style=""width:500px;"">
  <p>How much control did you have over the ball?</p>
  </div>","86","html-slider-response","71","757295","0.0-5.0-2.12","41","1","2025-07-16 08:17:33","1f75c3e559b7213887762d5229550c2b","41.56.153.67","Mozilla/5.0 (Windows NT 10.0; Win64; x64) AppleWebKit/537.36 (KHTML, like Gecko) Chrome/138.0.0.0 Safari/537.36","WebKit","Chrome","138.0.0.0","Windows","10.0","https://app.prolific.com/","en-ZA,en-GB;q=0.9,en-US;q=0.8,en;q=0.7","60292aabf20c7d2af65541a7","686e379bc37a29ffa5cdc956","687760135eeea959a6c60763","1","1","60292aabf20c7d2af65541a7","1","1","2025-07-16T08:30:12.909Z","","","","","","","","","","","ControlQ","","50","","","","","","","","","","","","","","","","","","","","","","","","","","","","",""
"2839","","<div style=""width:500px;"">
  <p>How would you describe your current emotional state?</p>
  </div>","43","html-slider-response","72","760135","0.0-5.0-3.12","41","1","2025-07-16 08:17:33","1f75c3e559b7213887762d5229550c2b","41.56.153.67","Mozilla/5.0 (Windows NT 10.0; Win64; x64) AppleWebKit/537.36 (KHTML, like Gecko) Chrome/138.0.0.0 Safari/537.36","WebKit","Chrome","138.0.0.0","Windows","10.0","https://app.prolific.com/","en-ZA,en-GB;q=0.9,en-US;q=0.8,en;q=0.7","60292aabf20c7d2af65541a7","686e379bc37a29ffa5cdc956","687760135eeea959a6c60763","1","1","60292aabf20c7d2af65541a7","1","1","2025-07-16T08:30:15.749Z","","","","","","","","","","","StressQ","","50","","","","","","","","","","","","","","","","","","","","","","","","","","","","",""
"2589","","<div style=""width:500px;"">
  <p>What best describes how you currently feel?</p>
  </div>","100","html-slider-response","73","762727","0.0-5.0-4.12","41","1","2025-07-16 08:17:33","1f75c3e559b7213887762d5229550c2b","41.56.153.67","Mozilla/5.0 (Windows NT 10.0; Win64; x64) AppleWebKit/537.36 (KHTML, like Gecko) Chrome/138.0.0.0 Safari/537.36","WebKit","Chrome","138.0.0.0","Windows","10.0","https://app.prolific.com/","en-ZA,en-GB;q=0.9,en-US;q=0.8,en;q=0.7","60292aabf20c7d2af65541a7","686e379bc37a29ffa5cdc956","687760135eeea959a6c60763","1","1","60292aabf20c7d2af65541a7","1","1","2025-07-16T08:30:18.341Z","","","","","","","","","","","MotivationQ","","50","","","","","","","","","","","","","","","","","","","","","","","","","","","","",""
"","","","","ctl-task-cpt","74","793040","0.0-5.0-0.13","41","1","2025-07-16 08:17:33","1f75c3e559b7213887762d5229550c2b","41.56.153.67","Mozilla/5.0 (Windows NT 10.0; Win64; x64) AppleWebKit/537.36 (KHTML, like Gecko) Chrome/138.0.0.0 Safari/537.36","WebKit","Chrome","138.0.0.0","Windows","10.0","https://app.prolific.com/","en-ZA,en-GB;q=0.9,en-US;q=0.8,en;q=0.7","60292aabf20c7d2af65541a7","686e379bc37a29ffa5cdc956","687760135eeea959a6c60763","1","1","60292aabf20c7d2af65541a7","1","1","2025-07-16T08:30:48.654Z","","","","","","","","","","","","","","win-only","0","g1:NW,g2:SE","0.8","14","0","765646","3527.2","8531.7","27291.1","1","4","4","6","1","1","1","9","8","0.06818181818181818","934.1","3000","1345","[""left"",""up""]","{""num_key_presses"":6,""num_perfect"":5,""num_errors"":0,""num_randdir"":1,""num_randdir_good_moves"":0,""num_whilered"":0,""num_whileblue"":0,""num_blue"":1,""num_good_moves"":5}","[348.14285714285717,346.04910714285717,0.3,348.14285714285717,346.04910714285717,100.2,348.14285714285717,346.04910714285717,203.4,348.14285714285717,346.04910714285717,306.5,348.14285714285717,346.04910714285717,411.6,194.14285714285714,223.04910714285714,513.7,162.14285714285714,188.04910714285714,615.3,111.14285714285714,127.04910714285714,719.1,81.14285714285714,98.04910714285714,819.2,81.14285714285714,97.04910714285714,919.3,81.14285714285714,97.04910714285714,1021.3,81.14285714285714,97.04910714285714,1136,201.14285714285714,166.04910714285714,1240.9,323.14285714285717,271.04910714285717,1355.6,338.14285714285717,279.04910714285717,1460.4,371.14285714285717,291.04910714285717,1568.5,411.14285714285717,300.04910714285717,1680.4,437.14285714285717,308.04910714285717,1784.2,437.14285714285717,308.04910714285717,1885.8,437.14285714285717,308.04910714285717,1988.7,437.14285714285717,308.04910714285717,2088.9,437.14285714285717,308.04910714285717,2197.3,437.14285714285717,308.04910714285717,2306,437.14285714285717,308.04910714285717,2409.7,437.14285714285717,308.04910714285717,2514.2,437.14285714285717,308.04910714285717,2631,437.14285714285717,308.04910714285717,2739.6,437.14285714285717,308.04910714285717,2851,437.14285714285717,308.04910714285717,2955.5,437.14285714285717,308.04910714285717,3076.9,437.14285714285717,308.04910714285717,3179,437.14285714285717,308.04910714285717,3279.7,437.14285714285717,308.04910714285717,3383.9,437.14285714285717,308.04910714285717,3490.6,437.14285714285717,308.04910714285717,3596.2,437.14285714285717,308.04910714285717,3701.3,437.14285714285717,308.04910714285717,3813.2,437.14285714285717,308.04910714285717,3927.3,437.14285714285717,308.04910714285717,4030.6,437.14285714285717,308.04910714285717,4132.4,437.14285714285717,308.04910714285717,4233.6,437.14285714285717,308.04910714285717,4333.7,437.14285714285717,308.04910714285717,4435.9,437.14285714285717,308.04910714285717,4536.9,437.14285714285717,308.04910714285717,4644.7,437.14285714285717,308.04910714285717,4749.3,437.14285714285717,308.04910714285717,4849.3,437.14285714285717,308.04910714285717,4953.1]","[1448.9,1448.9,1000,0,448.9,""smooth"",""up"",""up"",""good_move"",4246.6,2796.6,2313.6,1450,483,""smooth"",""up"",""up"",""good_move"",7280.7,3033.8,2603.8,4246.9,430,""oops"",""left"",""right"",""bad_move"",9920.7,2639.5,2214.2,7281.2,425.3,""smooth"",""left"",""left"",""good_move"",15358.5,5437,2247.6,12654.3,456.6,""smooth"",""left"",""left"",""good_move"",18614.1,3255.2,2756.8,15358.9,498.4,""smooth"",""left"",""left"",""good_move""]","",""
"4093","","<div style=""width:500px;"">
  <p>What determined the result of this run?</p>
  </div>","98","html-slider-response","75","797135","0.0-5.0-1.13","41","1","2025-07-16 08:17:33","1f75c3e559b7213887762d5229550c2b","41.56.153.67","Mozilla/5.0 (Windows NT 10.0; Win64; x64) AppleWebKit/537.36 (KHTML, like Gecko) Chrome/138.0.0.0 Safari/537.36","WebKit","Chrome","138.0.0.0","Windows","10.0","https://app.prolific.com/","en-ZA,en-GB;q=0.9,en-US;q=0.8,en;q=0.7","60292aabf20c7d2af65541a7","686e379bc37a29ffa5cdc956","687760135eeea959a6c60763","1","1","60292aabf20c7d2af65541a7","1","1","2025-07-16T08:30:52.749Z","","","","","","","","","","","AttribQ","","50","","","","","","","","","","","","","","","","","","","","","","","","","","","","",""
"3645","","<div style=""width:500px;"">
  <p>How much control did you have over the ball?</p>
  </div>","82","html-slider-response","76","800782","0.0-5.0-2.13","41","1","2025-07-16 08:17:33","1f75c3e559b7213887762d5229550c2b","41.56.153.67","Mozilla/5.0 (Windows NT 10.0; Win64; x64) AppleWebKit/537.36 (KHTML, like Gecko) Chrome/138.0.0.0 Safari/537.36","WebKit","Chrome","138.0.0.0","Windows","10.0","https://app.prolific.com/","en-ZA,en-GB;q=0.9,en-US;q=0.8,en;q=0.7","60292aabf20c7d2af65541a7","686e379bc37a29ffa5cdc956","687760135eeea959a6c60763","1","1","60292aabf20c7d2af65541a7","1","1","2025-07-16T08:30:56.396Z","","","","","","","","","","","ControlQ","","50","","","","","","","","","","","","","","","","","","","","","","","","","","","","",""
"4255","","<div style=""width:500px;"">
  <p>How would you describe your current emotional state?</p>
