"rt","response_timestamp","stimulus","response","trial_type","trial_index","time_elapsed","internal_node_id","run_id","condition","recorded_at","source_code_version","ip","user_agent","device","browser","browser_version","platform","platform_version","referer","accept_language","PROLIFIC_PID","STUDY_ID","SESSION_ID","WEEK","BATCH","prolific_id","week","batch","realtime","success","responses","item_order","radio_event_ids","radio_event_times","key_event_times","mouse_event_times","straightlining","zigzagging","honeypot","eventType","view_history","slider_start","which_type","canvas_config","goals_layout","control_level","trial_number","tutorial_trial_number","trial_start_time","phase1_start_time","phase2_start_time","phase3_start_time","goal_1_value","goal_1_distance","goal_2_value","goal_2_distance","goal_selected","outcome","outcome_total","participant_final_score","participant_initial_score","participant_final_score_prop","goal_choice_rt","allocated_time","allocated_time_remaining","goal_direction","counts","mouse_movements","key_presses","question_order","question_id"
"3364","1752661547961","<p style='font-size:40px;line-height:1.25'><strong>Welcome to the experiment!</strong></p><p style='font-size:1.1em;line-height:1.25'>Thank you for participanting in our experiment again! You will be asked to play the Dysfunctional Ball Game again. We will briefly recap the rules before we start.</p><p style='font-size:1.1em;line-height:1.25'>Press <strong>Next</strong> to continue.</p>","0","custom-html-button-response","0","3367","0.0-0.0","100","1","2025-07-16 10:25:35","1f75c3e559b7213887762d5229550c2b","90.212.166.118","Mozilla/5.0 (Windows NT 10.0; Win64; x64) AppleWebKit/537.36 (KHTML, like Gecko) Chrome/138.0.0.0 Safari/537.36","WebKit","Chrome","138.0.0.0","Windows","10.0","https://app.prolific.com/","en-GB,en-US;q=0.9,en;q=0.8","59dd90f6e75b450001a68dac","686e379bc37a29ffa5cdc956","68777d4bc6cda202605225d2","1","1","59dd90f6e75b450001a68dac","1","1","2025-07-16T10:25:47.962Z","","","","","","","","","","","","","","","","","","","","","","","","","","","","","","","","","","","","","","","","","",""
"4407","","","","fullscreen","1","8787","0.0-1.0","100","1","2025-07-16 10:25:35","1f75c3e559b7213887762d5229550c2b","90.212.166.118","Mozilla/5.0 (Windows NT 10.0; Win64; x64) AppleWebKit/537.36 (KHTML, like Gecko) Chrome/138.0.0.0 Safari/537.36","WebKit","Chrome","138.0.0.0","Windows","10.0","https://app.prolific.com/","en-GB,en-US;q=0.9,en;q=0.8","59dd90f6e75b450001a68dac","686e379bc37a29ffa5cdc956","68777d4bc6cda202605225d2","1","1","59dd90f6e75b450001a68dac","1","1","","true","","","","","","","","","","","","","","","","","","","","","","","","","","","","","","","","","","","","","","","","",""
"10714","1752661564097","<p style='font-size:1.1em;line-height:1.25'>In the following, we will ask you a few questions relating to your feelings in the last 24 hours.<br></p><p style='font-size:1.1em;line-height:1.25'>Press the <strong>Next</strong> button to continue.</p>","0","custom-html-button-response","2","19502","0.0-2.0-0.0","100","1","2025-07-16 10:25:35","1f75c3e559b7213887762d5229550c2b","90.212.166.118","Mozilla/5.0 (Windows NT 10.0; Win64; x64) AppleWebKit/537.36 (KHTML, like Gecko) Chrome/138.0.0.0 Safari/537.36","WebKit","Chrome","138.0.0.0","Windows","10.0","https://app.prolific.com/","en-GB,en-US;q=0.9,en;q=0.8","59dd90f6e75b450001a68dac","686e379bc37a29ffa5cdc956","68777d4bc6cda202605225d2","1","1","59dd90f6e75b450001a68dac","1","1","2025-07-16T10:26:04.098Z","","","","","","","","","","","","","","","","","","","","","","","","","","","","","","","","","","","","","","","","","",""
"76626","","","","survey-template","3","96133","0.0-2.0-1.0","100","1","2025-07-16 10:25:35","1f75c3e559b7213887762d5229550c2b","90.212.166.118","Mozilla/5.0 (Windows NT 10.0; Win64; x64) AppleWebKit/537.36 (KHTML, like Gecko) Chrome/138.0.0.0 Safari/537.36","WebKit","Chrome","138.0.0.0","Windows","10.0","https://app.prolific.com/","en-GB,en-US;q=0.9,en;q=0.8","59dd90f6e75b450001a68dac","686e379bc37a29ffa5cdc956","68777d4bc6cda202605225d2","1","1","59dd90f6e75b450001a68dac","1","1","2025-07-16T10:27:20.728Z","","{""Q01"":""4"",""Q02"":""5"",""Q03"":""4"",""Q04"":""4"",""Q05"":""3"",""Q06"":""3"",""Q07"":""3"",""Q08"":""0"",""Q09"":""3"",""Q10"":""3"",""Q11"":""4"",""Q12"":""3"",""Q13"":""5"",""Q14"":""3"",""Q15"":""3"",""Q16"":""0"",""Q17"":""5"",""Q18"":""4"",""Q19"":""3"",""Q20"":""4"",""Q21"":""4"",""Q22"":""3""}","[0,1,2,3,4,5,6,7,8,9,10,11,12,13,14,15,16,17,18,19,20,21]","[""Q01"",""Q02"",""Q03"",""Q04"",""Q05"",""Q06"",""Q07"",""Q08"",""Q08"",""Q08"",""Q09"",""Q10"",""Q11"",""Q11"",""Q12"",""Q13"",""Q14"",""Q15"",""Q16"",""Q17"",""Q18"",""Q19"",""Q20"",""Q21"",""Q22""]","[4480.899999976158,6555.099999904633,11153.599999904633,13787.199999928474,15705.199999928474,17823.699999928474,20656.799999952316,22841.699999928474,29151.699999928474,30423.099999904633,31980.899999976158,33548.89999997616,35379,36395.5,40157.299999952316,41257,43651.699999928474,51711.09999990463,53079.799999952316,59863.39999997616,61567.09999990463,64261.09999990463,68105.39999997616,72053.39999997616,75900.29999995232]","[]","[0.19999992847442627,4480.899999976158,6555.099999904633,11153.599999904633,13120.699999928474,13787.199999928474,15705.199999928474,17823.699999928474,20656.799999952316,22841.699999928474,29151.699999928474,30423.099999904633,31980.899999976158,33548.89999997616,35379,36395.5,40157.299999952316,41257,43651.699999928474,51711.09999990463,53079.799999952316,59863.39999997616,61567.09999990463,64261.09999990463,68105.39999997616,72053.39999997616,75900.29999995232,76622.09999990463]","0.45454545454545453","0.47619047619047616","0","drsp","","","","","","","","","","","","","","","","","","","","","","","","","","","","","","",""
"8502.5","","","","survey-template","4","104637","0.0-2.0-2.0","100","1","2025-07-16 10:25:35","1f75c3e559b7213887762d5229550c2b","90.212.166.118","Mozilla/5.0 (Windows NT 10.0; Win64; x64) AppleWebKit/537.36 (KHTML, like Gecko) Chrome/138.0.0.0 Safari/537.36","WebKit","Chrome","138.0.0.0","Windows","10.0","https://app.prolific.com/","en-GB,en-US;q=0.9,en;q=0.8","59dd90f6e75b450001a68dac","686e379bc37a29ffa5cdc956","68777d4bc6cda202605225d2","1","1","59dd90f6e75b450001a68dac","1","1","2025-07-16T10:27:29.233Z","","{""Q01"":""4"",""Q02"":""5"",""Q03"":""5""}","[0,1,2]","[""Q01"",""Q02"",""Q03""]","[3211.100000023842,6161,8089.899999976158]","[]","[3211.100000023842,6161,8089.899999976158,8501.699999928474]","0.3333333333333333","0.5","0","stress","","","","","","","","","","","","","","","","","","","","","","","","","","","","","","",""
"19564","","","","instructions","5","124202","0.0-3.0-0.0","100","1","2025-07-16 10:25:35","1f75c3e559b7213887762d5229550c2b","90.212.166.118","Mozilla/5.0 (Windows NT 10.0; Win64; x64) AppleWebKit/537.36 (KHTML, like Gecko) Chrome/138.0.0.0 Safari/537.36","WebKit","Chrome","138.0.0.0","Windows","10.0","https://app.prolific.com/","en-GB,en-US;q=0.9,en;q=0.8","59dd90f6e75b450001a68dac","686e379bc37a29ffa5cdc956","68777d4bc6cda202605225d2","1","1","59dd90f6e75b450001a68dac","1","1","","","","","","","","","","","","","[{""page_index"":0,""viewing_time"":19564}]","","","","","","","","","","","","","","","","","","","","","","","","","","","","","",""
"6637","","<p>Before you start with this game please answer the following three questions yourself. </p>
  <p>Through this game, we measure several aspects of your cognitive performance, such as reaction times, multi-tasking capabilities </p>
  <p>and the ability to assess the situation you are in.</p>
  <p></p>
  <p><b>How good do you usually are in such tasks?</b></p>","36","html-slider-response","6","130844","0.0-4.0-0.0","100","1","2025-07-16 10:25:35","1f75c3e559b7213887762d5229550c2b","90.212.166.118","Mozilla/5.0 (Windows NT 10.0; Win64; x64) AppleWebKit/537.36 (KHTML, like Gecko) Chrome/138.0.0.0 Safari/537.36","WebKit","Chrome","138.0.0.0","Windows","10.0","https://app.prolific.com/","en-GB,en-US;q=0.9,en;q=0.8","59dd90f6e75b450001a68dac","686e379bc37a29ffa5cdc956","68777d4bc6cda202605225d2","1","1","59dd90f6e75b450001a68dac","1","1","2025-07-16T10:27:55.439Z","","","","","","","","","","","PreSkillQ","","50","","","","","","","","","","","","","","","","","","","","","","","","","","","","",""
"3506","","<div style=""width:500px;"">
  <p>How well do you think you will perform in this task compared to other participants?</p>
  </div>","28","html-slider-response","7","134351","0.0-4.0-1.0","100","1","2025-07-16 10:25:35","1f75c3e559b7213887762d5229550c2b","90.212.166.118","Mozilla/5.0 (Windows NT 10.0; Win64; x64) AppleWebKit/537.36 (KHTML, like Gecko) Chrome/138.0.0.0 Safari/537.36","WebKit","Chrome","138.0.0.0","Windows","10.0","https://app.prolific.com/","en-GB,en-US;q=0.9,en;q=0.8","59dd90f6e75b450001a68dac","686e379bc37a29ffa5cdc956","68777d4bc6cda202605225d2","1","1","59dd90f6e75b450001a68dac","1","1","2025-07-16T10:27:58.946Z","","","","","","","","","","","PrePerfQ","","50","","","","","","","","","","","","","","","","","","","","","","","","","","","","",""
"3068","","<div style=""width:500px;"">
  <p>What best describes how you currently feel?</p>
  </div>","19","html-slider-response","8","137419","0.0-4.0-2.0","100","1","2025-07-16 10:25:35","1f75c3e559b7213887762d5229550c2b","90.212.166.118","Mozilla/5.0 (Windows NT 10.0; Win64; x64) AppleWebKit/537.36 (KHTML, like Gecko) Chrome/138.0.0.0 Safari/537.36","WebKit","Chrome","138.0.0.0","Windows","10.0","https://app.prolific.com/","en-GB,en-US;q=0.9,en;q=0.8","59dd90f6e75b450001a68dac","686e379bc37a29ffa5cdc956","68777d4bc6cda202605225d2","1","1","59dd90f6e75b450001a68dac","1","1","2025-07-16T10:28:02.014Z","","","","","","","","","","","PreMotivationQ","","50","","","","","","","","","","","","","","","","","","","","","","","","","","","","",""
"","","","","ctl-task-cpt","9","161434","0.0-5.0-0.0","100","1","2025-07-16 10:25:35","1f75c3e559b7213887762d5229550c2b","90.212.166.118","Mozilla/5.0 (Windows NT 10.0; Win64; x64) AppleWebKit/537.36 (KHTML, like Gecko) Chrome/138.0.0.0 Safari/537.36","WebKit","Chrome","138.0.0.0","Windows","10.0","https://app.prolific.com/","en-GB,en-US;q=0.9,en;q=0.8","59dd90f6e75b450001a68dac","686e379bc37a29ffa5cdc956","68777d4bc6cda202605225d2","1","1","59dd90f6e75b450001a68dac","1","1","2025-07-16T10:28:26.029Z","","","","","","","","","","","","","","win-only","1","g1:NE,g2:SW","1","1","0","146222.7","2696","7701.3","21007.7","1","4","8","6","1","1","1","1","0","0.007575757575757576","1165.9","3000","1190","[""up"",""right""]","{""num_key_presses"":4,""num_perfect"":4,""num_errors"":0,""num_randdir"":0,""num_randdir_good_moves"":0,""num_whilered"":0,""num_whileblue"":0,""num_blue"":1,""num_good_moves"":4}","[423.57142857142856,421.47767857142856,0.6,423.57142857142856,421.47767857142856,105.1,423.57142857142856,421.47767857142856,205.4,423.57142857142856,421.47767857142856,310.1,423.57142857142856,421.47767857142856,416.5,424.57142857142856,418.47767857142856,520.1,548.5714285714286,336.47767857142856,624.9,616.5714285714286,222.47767857142856,733,640.5714285714286,175.47767857142856,834.8,732.5714285714286,121.47767857142857,940.5,759.5714285714286,102.47767857142857,1050,760.5714285714286,101.47767857142857,1155.9,760.5714285714286,101.47767857142857,1256.5,746.5714285714286,136.47767857142856,1359.5,617.5714285714286,339.47767857142856,1460.5,617.5714285714286,351.47767857142856,1560.9,617.5714285714286,351.47767857142856,1666.1,617.5714285714286,351.47767857142856,1770.1,617.5714285714286,351.47767857142856,1875.8,617.5714285714286,351.47767857142856,1982.5,617.5714285714286,351.47767857142856,2082.9,617.5714285714286,351.47767857142856,2184.6,617.5714285714286,351.47767857142856,2289.9,617.5714285714286,351.47767857142856,2390.2,617.5714285714286,351.47767857142856,2490.4,617.5714285714286,351.47767857142856,2599.3,617.5714285714286,351.47767857142856,2699.4,617.5714285714286,351.47767857142856,2805.5,617.5714285714286,351.47767857142856,2909.7,617.5714285714286,351.47767857142856,3011.6,617.5714285714286,351.47767857142856,3116.2,617.5714285714286,351.47767857142856,3220,617.5714285714286,351.47767857142856,3324.6,617.5714285714286,351.47767857142856,3425.3,617.5714285714286,351.47767857142856,3532.7,617.5714285714286,351.47767857142856,3632.9,617.5714285714286,351.47767857142856,3733.2,617.5714285714286,351.47767857142856,3835.4,617.5714285714286,351.47767857142856,3939.9,617.5714285714286,351.47767857142856,4040.1,617.5714285714286,351.47767857142856,4150.1,617.5714285714286,351.47767857142856,4255.8,617.5714285714286,351.47767857142856,4360.4,617.5714285714286,351.47767857142856,4465.9,617.5714285714286,351.47767857142856,4570.3,617.5714285714286,351.47767857142856,4675.1,617.5714285714286,351.47767857142856,4775.4,617.5714285714286,351.47767857142856,4882.8,617.5714285714286,351.47767857142856,4983]","[1462.3,1462.3,1000,0,462.3,""smooth"",""up"",""up"",""good_move"",4428.3,2965.7,2535.5,1462.6,430.2,""smooth"",""up"",""up"",""good_move"",10493.1,6064.7,2634.7,7243.9,614.5,""smooth"",""right"",""right"",""good_move"",13196.5,2703,2258.6,10493.5,444.4,""smooth"",""right"",""right"",""good_move""]","",""
"4774","","<div style=""width:500px;"">
  <p>What determined the result of this run?</p>
  </div>","81","html-slider-response","10","166210","0.0-5.0-1.0","100","1","2025-07-16 10:25:35","1f75c3e559b7213887762d5229550c2b","90.212.166.118","Mozilla/5.0 (Windows NT 10.0; Win64; x64) AppleWebKit/537.36 (KHTML, like Gecko) Chrome/138.0.0.0 Safari/537.36","WebKit","Chrome","138.0.0.0","Windows","10.0","https://app.prolific.com/","en-GB,en-US;q=0.9,en;q=0.8","59dd90f6e75b450001a68dac","686e379bc37a29ffa5cdc956","68777d4bc6cda202605225d2","1","1","59dd90f6e75b450001a68dac","1","1","2025-07-16T10:28:30.805Z","","","","","","","","","","","AttribQ","","50","","","","","","","","","","","","","","","","","","","","","","","","","","","","",""
"2999","","<div style=""width:500px;"">
  <p>How much control did you have over the ball?</p>
  </div>","100","html-slider-response","11","169210","0.0-5.0-2.0","100","1","2025-07-16 10:25:35","1f75c3e559b7213887762d5229550c2b","90.212.166.118","Mozilla/5.0 (Windows NT 10.0; Win64; x64) AppleWebKit/537.36 (KHTML, like Gecko) Chrome/138.0.0.0 Safari/537.36","WebKit","Chrome","138.0.0.0","Windows","10.0","https://app.prolific.com/","en-GB,en-US;q=0.9,en;q=0.8","59dd90f6e75b450001a68dac","686e379bc37a29ffa5cdc956","68777d4bc6cda202605225d2","1","1","59dd90f6e75b450001a68dac","1","1","2025-07-16T10:28:33.805Z","","","","","","","","","","","ControlQ","","50","","","","","","","","","","","","","","","","","","","","","","","","","","","","",""
"3561","","<div style=""width:500px;"">
  <p>How would you describe your current emotional state?</p>
  </div>","40","html-slider-response","12","172772","0.0-5.0-3.0","100","1","2025-07-16 10:25:35","1f75c3e559b7213887762d5229550c2b","90.212.166.118","Mozilla/5.0 (Windows NT 10.0; Win64; x64) AppleWebKit/537.36 (KHTML, like Gecko) Chrome/138.0.0.0 Safari/537.36","WebKit","Chrome","138.0.0.0","Windows","10.0","https://app.prolific.com/","en-GB,en-US;q=0.9,en;q=0.8","59dd90f6e75b450001a68dac","686e379bc37a29ffa5cdc956","68777d4bc6cda202605225d2","1","1","59dd90f6e75b450001a68dac","1","1","2025-07-16T10:28:37.367Z","","","","","","","","","","","StressQ","","50","","","","","","","","","","","","","","","","","","","","","","","","","","","","",""
"4729","","<div style=""width:500px;"">
  <p>What best describes how you currently feel?</p>
  </div>","57","html-slider-response","13","177502","0.0-5.0-4.0","100","1","2025-07-16 10:25:35","1f75c3e559b7213887762d5229550c2b","90.212.166.118","Mozilla/5.0 (Windows NT 10.0; Win64; x64) AppleWebKit/537.36 (KHTML, like Gecko) Chrome/138.0.0.0 Safari/537.36","WebKit","Chrome","138.0.0.0","Windows","10.0","https://app.prolific.com/","en-GB,en-US;q=0.9,en;q=0.8","59dd90f6e75b450001a68dac","686e379bc37a29ffa5cdc956","68777d4bc6cda202605225d2","1","1","59dd90f6e75b450001a68dac","1","1","2025-07-16T10:28:42.097Z","","","","","","","","","","","MotivationQ","","50","","","","","","","","","","","","","","","","","","","","","","","","","","","","",""
"","","","","ctl-task-cpt","14","197532","0.0-5.0-0.1","100","1","2025-07-16 10:25:35","1f75c3e559b7213887762d5229550c2b","90.212.166.118","Mozilla/5.0 (Windows NT 10.0; Win64; x64) AppleWebKit/537.36 (KHTML, like Gecko) Chrome/138.0.0.0 Safari/537.36","WebKit","Chrome","138.0.0.0","Windows","10.0","https://app.prolific.com/","en-GB,en-US;q=0.9,en;q=0.8","59dd90f6e75b450001a68dac","686e379bc37a29ffa5cdc956","68777d4bc6cda202605225d2","1","1","59dd90f6e75b450001a68dac","1","1","2025-07-16T10:29:02.127Z","","","","","","","","","","","","","","win-only","2","g1:SE,g2:NW","0.9","2","0","186303.2","1293.6","6296","17015.6","1","4","4","6","1","1","1","2","1","0.015151515151515152","1426.4","3000","1060","[""down"",""right""]","{""num_key_presses"":4,""num_perfect"":4,""num_errors"":0,""num_randdir"":0,""num_randdir_good_moves"":0,""num_whilered"":0,""num_whileblue"":0,""num_blue"":0,""num_good_moves"":4}","[414.57142857142856,420.47767857142856,0.2,414.57142857142856,420.47767857142856,102.4,414.57142857142856,420.47767857142856,206.7,414.57142857142856,420.47767857142856,307.5,414.57142857142856,420.47767857142856,412.2,414.57142857142856,420.47767857142856,517.4,414.57142857142856,420.47767857142856,621.8,414.57142857142856,420.47767857142856,722.4,420.57142857142856,424.47767857142856,827,750.5714285714286,692.4776785714286,932.8,774.5714285714286,725.4776785714286,1036.7,781.5714285714286,735.4776785714286,1137,781.5714285714286,742.4776785714286,1242.5,781.5714285714286,745.4776785714286,1343,781.5714285714286,745.4776785714286,1448,781.5714285714286,745.4776785714286,1554.3,781.5714285714286,745.4776785714286,1657.3,789.5714285714286,741.4776785714286,1762.8,790.5714285714286,741.4776785714286,1867.2,790.5714285714286,741.4776785714286,1972.9,790.5714285714286,741.4776785714286,2077.7,790.5714285714286,741.4776785714286,2177.8,790.5714285714286,741.4776785714286,2278.2,790.5714285714286,741.4776785714286,2382.5,790.5714285714286,741.4776785714286,2482.8,790.5714285714286,741.4776785714286,2586.9,790.5714285714286,741.4776785714286,2692,790.5714285714286,741.4776785714286,2792.4,790.5714285714286,741.4776785714286,2897.5,790.5714285714286,741.4776785714286,2997.7,790.5714285714286,741.4776785714286,3103,790.5714285714286,741.4776785714286,3207.5,790.5714285714286,741.4776785714286,3311.7,790.5714285714286,741.4776785714286,3412.4,790.5714285714286,741.4776785714286,3516.9,790.5714285714286,741.4776785714286,3617,790.5714285714286,741.4776785714286,3718.4,790.5714285714286,741.4776785714286,3822.6,790.5714285714286,741.4776785714286,3927.1,790.5714285714286,741.4776785714286,4027.5,790.5714285714286,741.4776785714286,4127.5,790.5714285714286,741.4776785714286,4232.6,790.5714285714286,741.4776785714286,4332.8,790.5714285714286,741.4776785714286,4436.8,790.5714285714286,741.4776785714286,4537.6,790.5714285714286,741.4776785714286,4642.6,790.5714285714286,741.4776785714286,4747.2,790.5714285714286,741.4776785714286,4847.4,790.5714285714286,741.4776785714286,4947.7]","[1473.4,1473.4,1000,0,473.4,""smooth"",""down"",""down"",""good_move"",4505.4,3031.6,2475.6,1473.8,556,""smooth"",""down"",""down"",""good_move"",7226,2720.5,2304.9,4505.6,415.5,""smooth"",""right"",""right"",""good_move"",10634.1,3407.5,2891.5,7226.6,516,""smooth"",""right"",""right"",""good_move""]","",""
"4014","","<div style=""width:500px;"">
  <p>What determined the result of this run?</p>
  </div>","91","html-slider-response","15","201548","0.0-5.0-1.1","100","1","2025-07-16 10:25:35","1f75c3e559b7213887762d5229550c2b","90.212.166.118","Mozilla/5.0 (Windows NT 10.0; Win64; x64) AppleWebKit/537.36 (KHTML, like Gecko) Chrome/138.0.0.0 Safari/537.36","WebKit","Chrome","138.0.0.0","Windows","10.0","https://app.prolific.com/","en-GB,en-US;q=0.9,en;q=0.8","59dd90f6e75b450001a68dac","686e379bc37a29ffa5cdc956","68777d4bc6cda202605225d2","1","1","59dd90f6e75b450001a68dac","1","1","2025-07-16T10:29:06.143Z","","","","","","","","","","","AttribQ","","50","","","","","","","","","","","","","","","","","","","","","","","","","","","","",""
"1865","","<div style=""width:500px;"">
  <p>How much control did you have over the ball?</p>
  </div>","100","html-slider-response","16","203413","0.0-5.0-2.1","100","1","2025-07-16 10:25:35","1f75c3e559b7213887762d5229550c2b","90.212.166.118","Mozilla/5.0 (Windows NT 10.0; Win64; x64) AppleWebKit/537.36 (KHTML, like Gecko) Chrome/138.0.0.0 Safari/537.36","WebKit","Chrome","138.0.0.0","Windows","10.0","https://app.prolific.com/","en-GB,en-US;q=0.9,en;q=0.8","59dd90f6e75b450001a68dac","686e379bc37a29ffa5cdc956","68777d4bc6cda202605225d2","1","1","59dd90f6e75b450001a68dac","1","1","2025-07-16T10:29:08.009Z","","","","","","","","","","","ControlQ","","50","","","","","","","","","","","","","","","","","","","","","","","","","","","","",""
"2278","","<div style=""width:500px;"">
  <p>How would you describe your current emotional state?</p>
  </div>","45","html-slider-response","17","205692","0.0-5.0-3.1","100","1","2025-07-16 10:25:35","1f75c3e559b7213887762d5229550c2b","90.212.166.118","Mozilla/5.0 (Windows NT 10.0; Win64; x64) AppleWebKit/537.36 (KHTML, like Gecko) Chrome/138.0.0.0 Safari/537.36","WebKit","Chrome","138.0.0.0","Windows","10.0","https://app.prolific.com/","en-GB,en-US;q=0.9,en;q=0.8","59dd90f6e75b450001a68dac","686e379bc37a29ffa5cdc956","68777d4bc6cda202605225d2","1","1","59dd90f6e75b450001a68dac","1","1","2025-07-16T10:29:10.287Z","","","","","","","","","","","StressQ","","50","","","","","","","","","","","","","","","","","","","","","","","","","","","","",""
"3505","","<div style=""width:500px;"">
  <p>What best describes how you currently feel?</p>
  </div>","48","html-slider-response","18","209198","0.0-5.0-4.1","100","1","2025-07-16 10:25:35","1f75c3e559b7213887762d5229550c2b","90.212.166.118","Mozilla/5.0 (Windows NT 10.0; Win64; x64) AppleWebKit/537.36 (KHTML, like Gecko) Chrome/138.0.0.0 Safari/537.36","WebKit","Chrome","138.0.0.0","Windows","10.0","https://app.prolific.com/","en-GB,en-US;q=0.9,en;q=0.8","59dd90f6e75b450001a68dac","686e379bc37a29ffa5cdc956","68777d4bc6cda202605225d2","1","1","59dd90f6e75b450001a68dac","1","1","2025-07-16T10:29:13.793Z","","","","","","","","","","","MotivationQ","","50","","","","","","","","","","","","","","","","","","","","","","","","","","","","",""
"","","","","ctl-task-cpt","19","238841","0.0-5.0-0.2","100","1","2025-07-16 10:25:35","1f75c3e559b7213887762d5229550c2b","90.212.166.118","Mozilla/5.0 (Windows NT 10.0; Win64; x64) AppleWebKit/537.36 (KHTML, like Gecko) Chrome/138.0.0.0 Safari/537.36","WebKit","Chrome","138.0.0.0","Windows","10.0","https://app.prolific.com/","en-GB,en-US;q=0.9,en;q=0.8","59dd90f6e75b450001a68dac","686e379bc37a29ffa5cdc956","68777d4bc6cda202605225d2","1","1","59dd90f6e75b450001a68dac","1","1","2025-07-16T10:29:43.436Z","","","","","","","","","","","","","","win-only","1","g1:NE,g2:SW","0.8","3","0","218000.1","2188.9","7191","26625.5","1","4","8","6","2","-8","-8","0","2","0","1412.6","3000","-3015","[""down"",""left""]","{""num_key_presses"":7,""num_perfect"":5,""num_errors"":0,""num_randdir"":2,""num_randdir_good_moves"":0,""num_whilered"":0,""num_whileblue"":0,""num_blue"":0,""num_good_moves"":5}","[416.57142857142856,416.47767857142856,1.8,416.57142857142856,416.47767857142856,101.8,416.57142857142856,416.47767857142856,206.3,416.57142857142856,416.47767857142856,308.6,416.57142857142856,416.47767857142856,412.3,416.57142857142856,416.47767857142856,516.5,416.57142857142856,416.47767857142856,617.7,416.57142857142856,416.47767857142856,722,397.57142857142856,448.47767857142856,826.3,193.57142857142856,714.4776785714286,927,137.57142857142856,788.4776785714286,1027.6,130.57142857142856,789.4776785714286,1132.5,109.57142857142857,792.4776785714286,1236.9,91.57142857142857,780.4776785714286,1337,91.57142857142857,780.4776785714286,1442,91.57142857142857,780.4776785714286,1543.4,91.57142857142857,780.4776785714286,1646.4,86.57142857142857,780.4776785714286,1749.1,86.57142857142857,780.4776785714286,1851.6,86.57142857142857,780.4776785714286,1951.8,86.57142857142857,780.4776785714286,2056.8,86.57142857142857,780.4776785714286,2156.9,86.57142857142857,780.4776785714286,2257,86.57142857142857,780.4776785714286,2357,86.57142857142857,780.4776785714286,2457,86.57142857142857,780.4776785714286,2562.1,86.57142857142857,780.4776785714286,2664.8,86.57142857142857,780.4776785714286,2766.7,86.57142857142857,780.4776785714286,2871.6,86.57142857142857,780.4776785714286,2972.1,86.57142857142857,780.4776785714286,3077,86.57142857142857,780.4776785714286,3182.3,86.57142857142857,780.4776785714286,3286.9,86.57142857142857,780.4776785714286,3387,86.57142857142857,780.4776785714286,3487.1,86.57142857142857,780.4776785714286,3592.2,86.57142857142857,780.4776785714286,3696.9,86.57142857142857,780.4776785714286,3802.2,86.57142857142857,780.4776785714286,3906.9,86.57142857142857,780.4776785714286,4011.9,86.57142857142857,780.4776785714286,4111.9,86.57142857142857,780.4776785714286,4212.2,86.57142857142857,780.4776785714286,4312.3,86.57142857142857,780.4776785714286,4416.7,86.57142857142857,780.4776785714286,4522.2,86.57142857142857,780.4776785714286,4622.2,86.57142857142857,780.4776785714286,4726.7,86.57142857142857,780.4776785714286,4827.7,86.57142857142857,780.4776785714286,4928.2]","[1497.8,1497.8,1000,0,497.8,""smooth"",""down"",""down"",""good_move"",4097,2598.8,2152.4,1498.2,446.4,""smooth"",""down"",""down"",""good_move"",7289.7,3192.5,2737.9,4097.2,454.6,""smooth"",""down"",""down"",""good_move"",10001.9,2712,2282.7,7289.9,429.3,""oops"",""left"",""right"",""bad_move"",11729.7,1727.3,1276.3,10002.4,451,""smooth"",""left"",""left"",""good_move"",13865.5,2135.6,1773.6,11729.9,362,""oops"",""left"",""right"",""bad_move"",16311.6,2445.8,2081.6,13865.8,364.2,""smooth"",""left"",""left"",""good_move""]","",""
"6065","","<div style=""width:500px;"">
  <p>What determined the result of this run?</p>
  </div>","40","html-slider-response","20","244906","0.0-5.0-1.2","100","1","2025-07-16 10:25:35","1f75c3e559b7213887762d5229550c2b","90.212.166.118","Mozilla/5.0 (Windows NT 10.0; Win64; x64) AppleWebKit/537.36 (KHTML, like Gecko) Chrome/138.0.0.0 Safari/537.36","WebKit","Chrome","138.0.0.0","Windows","10.0","https://app.prolific.com/","en-GB,en-US;q=0.9,en;q=0.8","59dd90f6e75b450001a68dac","686e379bc37a29ffa5cdc956","68777d4bc6cda202605225d2","1","1","59dd90f6e75b450001a68dac","1","1","2025-07-16T10:29:49.501Z","","","","","","","","","","","AttribQ","","50","","","","","","","","","","","","","","","","","","","","","","","","","","","","",""
"2945","","<div style=""width:500px;"">
  <p>How much control did you have over the ball?</p>
  </div>","33","html-slider-response","21","247852","0.0-5.0-2.2","100","1","2025-07-16 10:25:35","1f75c3e559b7213887762d5229550c2b","90.212.166.118","Mozilla/5.0 (Windows NT 10.0; Win64; x64) AppleWebKit/537.36 (KHTML, like Gecko) Chrome/138.0.0.0 Safari/537.36","WebKit","Chrome","138.0.0.0","Windows","10.0","https://app.prolific.com/","en-GB,en-US;q=0.9,en;q=0.8","59dd90f6e75b450001a68dac","686e379bc37a29ffa5cdc956","68777d4bc6cda202605225d2","1","1","59dd90f6e75b450001a68dac","1","1","2025-07-16T10:29:52.447Z","","","","","","","","","","","ControlQ","","50","","","","","","","","","","","","","","","","","","","","","","","","","","","","",""
"2965","","<div style=""width:500px;"">
  <p>How would you describe your current emotional state?</p>
  </div>","58","html-slider-response","22","250818","0.0-5.0-3.2","100","1","2025-07-16 10:25:35","1f75c3e559b7213887762d5229550c2b","90.212.166.118","Mozilla/5.0 (Windows NT 10.0; Win64; x64) AppleWebKit/537.36 (KHTML, like Gecko) Chrome/138.0.0.0 Safari/537.36","WebKit","Chrome","138.0.0.0","Windows","10.0","https://app.prolific.com/","en-GB,en-US;q=0.9,en;q=0.8","59dd90f6e75b450001a68dac","686e379bc37a29ffa5cdc956","68777d4bc6cda202605225d2","1","1","59dd90f6e75b450001a68dac","1","1","2025-07-16T10:29:55.413Z","","","","","","","","","","","StressQ","","50","","","","","","","","","","","","","","","","","","","","","","","","","","","","",""
"2219","","<div style=""width:500px;"">
  <p>What best describes how you currently feel?</p>
  </div>","42","html-slider-response","23","253038","0.0-5.0-4.2","100","1","2025-07-16 10:25:35","1f75c3e559b7213887762d5229550c2b","90.212.166.118","Mozilla/5.0 (Windows NT 10.0; Win64; x64) AppleWebKit/537.36 (KHTML, like Gecko) Chrome/138.0.0.0 Safari/537.36","WebKit","Chrome","138.0.0.0","Windows","10.0","https://app.prolific.com/","en-GB,en-US;q=0.9,en;q=0.8","59dd90f6e75b450001a68dac","686e379bc37a29ffa5cdc956","68777d4bc6cda202605225d2","1","1","59dd90f6e75b450001a68dac","1","1","2025-07-16T10:29:57.633Z","","","","","","","","","","","MotivationQ","","50","","","","","","","","","","","","","","","","","","","","","","","","","","","","",""
"","","","","ctl-task-cpt","24","285352","0.0-5.0-0.3","100","1","2025-07-16 10:25:35","1f75c3e559b7213887762d5229550c2b","90.212.166.118","Mozilla/5.0 (Windows NT 10.0; Win64; x64) AppleWebKit/537.36 (KHTML, like Gecko) Chrome/138.0.0.0 Safari/537.36","WebKit","Chrome","138.0.0.0","Windows","10.0","https://app.prolific.com/","en-GB,en-US;q=0.9,en;q=0.8","59dd90f6e75b450001a68dac","686e379bc37a29ffa5cdc956","68777d4bc6cda202605225d2","1","1","59dd90f6e75b450001a68dac","1","1","2025-07-16T10:30:29.947Z","","","","","","","","","","","","","","win-only","3","g1:SW,g2:NE","0.7","4","0","261840.2","730.9","5731.3","29306.3","1","4","4","6","1","1","1","1","0","0.007575757575757576","1739.2","3000","685","[""down"",""left""]","{""num_key_presses"":6,""num_perfect"":4,""num_errors"":0,""num_randdir"":2,""num_randdir_good_moves"":1,""num_whilered"":0,""num_whileblue"":0,""num_blue"":2,""num_good_moves"":5}","[417.57142857142856,417.47767857142856,0.2,417.57142857142856,417.47767857142856,105.6,417.57142857142856,417.47767857142856,206.7,417.57142857142856,416.47767857142856,310.8,416.57142857142856,419.47767857142856,415,416.57142857142856,419.47767857142856,519.9,416.57142857142856,419.47767857142856,619.9,416.57142857142856,419.47767857142856,720.4,416.57142857142856,419.47767857142856,825,383.57142857142856,466.47767857142856,925.3,230.57142857142856,672.4776785714286,1025.3,148.57142857142856,738.4776785714286,1125.4,128.57142857142856,757.4776785714286,1231.6,115.57142857142857,768.4776785714286,1332.5,97.57142857142857,772.4776785714286,1434.8,95.57142857142857,772.4776785714286,1535,95.57142857142857,771.4776785714286,1636,95.57142857142857,771.4776785714286,1746.1,95.57142857142857,771.4776785714286,1849.1,95.57142857142857,771.4776785714286,1949.7,-137.42857142857144,694.4776785714286,2056,-293.42857142857144,560.4776785714286,2160.7,-296.42857142857144,535.4776785714286,2264.7,-296.42857142857144,535.4776785714286,2365.1,-296.42857142857144,535.4776785714286,2466.5,-296.42857142857144,535.4776785714286,2570.9,-296.42857142857144,535.4776785714286,2675,-296.42857142857144,535.4776785714286,2782,-296.42857142857144,535.4776785714286,2885.4,-296.42857142857144,535.4776785714286,2985.5,-296.42857142857144,535.4776785714286,3085.8,-296.42857142857144,535.4776785714286,3189.3,-296.42857142857144,535.4776785714286,3290,-296.42857142857144,535.4776785714286,3397.9,-296.42857142857144,535.4776785714286,3498.1,-296.42857142857144,535.4776785714286,3599.9,-296.42857142857144,535.4776785714286,3700.2,-296.42857142857144,535.4776785714286,3805,-296.42857142857144,535.4776785714286,3909.8,-296.42857142857144,535.4776785714286,4014.8,-296.42857142857144,535.4776785714286,4119.8,-296.42857142857144,535.4776785714286,4220.5,-296.42857142857144,535.4776785714286,4325,-296.42857142857144,535.4776785714286,4425.8,-296.42857142857144,535.4776785714286,4532.2,-296.42857142857144,535.4776785714286,4635.6,-296.42857142857144,535.4776785714286,4735.6,-296.42857142857144,535.4776785714286,4840.7,-296.42857142857144,535.4776785714286,4947.9]","[1436.8,1436.8,1000,0,436.8,""smooth"",""down"",""down"",""good_move"",4301,2863.9,2419.4,1437.1,444.5,""oops"",""down"",""left"",""good_move"",6896.7,2595.3,2130.6,4301.4,464.7,""oops"",""down"",""right"",""bad_move"",17929.7,11032.7,2601.2,14869.7,458.8,""smooth"",""down"",""down"",""good_move"",21230.1,3300.2,2869.1,17929.9,431.1,""smooth"",""left"",""left"",""good_move"",23481.1,2250.8,1850.8,21230.3,400,""smooth"",""left"",""left"",""good_move""]","",""
"3314","","<div style=""width:500px;"">
  <p>What determined the result of this run?</p>
  </div>","33","html-slider-response","25","288667","0.0-5.0-1.3","100","1","2025-07-16 10:25:35","1f75c3e559b7213887762d5229550c2b","90.212.166.118","Mozilla/5.0 (Windows NT 10.0; Win64; x64) AppleWebKit/537.36 (KHTML, like Gecko) Chrome/138.0.0.0 Safari/537.36","WebKit","Chrome","138.0.0.0","Windows","10.0","https://app.prolific.com/","en-GB,en-US;q=0.9,en;q=0.8","59dd90f6e75b450001a68dac","686e379bc37a29ffa5cdc956","68777d4bc6cda202605225d2","1","1","59dd90f6e75b450001a68dac","1","1","2025-07-16T10:30:33.262Z","","","","","","","","","","","AttribQ","","50","","","","","","","","","","","","","","","","","","","","","","","","","","","","",""
"3066","","<div style=""width:500px;"">
  <p>How much control did you have over the ball?</p>
  </div>","46","html-slider-response","26","291734","0.0-5.0-2.3","100","1","2025-07-16 10:25:35","1f75c3e559b7213887762d5229550c2b","90.212.166.118","Mozilla/5.0 (Windows NT 10.0; Win64; x64) AppleWebKit/537.36 (KHTML, like Gecko) Chrome/138.0.0.0 Safari/537.36","WebKit","Chrome","138.0.0.0","Windows","10.0","https://app.prolific.com/","en-GB,en-US;q=0.9,en;q=0.8","59dd90f6e75b450001a68dac","686e379bc37a29ffa5cdc956","68777d4bc6cda202605225d2","1","1","59dd90f6e75b450001a68dac","1","1","2025-07-16T10:30:36.329Z","","","","","","","","","","","ControlQ","","50","","","","","","","","","","","","","","","","","","","","","","","","","","","","",""
"3516","","<div style=""width:500px;"">
  <p>How would you describe your current emotional state?</p>
  </div>","57","html-slider-response","27","295250","0.0-5.0-3.3","100","1","2025-07-16 10:25:35","1f75c3e559b7213887762d5229550c2b","90.212.166.118","Mozilla/5.0 (Windows NT 10.0; Win64; x64) AppleWebKit/537.36 (KHTML, like Gecko) Chrome/138.0.0.0 Safari/537.36","WebKit","Chrome","138.0.0.0","Windows","10.0","https://app.prolific.com/","en-GB,en-US;q=0.9,en;q=0.8","59dd90f6e75b450001a68dac","686e379bc37a29ffa5cdc956","68777d4bc6cda202605225d2","1","1","59dd90f6e75b450001a68dac","1","1","2025-07-16T10:30:39.845Z","","","","","","","","","","","StressQ","","50","","","","","","","","","","","","","","","","","","","","","","","","","","","","",""
"1915","","<div style=""width:500px;"">
  <p>What best describes how you currently feel?</p>
  </div>","41","html-slider-response","28","297166","0.0-5.0-4.3","100","1","2025-07-16 10:25:35","1f75c3e559b7213887762d5229550c2b","90.212.166.118","Mozilla/5.0 (Windows NT 10.0; Win64; x64) AppleWebKit/537.36 (KHTML, like Gecko) Chrome/138.0.0.0 Safari/537.36","WebKit","Chrome","138.0.0.0","Windows","10.0","https://app.prolific.com/","en-GB,en-US;q=0.9,en;q=0.8","59dd90f6e75b450001a68dac","686e379bc37a29ffa5cdc956","68777d4bc6cda202605225d2","1","1","59dd90f6e75b450001a68dac","1","1","2025-07-16T10:30:41.761Z","","","","","","","","","","","MotivationQ","","50","","","","","","","","","","","","","","","","","","","","","","","","","","","","",""
"","","","","ctl-task-cpt","29","335435","0.0-5.0-0.4","100","1","2025-07-16 10:25:35","1f75c3e559b7213887762d5229550c2b","90.212.166.118","Mozilla/5.0 (Windows NT 10.0; Win64; x64) AppleWebKit/537.36 (KHTML, like Gecko) Chrome/138.0.0.0 Safari/537.36","WebKit","Chrome","138.0.0.0","Windows","10.0","https://app.prolific.com/","en-GB,en-US;q=0.9,en;q=0.8","59dd90f6e75b450001a68dac","686e379bc37a29ffa5cdc956","68777d4bc6cda202605225d2","1","1","59dd90f6e75b450001a68dac","1","1","2025-07-16T10:31:20.030Z","","","","","","","","","","","","","","win-only","3","g1:SW,g2:NE","0.6","5","0","305968.6","817.1","5822.1","35252.4","1","4","8","6","2","-8","-8","0","1","0","1669.3","3000","-2975","[""up"",""right""]","{""num_key_presses"":6,""num_perfect"":3,""num_errors"":0,""num_randdir"":3,""num_randdir_good_moves"":0,""num_whilered"":0,""num_whileblue"":0,""num_blue"":3,""num_good_moves"":3}","[414.57142857142856,414.47767857142856,0.2,414.57142857142856,414.47767857142856,100.2,414.57142857142856,414.47767857142856,204,414.57142857142856,414.47767857142856,304.1,414.57142857142856,414.47767857142856,408.7,414.57142857142856,414.47767857142856,513,414.57142857142856,414.47767857142856,614,479.57142857142856,367.47767857142856,714.6,876.5714285714286,116.47767857142857,819.9,892.5714285714286,90.47767857142857,924.2,892.5714285714286,86.47767857142857,1024.7,892.5714285714286,85.47767857142857,1128.9,888.5714285714286,85.47767857142857,1235.4,855.5714285714286,85.47767857142857,1338.8,820.5714285714286,81.47767857142857,1439.2,806.5714285714286,78.47767857142857,1543.2,788.5714285714286,78.47767857142857,1644.3,787.5714285714286,78.47767857142857,1749.2,787.5714285714286,86.47767857142857,1851.2,777.5714285714286,115.47767857142857,1953.9,776.5714285714286,127.47767857142857,2054,782.5714285714286,160.47767857142856,2159.2,783.5714285714286,181.47767857142856,2264.3,787.5714285714286,198.47767857142856,2365,787.5714285714286,209.47767857142856,2468.5,787.5714285714286,209.47767857142856,2569.5,787.5714285714286,209.47767857142856,2673.9,787.5714285714286,209.47767857142856,2774.2,787.5714285714286,209.47767857142856,2874.5,787.5714285714286,209.47767857142856,2978.6,787.5714285714286,209.47767857142856,3078.6,787.5714285714286,209.47767857142856,3178.8,787.5714285714286,209.47767857142856,3278.9,787.5714285714286,209.47767857142856,3378.9,787.5714285714286,209.47767857142856,3478.9,787.5714285714286,209.47767857142856,3584.4,787.5714285714286,209.47767857142856,3685.3,787.5714285714286,209.47767857142856,3790.9,787.5714285714286,209.47767857142856,3893.1,787.5714285714286,209.47767857142856,3999,787.5714285714286,209.47767857142856,4100.8,787.5714285714286,209.47767857142856,4204,787.5714285714286,209.47767857142856,4304.5,787.5714285714286,209.47767857142856,4404.9,787.5714285714286,209.47767857142856,4508,787.5714285714286,209.47767857142856,4608.5,787.5714285714286,209.47767857142856,4708.9,787.5714285714286,209.47767857142856,4814,787.5714285714286,209.47767857142856,4914.8]","[1418.5,1418.5,1000,0,418.5,""smooth"",""up"",""up"",""good_move"",4586.2,3167.2,2790,1419,377.2,""oops"",""up"",""down"",""bad_move"",15545.6,10959.2,3014.4,11819.3,711.9,""smooth"",""up"",""up"",""good_move"",18433.8,2888.2,2450.2,15545.7,438,""oops"",""up"",""down"",""bad_move"",24129.7,5695.6,2306.2,21388.4,435.1,""smooth"",""up"",""up"",""good_move"",26929.6,2799.8,2265.4,24129.8,534.4,""oops"",""up"",""down"",""bad_move""]","",""
"3235","","<div style=""width:500px;"">
  <p>What determined the result of this run?</p>
  </div>","44","html-slider-response","30","338672","0.0-5.0-1.4","100","1","2025-07-16 10:25:35","1f75c3e559b7213887762d5229550c2b","90.212.166.118","Mozilla/5.0 (Windows NT 10.0; Win64; x64) AppleWebKit/537.36 (KHTML, like Gecko) Chrome/138.0.0.0 Safari/537.36","WebKit","Chrome","138.0.0.0","Windows","10.0","https://app.prolific.com/","en-GB,en-US;q=0.9,en;q=0.8","59dd90f6e75b450001a68dac","686e379bc37a29ffa5cdc956","68777d4bc6cda202605225d2","1","1","59dd90f6e75b450001a68dac","1","1","2025-07-16T10:31:23.267Z","","","","","","","","","","","AttribQ","","50","","","","","","","","","","","","","","","","","","","","","","","","","","","","",""
"2471","","<div style=""width:500px;"">
  <p>How much control did you have over the ball?</p>
  </div>","0","html-slider-response","31","341143","0.0-5.0-2.4","100","1","2025-07-16 10:25:35","1f75c3e559b7213887762d5229550c2b","90.212.166.118","Mozilla/5.0 (Windows NT 10.0; Win64; x64) AppleWebKit/537.36 (KHTML, like Gecko) Chrome/138.0.0.0 Safari/537.36","WebKit","Chrome","138.0.0.0","Windows","10.0","https://app.prolific.com/","en-GB,en-US;q=0.9,en;q=0.8","59dd90f6e75b450001a68dac","686e379bc37a29ffa5cdc956","68777d4bc6cda202605225d2","1","1","59dd90f6e75b450001a68dac","1","1","2025-07-16T10:31:25.738Z","","","","","","","","","","","ControlQ","","50","","","","","","","","","","","","","","","","","","","","","","","","","","","","",""
"2153","","<div style=""width:500px;"">
  <p>How would you describe your current emotional state?</p>
  </div>","73","html-slider-response","32","343297","0.0-5.0-3.4","100","1","2025-07-16 10:25:35","1f75c3e559b7213887762d5229550c2b","90.212.166.118","Mozilla/5.0 (Windows NT 10.0; Win64; x64) AppleWebKit/537.36 (KHTML, like Gecko) Chrome/138.0.0.0 Safari/537.36","WebKit","Chrome","138.0.0.0","Windows","10.0","https://app.prolific.com/","en-GB,en-US;q=0.9,en;q=0.8","59dd90f6e75b450001a68dac","686e379bc37a29ffa5cdc956","68777d4bc6cda202605225d2","1","1","59dd90f6e75b450001a68dac","1","1","2025-07-16T10:31:27.893Z","","","","","","","","","","","StressQ","","50","","","","","","","","","","","","","","","","","","","","","","","","","","","","",""
"3186","","<div style=""width:500px;"">
  <p>What best describes how you currently feel?</p>
  </div>","31","html-slider-response","33","346484","0.0-5.0-4.4","100","1","2025-07-16 10:25:35","1f75c3e559b7213887762d5229550c2b","90.212.166.118","Mozilla/5.0 (Windows NT 10.0; Win64; x64) AppleWebKit/537.36 (KHTML, like Gecko) Chrome/138.0.0.0 Safari/537.36","WebKit","Chrome","138.0.0.0","Windows","10.0","https://app.prolific.com/","en-GB,en-US;q=0.9,en;q=0.8","59dd90f6e75b450001a68dac","686e379bc37a29ffa5cdc956","68777d4bc6cda202605225d2","1","1","59dd90f6e75b450001a68dac","1","1","2025-07-16T10:31:31.079Z","","","","","","","","","","","MotivationQ","","50","","","","","","","","","","","","","","","","","","","","","","","","","","","","",""
"","","","","ctl-task-cpt","34","382724","0.0-5.0-0.5","100","1","2025-07-16 10:25:35","1f75c3e559b7213887762d5229550c2b","90.212.166.118","Mozilla/5.0 (Windows NT 10.0; Win64; x64) AppleWebKit/537.36 (KHTML, like Gecko) Chrome/138.0.0.0 Safari/537.36","WebKit","Chrome","138.0.0.0","Windows","10.0","https://app.prolific.com/","en-GB,en-US;q=0.9,en;q=0.8","59dd90f6e75b450001a68dac","686e379bc37a29ffa5cdc956","68777d4bc6cda202605225d2","1","1","59dd90f6e75b450001a68dac","1","1","2025-07-16T10:32:07.319Z","","","","","","","","","","","","","","win-only","1","g1:NE,g2:SW","0.5","6","0","355286.4","780","5783.3","33220.6","1","4","4","6","2","-4","-4","0","0","0","1438.1","3000","-3015","[""down"",""left""]","{""num_key_presses"":6,""num_perfect"":4,""num_errors"":0,""num_randdir"":2,""num_randdir_good_moves"":0,""num_whilered"":0,""num_whileblue"":0,""num_blue"":2,""num_good_moves"":4}","[420.57142857142856,419.47767857142856,0.1,420.57142857142856,419.47767857142856,103.9,420.57142857142856,419.47767857142856,206,420.57142857142856,419.47767857142856,311.2,420.57142857142856,419.47767857142856,417.2,420.57142857142856,419.47767857142856,520.5,413.57142857142856,422.47767857142856,626.3,294.57142857142856,565.4776785714286,731.1,204.57142857142856,648.4776785714286,834.3,175.57142857142856,671.4776785714286,935.8,124.57142857142857,718.4776785714286,1036.5,85.57142857142857,745.4776785714286,1140.8,81.57142857142857,751.4776785714286,1241.4,81.57142857142857,751.4776785714286,1345.3,81.57142857142857,751.4776785714286,1451.1,81.57142857142857,751.4776785714286,1553.6,81.57142857142857,751.4776785714286,1655.5,81.57142857142857,751.4776785714286,1756.6,56.57142857142857,697.4776785714286,1860.9,-88.42857142857143,563.4776785714286,1968.3,-88.42857142857143,560.4776785714286,2073.2,-87.42857142857143,559.4776785714286,2175.4,-87.42857142857143,562.4776785714286,2275.6,-87.42857142857143,562.4776785714286,2380.4,-87.42857142857143,562.4776785714286,2482.2,-103.42857142857143,558.4776785714286,2585.4,-121.42857142857143,567.4776785714286,2686.2,-121.42857142857143,567.4776785714286,2787.2,-121.42857142857143,567.4776785714286,2890.9,-121.42857142857143,567.4776785714286,2995.4,-121.42857142857143,567.4776785714286,3095.6,-121.42857142857143,567.4776785714286,3196.5,-121.42857142857143,567.4776785714286,3301,-121.42857142857143,567.4776785714286,3405.3,-121.42857142857143,567.4776785714286,3506.1,-121.42857142857143,567.4776785714286,3606.1,-121.42857142857143,567.4776785714286,3710.2,-121.42857142857143,567.4776785714286,3810.6,-121.42857142857143,567.4776785714286,3910.7,-121.42857142857143,567.4776785714286,4011,-121.42857142857143,567.4776785714286,4111.6,-121.42857142857143,567.4776785714286,4215.7,-121.42857142857143,567.4776785714286,4320.6,-121.42857142857143,567.4776785714286,4425.4,-121.42857142857143,567.4776785714286,4525.7,-121.42857142857143,567.4776785714286,4630.5,-121.42857142857143,567.4776785714286,4731.9,-121.42857142857143,567.4776785714286,4835.5,-121.42857142857143,567.4776785714286,4936.1]","[1427.2,1427.2,1000,0,427.2,""smooth"",""down"",""down"",""good_move"",7611.1,6183.6,2220.7,4917.2,473.2,""smooth"",""down"",""down"",""good_move"",10747.5,3136.1,2676.4,7611.4,459.7,""oops"",""down"",""up"",""bad_move"",17658.8,6910.9,2701.6,14507.4,449.8,""oops"",""down"",""up"",""bad_move"",21114.4,3455.4,3049.3,17659,406.1,""smooth"",""down"",""down"",""good_move"",24331,3216.3,2798.3,21114.7,418,""smooth"",""down"",""down"",""good_move""]","",""
"4397","","<div style=""width:500px;"">
  <p>What determined the result of this run?</p>
  </div>","38","html-slider-response","35","387122","0.0-5.0-1.5","100","1","2025-07-16 10:25:35","1f75c3e559b7213887762d5229550c2b","90.212.166.118","Mozilla/5.0 (Windows NT 10.0; Win64; x64) AppleWebKit/537.36 (KHTML, like Gecko) Chrome/138.0.0.0 Safari/537.36","WebKit","Chrome","138.0.0.0","Windows","10.0","https://app.prolific.com/","en-GB,en-US;q=0.9,en;q=0.8","59dd90f6e75b450001a68dac","686e379bc37a29ffa5cdc956","68777d4bc6cda202605225d2","1","1","59dd90f6e75b450001a68dac","1","1","2025-07-16T10:32:11.717Z","","","","","","","","","","","AttribQ","","50","","","","","","","","","","","","","","","","","","","","","","","","","","","","",""
"3035","","<div style=""width:500px;"">
  <p>How much control did you have over the ball?</p>
  </div>","2","html-slider-response","36","390158","0.0-5.0-2.5","100","1","2025-07-16 10:25:35","1f75c3e559b7213887762d5229550c2b","90.212.166.118","Mozilla/5.0 (Windows NT 10.0; Win64; x64) AppleWebKit/537.36 (KHTML, like Gecko) Chrome/138.0.0.0 Safari/537.36","WebKit","Chrome","138.0.0.0","Windows","10.0","https://app.prolific.com/","en-GB,en-US;q=0.9,en;q=0.8","59dd90f6e75b450001a68dac","686e379bc37a29ffa5cdc956","68777d4bc6cda202605225d2","1","1","59dd90f6e75b450001a68dac","1","1","2025-07-16T10:32:14.753Z","","","","","","","","","","","ControlQ","","50","","","","","","","","","","","","","","","","","","","","","","","","","","","","",""
"1938","","<div style=""width:500px;"">
  <p>How would you describe your current emotional state?</p>
  </div>","88","html-slider-response","37","392096","0.0-5.0-3.5","100","1","2025-07-16 10:25:35","1f75c3e559b7213887762d5229550c2b","90.212.166.118","Mozilla/5.0 (Windows NT 10.0; Win64; x64) AppleWebKit/537.36 (KHTML, like Gecko) Chrome/138.0.0.0 Safari/537.36","WebKit","Chrome","138.0.0.0","Windows","10.0","https://app.prolific.com/","en-GB,en-US;q=0.9,en;q=0.8","59dd90f6e75b450001a68dac","686e379bc37a29ffa5cdc956","68777d4bc6cda202605225d2","1","1","59dd90f6e75b450001a68dac","1","1","2025-07-16T10:32:16.691Z","","","","","","","","","","","StressQ","","50","","","","","","","","","","","","","","","","","","","","","","","","","","","","",""
"2137","","<div style=""width:500px;"">
  <p>What best describes how you currently feel?</p>
  </div>","29","html-slider-response","38","394234","0.0-5.0-4.5","100","1","2025-07-16 10:25:35","1f75c3e559b7213887762d5229550c2b","90.212.166.118","Mozilla/5.0 (Windows NT 10.0; Win64; x64) AppleWebKit/537.36 (KHTML, like Gecko) Chrome/138.0.0.0 Safari/537.36","WebKit","Chrome","138.0.0.0","Windows","10.0","https://app.prolific.com/","en-GB,en-US;q=0.9,en;q=0.8","59dd90f6e75b450001a68dac","686e379bc37a29ffa5cdc956","68777d4bc6cda202605225d2","1","1","59dd90f6e75b450001a68dac","1","1","2025-07-16T10:32:18.829Z","","","","","","","","","","","MotivationQ","","50","","","","","","","","","","","","","","","","","","","","","","","","","","","","",""
"","","","","ctl-task-cpt","39","427499","0.0-5.0-0.6","100","1","2025-07-16 10:25:35","1f75c3e559b7213887762d5229550c2b","90.212.166.118","Mozilla/5.0 (Windows NT 10.0; Win64; x64) AppleWebKit/537.36 (KHTML, like Gecko) Chrome/138.0.0.0 Safari/537.36","WebKit","Chrome","138.0.0.0","Windows","10.0","https://app.prolific.com/","en-GB,en-US;q=0.9,en;q=0.8","59dd90f6e75b450001a68dac","686e379bc37a29ffa5cdc956","68777d4bc6cda202605225d2","1","1","59dd90f6e75b450001a68dac","1","1","2025-07-16T10:32:52.094Z","","","","","","","","","","","","","","win-only","3","g1:SW,g2:NE","0.4","7","0","403035.8","1026.7","6027.1","30247.9","1","4","8","6","2","-8","-8","0","0","0","1504.9","3000","-3015","[""up"",""right""]","{""num_key_presses"":7,""num_perfect"":4,""num_errors"":0,""num_randdir"":3,""num_randdir_good_moves"":1,""num_whilered"":0,""num_whileblue"":0,""num_blue"":1,""num_good_moves"":5}","[416.57142857142856,421.47767857142856,0.2,416.57142857142856,421.47767857142856,106,395.57142857142856,434.47767857142856,206.1,249.57142857142856,442.47767857142856,309.2,249.57142857142856,442.47767857142856,414.2,249.57142857142856,442.47767857142856,518.8,261.57142857142856,434.47767857142856,620,319.57142857142856,404.47767857142856,720.5,462.57142857142856,332.47767857142856,824.9,654.5714285714286,204.47767857142856,925.1,807.5714285714286,103.47767857142857,1029.4,809.5714285714286,94.47767857142857,1129.9,814.5714285714286,81.47767857142857,1234.5,800.5714285714286,77.47767857142857,1335.2,767.5714285714286,77.47767857142857,1440,767.5714285714286,77.47767857142857,1543.6,771.5714285714286,82.47767857142857,1643.9,945.5714285714286,210.47767857142856,1744.5,972.5714285714286,240.47767857142856,1850.4,965.5714285714286,250.47767857142856,1954.1,965.5714285714286,250.47767857142856,2055.3,965.5714285714286,250.47767857142856,2155.5,965.5714285714286,250.47767857142856,2259.2,965.5714285714286,250.47767857142856,2359.6,965.5714285714286,250.47767857142856,2465.5,965.5714285714286,250.47767857142856,2565.7,965.5714285714286,250.47767857142856,2670.6,965.5714285714286,250.47767857142856,2775.1,965.5714285714286,250.47767857142856,2878.7,965.5714285714286,250.47767857142856,2979.2,965.5714285714286,250.47767857142856,3085.1,965.5714285714286,250.47767857142856,3189.1,965.5714285714286,250.47767857142856,3289.1,965.5714285714286,250.47767857142856,3393.6,965.5714285714286,250.47767857142856,3493.9,965.5714285714286,250.47767857142856,3594.5,965.5714285714286,250.47767857142856,3698.8,965.5714285714286,250.47767857142856,3799.2,965.5714285714286,250.47767857142856,3899.5,965.5714285714286,250.47767857142856,4004.3,965.5714285714286,250.47767857142856,4108.5,965.5714285714286,250.47767857142856,4208.9,965.5714285714286,250.47767857142856,4309.9,965.5714285714286,250.47767857142856,4414.2,965.5714285714286,250.47767857142856,4519.4,965.5714285714286,250.47767857142856,4624.8,965.5714285714286,250.47767857142856,4724.8,965.5714285714286,250.47767857142856,4825.7,965.5714285714286,250.47767857142856,4928.7]","[1468.7,1468.7,1000,0,468.7,""oops"",""up"",""down"",""bad_move"",4873.3,3404.2,3006.7,1469.1,397.5,""oops"",""up"",""up"",""good_move"",11377.1,6503.4,2956.3,7993.2,427.6,""smooth"",""up"",""up"",""good_move"",14025.2,2648,2295.2,11377.2,352.8,""oops"",""up"",""left"",""bad_move"",17137.4,3112,2722.2,14025.4,389.8,""smooth"",""up"",""up"",""good_move"",20361.2,3223.6,2815.3,17137.6,408.3,""smooth"",""up"",""up"",""good_move"",22553.2,2191.5,1777.5,20361.7,414,""smooth"",""right"",""right"",""good_move""]","",""
"3975","","<div style=""width:500px;"">
  <p>What determined the result of this run?</p>
  </div>","43","html-slider-response","40","431475","0.0-5.0-1.6","100","1","2025-07-16 10:25:35","1f75c3e559b7213887762d5229550c2b","90.212.166.118","Mozilla/5.0 (Windows NT 10.0; Win64; x64) AppleWebKit/537.36 (KHTML, like Gecko) Chrome/138.0.0.0 Safari/537.36","WebKit","Chrome","138.0.0.0","Windows","10.0","https://app.prolific.com/","en-GB,en-US;q=0.9,en;q=0.8","59dd90f6e75b450001a68dac","686e379bc37a29ffa5cdc956","68777d4bc6cda202605225d2","1","1","59dd90f6e75b450001a68dac","1","1","2025-07-16T10:32:56.070Z","","","","","","","","","","","AttribQ","","50","","","","","","","","","","","","","","","","","","","","","","","","","","","","",""
"2686","","<div style=""width:500px;"">
  <p>How much control did you have over the ball?</p>
  </div>","2","html-slider-response","41","434162","0.0-5.0-2.6","100","1","2025-07-16 10:25:35","1f75c3e559b7213887762d5229550c2b","90.212.166.118","Mozilla/5.0 (Windows NT 10.0; Win64; x64) AppleWebKit/537.36 (KHTML, like Gecko) Chrome/138.0.0.0 Safari/537.36","WebKit","Chrome","138.0.0.0","Windows","10.0","https://app.prolific.com/","en-GB,en-US;q=0.9,en;q=0.8","59dd90f6e75b450001a68dac","686e379bc37a29ffa5cdc956","68777d4bc6cda202605225d2","1","1","59dd90f6e75b450001a68dac","1","1","2025-07-16T10:32:58.757Z","","","","","","","","","","","ControlQ","","50","","","","","","","","","","","","","","","","","","","","","","","","","","","","",""
"1802","","<div style=""width:500px;"">
  <p>How would you describe your current emotional state?</p>
  </div>","93","html-slider-response","42","435965","0.0-5.0-3.6","100","1","2025-07-16 10:25:35","1f75c3e559b7213887762d5229550c2b","90.212.166.118","Mozilla/5.0 (Windows NT 10.0; Win64; x64) AppleWebKit/537.36 (KHTML, like Gecko) Chrome/138.0.0.0 Safari/537.36","WebKit","Chrome","138.0.0.0","Windows","10.0","https://app.prolific.com/","en-GB,en-US;q=0.9,en;q=0.8","59dd90f6e75b450001a68dac","686e379bc37a29ffa5cdc956","68777d4bc6cda202605225d2","1","1","59dd90f6e75b450001a68dac","1","1","2025-07-16T10:33:00.560Z","","","","","","","","","","","StressQ","","50","","","","","","","","","","","","","","","","","","","","","","","","","","","","",""
"1607","","<div style=""width:500px;"">
  <p>What best describes how you currently feel?</p>
  </div>","32","html-slider-response","43","437574","0.0-5.0-4.6","100","1","2025-07-16 10:25:35","1f75c3e559b7213887762d5229550c2b","90.212.166.118","Mozilla/5.0 (Windows NT 10.0; Win64; x64) AppleWebKit/537.36 (KHTML, like Gecko) Chrome/138.0.0.0 Safari/537.36","WebKit","Chrome","138.0.0.0","Windows","10.0","https://app.prolific.com/","en-GB,en-US;q=0.9,en;q=0.8","59dd90f6e75b450001a68dac","686e379bc37a29ffa5cdc956","68777d4bc6cda202605225d2","1","1","59dd90f6e75b450001a68dac","1","1","2025-07-16T10:33:02.169Z","","","","","","","","","","","MotivationQ","","50","","","","","","","","","","","","","","","","","","","","","","","","","","","","",""
"","","","","ctl-task-cpt","44","469901","0.0-5.0-0.7","100","1","2025-07-16 10:25:35","1f75c3e559b7213887762d5229550c2b","90.212.166.118","Mozilla/5.0 (Windows NT 10.0; Win64; x64) AppleWebKit/537.36 (KHTML, like Gecko) Chrome/138.0.0.0 Safari/537.36","WebKit","Chrome","138.0.0.0","Windows","10.0","https://app.prolific.com/","en-GB,en-US;q=0.9,en;q=0.8","59dd90f6e75b450001a68dac","686e379bc37a29ffa5cdc956","68777d4bc6cda202605225d2","1","1","59dd90f6e75b450001a68dac","1","1","2025-07-16T10:33:34.496Z","","","","","","","","","","","","","","win-only","3","g1:SW,g2:NE","0.3","8","0","446375.8","644.5","5646.4","29310.2","1","4","4","6","1","-1","-1","0","0","0","1049.7","3000","-3015","[""down"",""left""]","{""num_key_presses"":7,""num_perfect"":3,""num_errors"":0,""num_randdir"":4,""num_randdir_good_moves"":1,""num_whilered"":0,""num_whileblue"":0,""num_blue"":1,""num_good_moves"":4}","[406.57142857142856,424.47767857142856,0.1,406.57142857142856,424.47767857142856,113.8,406.57142857142856,423.47767857142856,217,406.57142857142856,422.47767857142856,321.7,405.57142857142856,422.47767857142856,426.3,402.57142857142856,423.47767857142856,530.8,224.57142857142856,621.4776785714286,631.8,165.57142857142856,661.4776785714286,736.2,161.57142857142856,668.4776785714286,841.7,94.57142857142857,739.4776785714286,948,77.57142857142857,765.4776785714286,1064.2,78.57142857142857,765.4776785714286,1166.1,77.57142857142857,764.4776785714286,1266.2,68.57142857142857,734.4776785714286,1367.3,68.57142857142857,734.4776785714286,1471.1,68.57142857142857,734.4776785714286,1572.1,-181.42857142857144,712.4776785714286,1676.6,-473.42857142857144,693.4776785714286,1783.1,-484.42857142857144,686.4776785714286,1886,-481.42857142857144,680.4776785714286,1986.4,-481.42857142857144,680.4776785714286,2092.6,-481.42857142857144,680.4776785714286,2195.7,-481.42857142857144,680.4776785714286,2297.2,-481.42857142857144,680.4776785714286,2400.7,-481.42857142857144,680.4776785714286,2501,-481.42857142857144,680.4776785714286,2601.7,-481.42857142857144,680.4776785714286,2705.8,-481.42857142857144,680.4776785714286,2812.2,-481.42857142857144,680.4776785714286,2912.4,-481.42857142857144,680.4776785714286,3013.3,-481.42857142857144,680.4776785714286,3116.2,-481.42857142857144,680.4776785714286,3221,-481.42857142857144,680.4776785714286,3322.8,-481.42857142857144,680.4776785714286,3427.7,-481.42857142857144,680.4776785714286,3530.7,-481.42857142857144,680.4776785714286,3633.3,-481.42857142857144,680.4776785714286,3735.9,-481.42857142857144,680.4776785714286,3836.2,-481.42857142857144,680.4776785714286,3936.5,-481.42857142857144,680.4776785714286,4037,-481.42857142857144,680.4776785714286,4137.3,-481.42857142857144,680.4776785714286,4237.5,-481.42857142857144,680.4776785714286,4340.6,-481.42857142857144,680.4776785714286,4441.7,-481.42857142857144,680.4776785714286,4541.8,-481.42857142857144,680.4776785714286,4646.9,-481.42857142857144,680.4776785714286,4751,-481.42857142857144,680.4776785714286,4851,-481.42857142857144,680.4776785714286,4951.2]","[1402.6,1402.6,1000,0,402.6,""smooth"",""down"",""down"",""good_move"",3843.5,2440.5,2041.9,1403,398.6,""oops"",""down"",""right"",""bad_move"",7650.8,3807,3352.4,3843.8,454.6,""smooth"",""down"",""down"",""good_move"",9729.7,2078.7,1608,7651,470.7,""oops"",""left"",""up"",""bad_move"",12681.7,2951.6,2572.8,9730.1,378.8,""smooth"",""left"",""left"",""good_move"",18442.2,5760.2,1925.7,16089.4,427.1,""oops"",""left"",""right"",""bad_move"",20913.8,2471.3,2049,18442.5,422.3,""oops"",""left"",""left"",""good_move""]","",""
"1817","","<div style=""width:500px;"">
  <p>What determined the result of this run?</p>
  </div>","0","html-slider-response","45","471719","0.0-5.0-1.7","100","1","2025-07-16 10:25:35","1f75c3e559b7213887762d5229550c2b","90.212.166.118","Mozilla/5.0 (Windows NT 10.0; Win64; x64) AppleWebKit/537.36 (KHTML, like Gecko) Chrome/138.0.0.0 Safari/537.36","WebKit","Chrome","138.0.0.0","Windows","10.0","https://app.prolific.com/","en-GB,en-US;q=0.9,en;q=0.8","59dd90f6e75b450001a68dac","686e379bc37a29ffa5cdc956","68777d4bc6cda202605225d2","1","1","59dd90f6e75b450001a68dac","1","1","2025-07-16T10:33:36.314Z","","","","","","","","","","","AttribQ","","50","","","","","","","","","","","","","","","","","","","","","","","","","","","","",""
"2531","","<div style=""width:500px;"">
  <p>How much control did you have over the ball?</p>
  </div>","5","html-slider-response","46","474251","0.0-5.0-2.7","100","1","2025-07-16 10:25:35","1f75c3e559b7213887762d5229550c2b","90.212.166.118","Mozilla/5.0 (Windows NT 10.0; Win64; x64) AppleWebKit/537.36 (KHTML, like Gecko) Chrome/138.0.0.0 Safari/537.36","WebKit","Chrome","138.0.0.0","Windows","10.0","https://app.prolific.com/","en-GB,en-US;q=0.9,en;q=0.8","59dd90f6e75b450001a68dac","686e379bc37a29ffa5cdc956","68777d4bc6cda202605225d2","1","1","59dd90f6e75b450001a68dac","1","1","2025-07-16T10:33:38.846Z","","","","","","","","","","","ControlQ","","50","","","","","","","","","","","","","","","","","","","","","","","","","","","","",""
"2492","","<div style=""width:500px;"">
  <p>How would you describe your current emotional state?</p>
  </div>","89","html-slider-response","47","476743","0.0-5.0-3.7","100","1","2025-07-16 10:25:35","1f75c3e559b7213887762d5229550c2b","90.212.166.118","Mozilla/5.0 (Windows NT 10.0; Win64; x64) AppleWebKit/537.36 (KHTML, like Gecko) Chrome/138.0.0.0 Safari/537.36","WebKit","Chrome","138.0.0.0","Windows","10.0","https://app.prolific.com/","en-GB,en-US;q=0.9,en;q=0.8","59dd90f6e75b450001a68dac","686e379bc37a29ffa5cdc956","68777d4bc6cda202605225d2","1","1","59dd90f6e75b450001a68dac","1","1","2025-07-16T10:33:41.338Z","","","","","","","","","","","StressQ","","50","","","","","","","","","","","","","","","","","","","","","","","","","","","","",""
"2874","","<div style=""width:500px;"">
  <p>What best describes how you currently feel?</p>
  </div>","20","html-slider-response","48","479618","0.0-5.0-4.7","100","1","2025-07-16 10:25:35","1f75c3e559b7213887762d5229550c2b","90.212.166.118","Mozilla/5.0 (Windows NT 10.0; Win64; x64) AppleWebKit/537.36 (KHTML, like Gecko) Chrome/138.0.0.0 Safari/537.36","WebKit","Chrome","138.0.0.0","Windows","10.0","https://app.prolific.com/","en-GB,en-US;q=0.9,en;q=0.8","59dd90f6e75b450001a68dac","686e379bc37a29ffa5cdc956","68777d4bc6cda202605225d2","1","1","59dd90f6e75b450001a68dac","1","1","2025-07-16T10:33:44.213Z","","","","","","","","","","","MotivationQ","","50","","","","","","","","","","","","","","","","","","","","","","","","","","","","",""
"","","","","ctl-task-cpt","49","525920","0.0-5.0-0.8","100","1","2025-07-16 10:25:35","1f75c3e559b7213887762d5229550c2b","90.212.166.118","Mozilla/5.0 (Windows NT 10.0; Win64; x64) AppleWebKit/537.36 (KHTML, like Gecko) Chrome/138.0.0.0 Safari/537.36","WebKit","Chrome","138.0.0.0","Windows","10.0","https://app.prolific.com/","en-GB,en-US;q=0.9,en;q=0.8","59dd90f6e75b450001a68dac","686e379bc37a29ffa5cdc956","68777d4bc6cda202605225d2","1","1","59dd90f6e75b450001a68dac","1","1","2025-07-16T10:34:30.515Z","","","","","","","","","","","","","","win-only","1","g1:NE,g2:SW","0.2","9","0","488420.5","8382","13382.4","43290.7","1","4","4","6","1","-1","-1","0","0","0","1749.5","3000","-2685","[""up"",""right""]","{""num_key_presses"":7,""num_perfect"":2,""num_errors"":0,""num_randdir"":5,""num_randdir_good_moves"":1,""num_whilered"":0,""num_whileblue"":0,""num_blue"":2,""num_good_moves"":3}","[422.57142857142856,416.47767857142856,0.2,422.57142857142856,416.47767857142856,104,415.57142857142856,419.47767857142856,204.1,298.57142857142856,576.4776785714286,310.4,155.57142857142856,701.4776785714286,414.2,109.57142857142857,738.4776785714286,514.9,194.57142857142856,672.4776785714286,615.4,714.5714285714286,298.47767857142856,720.1,248.57142857142856,508.47767857142856,824.3,59.57142857142857,675.4776785714286,932.4,129.57142857142856,625.4776785714286,1034.3,487.57142857142856,245.47767857142856,1138.5,587.5714285714286,128.47767857142856,1238.9,595.5714285714286,106.47767857142857,1339.3,634.5714285714286,88.47767857142857,1439.4,681.5714285714286,103.47767857142857,1544.6,730.5714285714286,89.47767857142857,1652.1,740.5714285714286,85.47767857142857,1753.2,740.5714285714286,85.47767857142857,1854.8,739.5714285714286,85.47767857142857,1959.2,737.5714285714286,86.47767857142857,2067.2,737.5714285714286,86.47767857142857,2167.4,737.5714285714286,86.47767857142857,2267.9,737.5714285714286,86.47767857142857,2368.5,737.5714285714286,86.47767857142857,2468.5,737.5714285714286,86.47767857142857,2568.5,737.5714285714286,86.47767857142857,2674.6,737.5714285714286,86.47767857142857,2775.9,737.5714285714286,86.47767857142857,2879.7,737.5714285714286,86.47767857142857,2979.9,737.5714285714286,86.47767857142857,3085.3,737.5714285714286,86.47767857142857,3185.4,737.5714285714286,86.47767857142857,3288.2,737.5714285714286,86.47767857142857,3389.4,737.5714285714286,86.47767857142857,3493.7,737.5714285714286,86.47767857142857,3593.8,737.5714285714286,86.47767857142857,3694.2,737.5714285714286,86.47767857142857,3802,737.5714285714286,86.47767857142857,3904.4,737.5714285714286,86.47767857142857,4004.4,737.5714285714286,86.47767857142857,4108.6,737.5714285714286,86.47767857142857,4208.7,737.5714285714286,86.47767857142857,4317.5,737.5714285714286,86.47767857142857,4417.8,737.5714285714286,86.47767857142857,4518,737.5714285714286,86.47767857142857,4624.2,737.5714285714286,86.47767857142857,4728.1,737.5714285714286,86.47767857142857,4834.7,737.5714285714286,86.47767857142857,4934.7]","[7534.8,7534.8,2413.4,4623.2,498.2,""oops"",""up"",""left"",""bad_move"",10799.8,3264.6,2855.4,7535.2,409.2,""smooth"",""up"",""up"",""good_move"",13605.4,2805.4,2398,10800,407.4,""oops"",""up"",""down"",""bad_move"",16898.2,3292.6,2889.2,13605.7,403.4,""oops"",""up"",""left"",""bad_move"",19974.2,3075.5,2686.7,16898.7,388.8,""smooth"",""up"",""up"",""good_move"",22749.4,2775,2377.3,19974.4,397.7,""oops"",""up"",""left"",""bad_move"",26165.9,3416.2,3025.9,22749.7,390.3,""oops"",""right"",""up"",""good_move""]","",""
"2243","","<div style=""width:500px;"">
  <p>What determined the result of this run?</p>
  </div>","0","html-slider-response","50","528163","0.0-5.0-1.8","100","1","2025-07-16 10:25:35","1f75c3e559b7213887762d5229550c2b","90.212.166.118","Mozilla/5.0 (Windows NT 10.0; Win64; x64) AppleWebKit/537.36 (KHTML, like Gecko) Chrome/138.0.0.0 Safari/537.36","WebKit","Chrome","138.0.0.0","Windows","10.0","https://app.prolific.com/","en-GB,en-US;q=0.9,en;q=0.8","59dd90f6e75b450001a68dac","686e379bc37a29ffa5cdc956","68777d4bc6cda202605225d2","1","1","59dd90f6e75b450001a68dac","1","1","2025-07-16T10:34:32.758Z","","","","","","","","","","","AttribQ","","50","","","","","","","","","","","","","","","","","","","","","","","","","","","","",""
"1755","","<div style=""width:500px;"">
  <p>How much control did you have over the ball?</p>
  </div>","0","html-slider-response","51","529919","0.0-5.0-2.8","100","1","2025-07-16 10:25:35","1f75c3e559b7213887762d5229550c2b","90.212.166.118","Mozilla/5.0 (Windows NT 10.0; Win64; x64) AppleWebKit/537.36 (KHTML, like Gecko) Chrome/138.0.0.0 Safari/537.36","WebKit","Chrome","138.0.0.0","Windows","10.0","https://app.prolific.com/","en-GB,en-US;q=0.9,en;q=0.8","59dd90f6e75b450001a68dac","686e379bc37a29ffa5cdc956","68777d4bc6cda202605225d2","1","1","59dd90f6e75b450001a68dac","1","1","2025-07-16T10:34:34.514Z","","","","","","","","","","","ControlQ","","50","","","","","","","","","","","","","","","","","","","","","","","","","","","","",""
"2051","","<div style=""width:500px;"">
  <p>How would you describe your current emotional state?</p>
  </div>","93","html-slider-response","52","531971","0.0-5.0-3.8","100","1","2025-07-16 10:25:35","1f75c3e559b7213887762d5229550c2b","90.212.166.118","Mozilla/5.0 (Windows NT 10.0; Win64; x64) AppleWebKit/537.36 (KHTML, like Gecko) Chrome/138.0.0.0 Safari/537.36","WebKit","Chrome","138.0.0.0","Windows","10.0","https://app.prolific.com/","en-GB,en-US;q=0.9,en;q=0.8","59dd90f6e75b450001a68dac","686e379bc37a29ffa5cdc956","68777d4bc6cda202605225d2","1","1","59dd90f6e75b450001a68dac","1","1","2025-07-16T10:34:36.566Z","","","","","","","","","","","StressQ","","50","","","","","","","","","","","","","","","","","","","","","","","","","","","","",""
"2783","","<div style=""width:500px;"">
  <p>What best describes how you currently feel?</p>
  </div>","16","html-slider-response","53","534755","0.0-5.0-4.8","100","1","2025-07-16 10:25:35","1f75c3e559b7213887762d5229550c2b","90.212.166.118","Mozilla/5.0 (Windows NT 10.0; Win64; x64) AppleWebKit/537.36 (KHTML, like Gecko) Chrome/138.0.0.0 Safari/537.36","WebKit","Chrome","138.0.0.0","Windows","10.0","https://app.prolific.com/","en-GB,en-US;q=0.9,en;q=0.8","59dd90f6e75b450001a68dac","686e379bc37a29ffa5cdc956","68777d4bc6cda202605225d2","1","1","59dd90f6e75b450001a68dac","1","1","2025-07-16T10:34:39.350Z","","","","","","","","","","","MotivationQ","","50","","","","","","","","","","","","","","","","","","","","","","","","","","","","",""
"","","","","ctl-task-cpt","54","561964","0.0-5.0-0.9","100","1","2025-07-16 10:25:35","1f75c3e559b7213887762d5229550c2b","90.212.166.118","Mozilla/5.0 (Windows NT 10.0; Win64; x64) AppleWebKit/537.36 (KHTML, like Gecko) Chrome/138.0.0.0 Safari/537.36","WebKit","Chrome","138.0.0.0","Windows","10.0","https://app.prolific.com/","en-GB,en-US;q=0.9,en;q=0.8","59dd90f6e75b450001a68dac","686e379bc37a29ffa5cdc956","68777d4bc6cda202605225d2","1","1","59dd90f6e75b450001a68dac","1","1","2025-07-16T10:35:06.559Z","","","","","","","","","","","","","","win-only","1","g1:NE,g2:SW","0.4","10","0","543557.2","897.3","5901.1","24191.8","1","4","8","6","1","-1","-1","0","0","0","1214","3000","-3015","[""up"",""right""]","{""num_key_presses"":6,""num_perfect"":1,""num_errors"":0,""num_randdir"":5,""num_randdir_good_moves"":2,""num_whilered"":0,""num_whileblue"":0,""num_blue"":0,""num_good_moves"":3}","[420.57142857142856,413.47767857142856,0.2,420.57142857142856,413.47767857142856,103.8,420.57142857142856,413.47767857142856,208.3,420.57142857142856,411.47767857142856,309.1,424.57142857142856,411.47767857142856,413.2,647.5714285714286,291.47767857142856,518.3,848.5714285714286,157.47767857142856,618.7,851.5714285714286,102.47767857142857,724.3,855.5714285714286,81.47767857142857,828.7,799.5714285714286,86.47767857142857,933.2,784.5714285714286,89.47767857142857,1033.9,779.5714285714286,89.47767857142857,1138.3,777.5714285714286,89.47767857142857,1238.8,777.5714285714286,89.47767857142857,1343,777.5714285714286,89.47767857142857,1444.7,777.5714285714286,89.47767857142857,1548.8,777.5714285714286,89.47767857142857,1653.5,777.5714285714286,89.47767857142857,1758.2,777.5714285714286,89.47767857142857,1858.4,777.5714285714286,89.47767857142857,1963.2,777.5714285714286,89.47767857142857,2068.5,777.5714285714286,89.47767857142857,2173.3,777.5714285714286,89.47767857142857,2282,777.5714285714286,89.47767857142857,2383,777.5714285714286,89.47767857142857,2483,777.5714285714286,89.47767857142857,2583.3,777.5714285714286,89.47767857142857,2688.4,777.5714285714286,89.47767857142857,2793.7,777.5714285714286,89.47767857142857,2894.1,777.5714285714286,89.47767857142857,2995.3,777.5714285714286,89.47767857142857,3098.4,777.5714285714286,89.47767857142857,3198.4,777.5714285714286,89.47767857142857,3298.6,777.5714285714286,89.47767857142857,3399.2,777.5714285714286,89.47767857142857,3502.9,777.5714285714286,89.47767857142857,3603.9,777.5714285714286,89.47767857142857,3707.9,777.5714285714286,89.47767857142857,3808.4,777.5714285714286,89.47767857142857,3913.6,777.5714285714286,89.47767857142857,4016.2,777.5714285714286,89.47767857142857,4118.1,777.5714285714286,89.47767857142857,4219,777.5714285714286,89.47767857142857,4325,777.5714285714286,89.47767857142857,4428.2,777.5714285714286,89.47767857142857,4529.3,777.5714285714286,89.47767857142857,4635,777.5714285714286,89.47767857142857,4738.4,777.5714285714286,89.47767857142857,4838.8,777.5714285714286,89.47767857142857,4943.5]","[1358.2,1358.2,1000,0,358.2,""smooth"",""up"",""up"",""good_move"",4398.2,3039.6,2664.8,1358.6,374.8,""oops"",""up"",""down"",""bad_move"",7358.9,2960.5,2570.5,4398.4,390,""oops"",""up"",""right"",""good_move"",10214.4,2855.2,2346.2,7359.2,509,""oops"",""left"",""up"",""good_move"",13438.4,3223.4,2554.2,10215,669.2,""oops"",""down"",""left"",""bad_move"",16454.1,3015.4,2592.9,13438.7,422.5,""oops"",""up"",""left"",""bad_move""]","",""
"1928","","<div style=""width:500px;"">
  <p>What determined the result of this run?</p>
  </div>","0","html-slider-response","55","563893","0.0-5.0-1.9","100","1","2025-07-16 10:25:35","1f75c3e559b7213887762d5229550c2b","90.212.166.118","Mozilla/5.0 (Windows NT 10.0; Win64; x64) AppleWebKit/537.36 (KHTML, like Gecko) Chrome/138.0.0.0 Safari/537.36","WebKit","Chrome","138.0.0.0","Windows","10.0","https://app.prolific.com/","en-GB,en-US;q=0.9,en;q=0.8","59dd90f6e75b450001a68dac","686e379bc37a29ffa5cdc956","68777d4bc6cda202605225d2","1","1","59dd90f6e75b450001a68dac","1","1","2025-07-16T10:35:08.488Z","","","","","","","","","","","AttribQ","","50","","","","","","","","","","","","","","","","","","","","","","","","","","","","",""
"1685","","<div style=""width:500px;"">
  <p>How much control did you have over the ball?</p>
  </div>","0","html-slider-response","56","565579","0.0-5.0-2.9","100","1","2025-07-16 10:25:35","1f75c3e559b7213887762d5229550c2b","90.212.166.118","Mozilla/5.0 (Windows NT 10.0; Win64; x64) AppleWebKit/537.36 (KHTML, like Gecko) Chrome/138.0.0.0 Safari/537.36","WebKit","Chrome","138.0.0.0","Windows","10.0","https://app.prolific.com/","en-GB,en-US;q=0.9,en;q=0.8","59dd90f6e75b450001a68dac","686e379bc37a29ffa5cdc956","68777d4bc6cda202605225d2","1","1","59dd90f6e75b450001a68dac","1","1","2025-07-16T10:35:10.174Z","","","","","","","","","","","ControlQ","","50","","","","","","","","","","","","","","","","","","","","","","","","","","","","",""
"2036","","<div style=""width:500px;"">
  <p>How would you describe your current emotional state?</p>
  </div>","89","html-slider-response","57","567616","0.0-5.0-3.9","100","1","2025-07-16 10:25:35","1f75c3e559b7213887762d5229550c2b","90.212.166.118","Mozilla/5.0 (Windows NT 10.0; Win64; x64) AppleWebKit/537.36 (KHTML, like Gecko) Chrome/138.0.0.0 Safari/537.36","WebKit","Chrome","138.0.0.0","Windows","10.0","https://app.prolific.com/","en-GB,en-US;q=0.9,en;q=0.8","59dd90f6e75b450001a68dac","686e379bc37a29ffa5cdc956","68777d4bc6cda202605225d2","1","1","59dd90f6e75b450001a68dac","1","1","2025-07-16T10:35:12.211Z","","","","","","","","","","","StressQ","","50","","","","","","","","","","","","","","","","","","","","","","","","","","","","",""
"1800","","<div style=""width:500px;"">
  <p>What best describes how you currently feel?</p>
  </div>","16","html-slider-response","58","569417","0.0-5.0-4.9","100","1","2025-07-16 10:25:35","1f75c3e559b7213887762d5229550c2b","90.212.166.118","Mozilla/5.0 (Windows NT 10.0; Win64; x64) AppleWebKit/537.36 (KHTML, like Gecko) Chrome/138.0.0.0 Safari/537.36","WebKit","Chrome","138.0.0.0","Windows","10.0","https://app.prolific.com/","en-GB,en-US;q=0.9,en;q=0.8","59dd90f6e75b450001a68dac","686e379bc37a29ffa5cdc956","68777d4bc6cda202605225d2","1","1","59dd90f6e75b450001a68dac","1","1","2025-07-16T10:35:14.012Z","","","","","","","","","","","MotivationQ","","50","","","","","","","","","","","","","","","","","","","","","","","","","","","","",""
"","","","","ctl-task-cpt","59","598854","0.0-5.0-0.10","100","1","2025-07-16 10:25:35","1f75c3e559b7213887762d5229550c2b","90.212.166.118","Mozilla/5.0 (Windows NT 10.0; Win64; x64) AppleWebKit/537.36 (KHTML, like Gecko) Chrome/138.0.0.0 Safari/537.36","WebKit","Chrome","138.0.0.0","Windows","10.0","https://app.prolific.com/","en-GB,en-US;q=0.9,en;q=0.8","59dd90f6e75b450001a68dac","686e379bc37a29ffa5cdc956","68777d4bc6cda202605225d2","1","1","59dd90f6e75b450001a68dac","1","1","2025-07-16T10:35:43.449Z","","","","","","","","","","","","","","win-only","1","g1:NE,g2:SW","0.5","11","0","578219","679.6","5682.5","26416.1","1","4","8","6","2","-8","-8","0","0","0","1856.3","3000","-2890","[""down"",""left""]","{""num_key_presses"":7,""num_perfect"":5,""num_errors"":0,""num_randdir"":2,""num_randdir_good_moves"":1,""num_whilered"":0,""num_whileblue"":0,""num_blue"":0,""num_good_moves"":6}","[409.57142857142856,415.47767857142856,0.5,409.57142857142856,415.47767857142856,101.2,404.57142857142856,421.47767857142856,203.4,404.57142857142856,421.47767857142856,306.3,404.57142857142856,421.47767857142856,406.3,404.57142857142856,421.47767857142856,506.7,404.57142857142856,421.47767857142856,610.7,404.57142857142856,418.47767857142856,710.9,404.57142857142856,418.47767857142856,812,404.57142857142856,418.47767857142856,917.1,404.57142857142856,418.47767857142856,1021.2,395.57142857142856,421.47767857142856,1125.9,384.57142857142856,425.47767857142856,1232,383.57142857142856,426.47767857142856,1336.7,332.57142857142856,461.47767857142856,1437.2,166.57142857142856,602.4776785714286,1540.8,83.57142857142857,700.4776785714286,1640.8,73.57142857142857,729.4776785714286,1746.3,58.57142857142857,766.4776785714286,1846.4,58.57142857142857,768.4776785714286,1947.6,58.57142857142857,768.4776785714286,2051.1,50.57142857142857,715.4776785714286,2154.1,-207.42857142857144,502.47767857142856,2254.6,-274.42857142857144,469.47767857142856,2355.7,-275.42857142857144,469.47767857142856,2460.7,-275.42857142857144,469.47767857142856,2560.7,-275.42857142857144,469.47767857142856,2662.7,-275.42857142857144,469.47767857142856,2765.7,-275.42857142857144,469.47767857142856,2865.7,-275.42857142857144,469.47767857142856,2965.7,-275.42857142857144,469.47767857142856,3066.4,-275.42857142857144,469.47767857142856,3172.3,-275.42857142857144,469.47767857142856,3275.9,-275.42857142857144,469.47767857142856,3381.3,-275.42857142857144,469.47767857142856,3486.1,-275.42857142857144,469.47767857142856,3586.6,-275.42857142857144,469.47767857142856,3690.2,-275.42857142857144,469.47767857142856,3790.6,-275.42857142857144,469.47767857142856,3891.4,-275.42857142857144,469.47767857142856,3991.5,-275.42857142857144,469.47767857142856,4095.9,-275.42857142857144,469.47767857142856,4196.5,-275.42857142857144,469.47767857142856,4303,-275.42857142857144,469.47767857142856,4406.8,-275.42857142857144,469.47767857142856,4510.9,-275.42857142857144,469.47767857142856,4616.4,-275.42857142857144,469.47767857142856,4724.2,-275.42857142857144,469.47767857142856,4826.4,-275.42857142857144,469.47767857142856,4931.6]","[1434.5,1434.5,1000,0,434.5,""smooth"",""down"",""down"",""good_move"",4058.6,2623.7,2279.7,1434.9,344,""smooth"",""down"",""down"",""good_move"",7042.3,2983.4,2615.9,4058.9,367.5,""smooth"",""down"",""down"",""good_move"",9010.4,1967.9,1532.5,7042.5,435.4,""smooth"",""left"",""left"",""good_move"",12106.3,3095.6,2693.6,9010.7,402,""oops"",""left"",""left"",""good_move"",14676.8,2570.2,2153.4,12106.6,416.8,""oops"",""left"",""right"",""bad_move"",17378.4,2701.2,2315.4,14677.2,385.8,""smooth"",""left"",""left"",""good_move""]","",""
"1849","","<div style=""width:500px;"">
  <p>What determined the result of this run?</p>
  </div>","51","html-slider-response","60","600703","0.0-5.0-1.10","100","1","2025-07-16 10:25:35","1f75c3e559b7213887762d5229550c2b","90.212.166.118","Mozilla/5.0 (Windows NT 10.0; Win64; x64) AppleWebKit/537.36 (KHTML, like Gecko) Chrome/138.0.0.0 Safari/537.36","WebKit","Chrome","138.0.0.0","Windows","10.0","https://app.prolific.com/","en-GB,en-US;q=0.9,en;q=0.8","59dd90f6e75b450001a68dac","686e379bc37a29ffa5cdc956","68777d4bc6cda202605225d2","1","1","59dd90f6e75b450001a68dac","1","1","2025-07-16T10:35:45.298Z","","","","","","","","","","","AttribQ","","50","","","","","","","","","","","","","","","","","","","","","","","","","","","","",""
"2936","","<div style=""width:500px;"">
  <p>How much control did you have over the ball?</p>
  </div>","38","html-slider-response","61","603640","0.0-5.0-2.10","100","1","2025-07-16 10:25:35","1f75c3e559b7213887762d5229550c2b","90.212.166.118","Mozilla/5.0 (Windows NT 10.0; Win64; x64) AppleWebKit/537.36 (KHTML, like Gecko) Chrome/138.0.0.0 Safari/537.36","WebKit","Chrome","138.0.0.0","Windows","10.0","https://app.prolific.com/","en-GB,en-US;q=0.9,en;q=0.8","59dd90f6e75b450001a68dac","686e379bc37a29ffa5cdc956","68777d4bc6cda202605225d2","1","1","59dd90f6e75b450001a68dac","1","1","2025-07-16T10:35:48.235Z","","","","","","","","","","","ControlQ","","50","","","","","","","","","","","","","","","","","","","","","","","","","","","","",""
"2489","","<div style=""width:500px;"">
  <p>How would you describe your current emotional state?</p>
  </div>","72","html-slider-response","62","606130","0.0-5.0-3.10","100","1","2025-07-16 10:25:35","1f75c3e559b7213887762d5229550c2b","90.212.166.118","Mozilla/5.0 (Windows NT 10.0; Win64; x64) AppleWebKit/537.36 (KHTML, like Gecko) Chrome/138.0.0.0 Safari/537.36","WebKit","Chrome","138.0.0.0","Windows","10.0","https://app.prolific.com/","en-GB,en-US;q=0.9,en;q=0.8","59dd90f6e75b450001a68dac","686e379bc37a29ffa5cdc956","68777d4bc6cda202605225d2","1","1","59dd90f6e75b450001a68dac","1","1","2025-07-16T10:35:50.725Z","","","","","","","","","","","StressQ","","50","","","","","","","","","","","","","","","","","","","","","","","","","","","","",""
"1735","","<div style=""width:500px;"">
  <p>What best describes how you currently feel?</p>
  </div>","29","html-slider-response","63","607866","0.0-5.0-4.10","100","1","2025-07-16 10:25:35","1f75c3e559b7213887762d5229550c2b","90.212.166.118","Mozilla/5.0 (Windows NT 10.0; Win64; x64) AppleWebKit/537.36 (KHTML, like Gecko) Chrome/138.0.0.0 Safari/537.36","WebKit","Chrome","138.0.0.0","Windows","10.0","https://app.prolific.com/","en-GB,en-US;q=0.9,en;q=0.8","59dd90f6e75b450001a68dac","686e379bc37a29ffa5cdc956","68777d4bc6cda202605225d2","1","1","59dd90f6e75b450001a68dac","1","1","2025-07-16T10:35:52.461Z","","","","","","","","","","","MotivationQ","","50","","","","","","","","","","","","","","","","","","","","","","","","","","","","",""
"","","","","ctl-task-cpt","64","629419","0.0-5.0-0.11","100","1","2025-07-16 10:25:35","1f75c3e559b7213887762d5229550c2b","90.212.166.118","Mozilla/5.0 (Windows NT 10.0; Win64; x64) AppleWebKit/537.36 (KHTML, like Gecko) Chrome/138.0.0.0 Safari/537.36","WebKit","Chrome","138.0.0.0","Windows","10.0","https://app.prolific.com/","en-GB,en-US;q=0.9,en;q=0.8","59dd90f6e75b450001a68dac","686e379bc37a29ffa5cdc956","68777d4bc6cda202605225d2","1","1","59dd90f6e75b450001a68dac","1","1","2025-07-16T10:36:14.014Z","","","","","","","","","","","","","","win-only","3","g1:SW,g2:NE","0.6","12","0","616667.8","720.6","5725.8","18531.6","1","4","4","6","1","1","1","1","0","0.007575757575757576","1410.6","3000","1405","[""down"",""left""]","{""num_key_presses"":4,""num_perfect"":2,""num_errors"":0,""num_randdir"":2,""num_randdir_good_moves"":2,""num_whilered"":0,""num_whileblue"":0,""num_blue"":1,""num_good_moves"":4}","[405.57142857142856,416.47767857142856,0.2,405.57142857142856,416.47767857142856,100.7,407.57142857142856,416.47767857142856,205.3,409.57142857142856,419.47767857142856,312.4,409.57142857142856,419.47767857142856,416.1,409.57142857142856,419.47767857142856,520.8,409.57142857142856,419.47767857142856,621.1,409.57142857142856,419.47767857142856,725.6,409.57142857142856,419.47767857142856,828,384.57142857142856,445.47767857142856,931,140.57142857142856,661.4776785714286,1035.5,93.57142857142857,726.4776785714286,1135.7,72.57142857142857,746.4776785714286,1236.8,32.57142857142857,770.4776785714286,1339.7,32.57142857142857,770.4776785714286,1440.3,32.57142857142857,770.4776785714286,1545.1,32.57142857142857,770.4776785714286,1649.4,32.57142857142857,770.4776785714286,1751,32.57142857142857,770.4776785714286,1854.9,32.57142857142857,770.4776785714286,1954.9,33.57142857142857,769.4776785714286,2054.9,33.57142857142857,768.4776785714286,2156.4,33.57142857142857,768.4776785714286,2261,33.57142857142857,768.4776785714286,2361.1,33.57142857142857,768.4776785714286,2465.3,34.57142857142857,768.4776785714286,2567.8,34.57142857142857,766.4776785714286,2670.4,34.57142857142857,766.4776785714286,2770.8,34.57142857142857,766.4776785714286,2874.7,34.57142857142857,766.4776785714286,2974.8,35.57142857142857,766.4776785714286,3075,35.57142857142857,766.4776785714286,3176.8,35.57142857142857,766.4776785714286,3281.5,35.57142857142857,766.4776785714286,3385.8,35.57142857142857,766.4776785714286,3491.2,36.57142857142857,764.4776785714286,3594.6,36.57142857142857,764.4776785714286,3695.9,23.57142857142857,766.4776785714286,3799.9,23.57142857142857,766.4776785714286,3900.7,23.57142857142857,766.4776785714286,4005.1,23.57142857142857,766.4776785714286,4105.3,23.57142857142857,766.4776785714286,4211.5,23.57142857142857,766.4776785714286,4315.3,23.57142857142857,766.4776785714286,4415.8,23.57142857142857,766.4776785714286,4520.6,23.57142857142857,766.4776785714286,4626.2,23.57142857142857,766.4776785714286,4731.1,23.57142857142857,766.4776785714286,4834.3,23.57142857142857,766.4776785714286,4935.1]","[1446.7,1446.7,1000,0,446.7,""oops"",""down"",""left"",""good_move"",3991.6,2544.6,2169.5,1447,375.1,""smooth"",""down"",""down"",""good_move"",6537,2544.9,2164,3992.1,380.9,""oops"",""down"",""left"",""good_move"",12718.5,6181.2,2331.2,9964.4,422.9,""smooth"",""down"",""down"",""good_move""]","",""
"2111","","<div style=""width:500px;"">
  <p>What determined the result of this run?</p>
  </div>","59","html-slider-response","65","631531","0.0-5.0-1.11","100","1","2025-07-16 10:25:35","1f75c3e559b7213887762d5229550c2b","90.212.166.118","Mozilla/5.0 (Windows NT 10.0; Win64; x64) AppleWebKit/537.36 (KHTML, like Gecko) Chrome/138.0.0.0 Safari/537.36","WebKit","Chrome","138.0.0.0","Windows","10.0","https://app.prolific.com/","en-GB,en-US;q=0.9,en;q=0.8","59dd90f6e75b450001a68dac","686e379bc37a29ffa5cdc956","68777d4bc6cda202605225d2","1","1","59dd90f6e75b450001a68dac","1","1","2025-07-16T10:36:16.126Z","","","","","","","","","","","AttribQ","","50","","","","","","","","","","","","","","","","","","","","","","","","","","","","",""
"1799","","<div style=""width:500px;"">
  <p>How much control did you have over the ball?</p>
  </div>","42","html-slider-response","66","633331","0.0-5.0-2.11","100","1","2025-07-16 10:25:35","1f75c3e559b7213887762d5229550c2b","90.212.166.118","Mozilla/5.0 (Windows NT 10.0; Win64; x64) AppleWebKit/537.36 (KHTML, like Gecko) Chrome/138.0.0.0 Safari/537.36","WebKit","Chrome","138.0.0.0","Windows","10.0","https://app.prolific.com/","en-GB,en-US;q=0.9,en;q=0.8","59dd90f6e75b450001a68dac","686e379bc37a29ffa5cdc956","68777d4bc6cda202605225d2","1","1","59dd90f6e75b450001a68dac","1","1","2025-07-16T10:36:17.926Z","","","","","","","","","","","ControlQ","","50","","","","","","","","","","","","","","","","","","","","","","","","","","","","",""
"3009","","<div style=""width:500px;"">
  <p>How would you describe your current emotional state?</p>
  </div>","63","html-slider-response","67","636341","0.0-5.0-3.11","100","1","2025-07-16 10:25:35","1f75c3e559b7213887762d5229550c2b","90.212.166.118","Mozilla/5.0 (Windows NT 10.0; Win64; x64) AppleWebKit/537.36 (KHTML, like Gecko) Chrome/138.0.0.0 Safari/537.36","WebKit","Chrome","138.0.0.0","Windows","10.0","https://app.prolific.com/","en-GB,en-US;q=0.9,en;q=0.8","59dd90f6e75b450001a68dac","686e379bc37a29ffa5cdc956","68777d4bc6cda202605225d2","1","1","59dd90f6e75b450001a68dac","1","1","2025-07-16T10:36:20.936Z","","","","","","","","","","","StressQ","","50","","","","","","","","","","","","","","","","","","","","","","","","","","","","",""
"2184","","<div style=""width:500px;"">
  <p>What best describes how you currently feel?</p>
  </div>","33","html-slider-response","68","638525","0.0-5.0-4.11","100","1","2025-07-16 10:25:35","1f75c3e559b7213887762d5229550c2b","90.212.166.118","Mozilla/5.0 (Windows NT 10.0; Win64; x64) AppleWebKit/537.36 (KHTML, like Gecko) Chrome/138.0.0.0 Safari/537.36","WebKit","Chrome","138.0.0.0","Windows","10.0","https://app.prolific.com/","en-GB,en-US;q=0.9,en;q=0.8","59dd90f6e75b450001a68dac","686e379bc37a29ffa5cdc956","68777d4bc6cda202605225d2","1","1","59dd90f6e75b450001a68dac","1","1","2025-07-16T10:36:23.120Z","","","","","","","","","","","MotivationQ","","50","","","","","","","","","","","","","","","","","","","","","","","","","","","","",""
"","","","","ctl-task-cpt","69","658276","0.0-5.0-0.12","100","1","2025-07-16 10:25:35","1f75c3e559b7213887762d5229550c2b","90.212.166.118","Mozilla/5.0 (Windows NT 10.0; Win64; x64) AppleWebKit/537.36 (KHTML, like Gecko) Chrome/138.0.0.0 Safari/537.36","WebKit","Chrome","138.0.0.0","Windows","10.0","https://app.prolific.com/","en-GB,en-US;q=0.9,en;q=0.8","59dd90f6e75b450001a68dac","686e379bc37a29ffa5cdc956","68777d4bc6cda202605225d2","1","1","59dd90f6e75b450001a68dac","1","1","2025-07-16T10:36:42.871Z","","","","","","","","","","","","","","win-only","3","g1:SW,g2:NE","0.7","13","0","647327.3","2004.1","7008.5","16731.5","1","4","4","6","1","1","1","2","1","0.015151515151515152","1854.8","3000","1435","[""down"",""left""]","{""num_key_presses"":4,""num_perfect"":3,""num_errors"":0,""num_randdir"":1,""num_randdir_good_moves"":1,""num_whilered"":0,""num_whileblue"":0,""num_blue"":0,""num_good_moves"":4}","[412.57142857142856,421.47767857142856,0.3,412.57142857142856,421.47767857142856,101.6,412.57142857142856,421.47767857142856,201.8,412.57142857142856,421.47767857142856,306.7,412.57142857142856,421.47767857142856,411.2,412.57142857142856,421.47767857142856,511.9,377.57142857142856,451.47767857142856,612.2,319.57142857142856,494.47767857142856,713,246.57142857142856,555.4776785714286,816.9,201.57142857142856,603.4776785714286,918.7,139.57142857142856,687.4776785714286,1021.9,102.57142857142857,730.4776785714286,1122.3,88.57142857142857,751.4776785714286,1225.3,88.57142857142857,751.4776785714286,1326.5,88.57142857142857,751.4776785714286,1427.1,88.57142857142857,751.4776785714286,1531.7,88.57142857142857,751.4776785714286,1633.4,88.57142857142857,751.4776785714286,1739.4,88.57142857142857,751.4776785714286,1841.8,88.57142857142857,751.4776785714286,1947.1,88.57142857142857,751.4776785714286,2053.3,24.57142857142857,684.4776785714286,2157.2,-96.42857142857143,572.4776785714286,2261.6,-95.42857142857143,540.4776785714286,2362.7,-112.42857142857143,525.4776785714286,2467.1,-119.42857142857143,524.4776785714286,2572.9,-119.42857142857143,524.4776785714286,2676.3,-119.42857142857143,524.4776785714286,2777,-119.42857142857143,520.4776785714286,2881.9,-129.42857142857144,520.4776785714286,2982.6,-129.42857142857144,520.4776785714286,3083.4,-129.42857142857144,520.4776785714286,3188.6,-129.42857142857144,520.4776785714286,3292.8,-129.42857142857144,520.4776785714286,3397.6,-129.42857142857144,520.4776785714286,3498.7,-129.42857142857144,520.4776785714286,3603.5,-129.42857142857144,520.4776785714286,3706.3,-129.42857142857144,520.4776785714286,3807.1,-129.42857142857144,520.4776785714286,3912.3,-129.42857142857144,520.4776785714286,4012.5,-129.42857142857144,520.4776785714286,4116.8,-129.42857142857144,520.4776785714286,4216.8,-129.42857142857144,520.4776785714286,4322.4,-129.42857142857144,520.4776785714286,4428,-129.42857142857144,520.4776785714286,4528.2,-129.42857142857144,520.4776785714286,4631.3,-129.42857142857144,520.4776785714286,4731.5,-129.42857142857144,520.4776785714286,4831.5,-129.42857142857144,520.4776785714286,4931.9]","[1464.4,1464.4,1000,0,464.4,""smooth"",""down"",""down"",""good_move"",3864.2,2399.5,2034,1464.7,365.5,""smooth"",""down"",""down"",""good_move"",7082.8,3218.3,2843.1,3864.5,375.2,""smooth"",""left"",""left"",""good_move"",9633.4,2550.2,2153.5,7083.2,396.7,""oops"",""left"",""left"",""good_move""]","",""
"2406","","<div style=""width:500px;"">
  <p>What determined the result of this run?</p>
  </div>","58","html-slider-response","70","660683","0.0-5.0-1.12","100","1","2025-07-16 10:25:35","1f75c3e559b7213887762d5229550c2b","90.212.166.118","Mozilla/5.0 (Windows NT 10.0; Win64; x64) AppleWebKit/537.36 (KHTML, like Gecko) Chrome/138.0.0.0 Safari/537.36","WebKit","Chrome","138.0.0.0","Windows","10.0","https://app.prolific.com/","en-GB,en-US;q=0.9,en;q=0.8","59dd90f6e75b450001a68dac","686e379bc37a29ffa5cdc956","68777d4bc6cda202605225d2","1","1","59dd90f6e75b450001a68dac","1","1","2025-07-16T10:36:45.278Z","","","","","","","","","","","AttribQ","","50","","","","","","","","","","","","","","","","","","","","","","","","","","","","",""
"3075","","<div style=""width:500px;"">
  <p>How much control did you have over the ball?</p>
  </div>","100","html-slider-response","71","663759","0.0-5.0-2.12","100","1","2025-07-16 10:25:35","1f75c3e559b7213887762d5229550c2b","90.212.166.118","Mozilla/5.0 (Windows NT 10.0; Win64; x64) AppleWebKit/537.36 (KHTML, like Gecko) Chrome/138.0.0.0 Safari/537.36","WebKit","Chrome","138.0.0.0","Windows","10.0","https://app.prolific.com/","en-GB,en-US;q=0.9,en;q=0.8","59dd90f6e75b450001a68dac","686e379bc37a29ffa5cdc956","68777d4bc6cda202605225d2","1","1","59dd90f6e75b450001a68dac","1","1","2025-07-16T10:36:48.354Z","","","","","","","","","","","ControlQ","","50","","","","","","","","","","","","","","","","","","","","","","","","","","","","",""
"2945","","<div style=""width:500px;"">
  <p>How would you describe your current emotional state?</p>
  </div>","64","html-slider-response","72","666705","0.0-5.0-3.12","100","1","2025-07-16 10:25:35","1f75c3e559b7213887762d5229550c2b","90.212.166.118","Mozilla/5.0 (Windows NT 10.0; Win64; x64) AppleWebKit/537.36 (KHTML, like Gecko) Chrome/138.0.0.0 Safari/537.36","WebKit","Chrome","138.0.0.0","Windows","10.0","https://app.prolific.com/","en-GB,en-US;q=0.9,en;q=0.8","59dd90f6e75b450001a68dac","686e379bc37a29ffa5cdc956","68777d4bc6cda202605225d2","1","1","59dd90f6e75b450001a68dac","1","1","2025-07-16T10:36:51.300Z","","","","","","","","","","","StressQ","","50","","","","","","","","","","","","","","","","","","","","","","","","","","","","",""
"2199","","<div style=""width:500px;"">
  <p>What best describes how you currently feel?</p>
  </div>","31","html-slider-response","73","668905","0.0-5.0-4.12","100","1","2025-07-16 10:25:35","1f75c3e559b7213887762d5229550c2b","90.212.166.118","Mozilla/5.0 (Windows NT 10.0; Win64; x64) AppleWebKit/537.36 (KHTML, like Gecko) Chrome/138.0.0.0 Safari/537.36","WebKit","Chrome","138.0.0.0","Windows","10.0","https://app.prolific.com/","en-GB,en-US;q=0.9,en;q=0.8","59dd90f6e75b450001a68dac","686e379bc37a29ffa5cdc956","68777d4bc6cda202605225d2","1","1","59dd90f6e75b450001a68dac","1","1","2025-07-16T10:36:53.500Z","","","","","","","","","","","MotivationQ","","50","","","","","","","","","","","","","","","","","","","","","","","","","","","","",""
"","","","","ctl-task-cpt","74","707021","0.0-5.0-0.13","100","1","2025-07-16 10:25:35","1f75c3e559b7213887762d5229550c2b","90.212.166.118","Mozilla/5.0 (Windows NT 10.0; Win64; x64) AppleWebKit/537.36 (KHTML, like Gecko) Chrome/138.0.0.0 Safari/537.36","WebKit","Chrome","138.0.0.0","Windows","10.0","https://app.prolific.com/","en-GB,en-US;q=0.9,en;q=0.8","59dd90f6e75b450001a68dac","686e379bc37a29ffa5cdc956","68777d4bc6cda202605225d2","1","1","59dd90f6e75b450001a68dac","1","1","2025-07-16T10:37:31.616Z","","","","","","","","","","","","","","win-only","2","g1:SE,g2:NW","0.8","14","0","677707","921.7","5925.6","35097.6","1","4","8","6","2","-8","-8","0","2","0","1175.7","3000","-2630","[""left"",""up""]","{""num_key_presses"":8,""num_perfect"":6,""num_errors"":0,""num_randdir"":2,""num_randdir_good_moves"":0,""num_whilered"":0,""num_whileblue"":0,""num_blue"":1,""num_good_moves"":6}","[424.57142857142856,413.47767857142856,0.3,424.57142857142856,413.47767857142856,107.1,424.57142857142856,413.47767857142856,208.5,424.57142857142856,413.47767857142856,310,424.57142857142856,413.47767857142856,414.9,421.57142857142856,413.47767857142856,528.1,380.57142857142856,402.47767857142856,628.8,196.57142857142856,254.47767857142856,729.2,67.57142857142857,144.47767857142856,834.5,57.57142857142857,109.47767857142857,936.2,49.57142857142857,83.47767857142857,1042.8,73.57142857142857,71.47767857142857,1143.5,73.57142857142857,71.47767857142857,1243.8,73.57142857142857,74.47767857142857,1343.9,-5.428571428571431,190.47767857142856,1444.3,-66.42857142857143,238.47767857142856,1546.2,-66.42857142857143,234.47767857142856,1648.7,-63.42857142857143,231.47767857142856,1748.8,-54.42857142857143,230.47767857142856,1849.2,-56.42857142857143,258.47767857142856,1949.5,-56.42857142857143,258.47767857142856,2053.6,-56.42857142857143,258.47767857142856,2159.1,-56.42857142857143,258.47767857142856,2260.8,-56.42857142857143,258.47767857142856,2363.9,-56.42857142857143,258.47767857142856,2464.5,-56.42857142857143,258.47767857142856,2577.8,-56.42857142857143,258.47767857142856,2678.1,-56.42857142857143,258.47767857142856,2778.7,-56.42857142857143,258.47767857142856,2879.4,-56.42857142857143,258.47767857142856,2979.5,-56.42857142857143,258.47767857142856,3083.9,-56.42857142857143,258.47767857142856,3184.2,-56.42857142857143,258.47767857142856,3293,-56.42857142857143,258.47767857142856,3394.4,-56.42857142857143,258.47767857142856,3499.4,-56.42857142857143,258.47767857142856,3610.8,-56.42857142857143,258.47767857142856,3711.2,-56.42857142857143,258.47767857142856,3814,-56.42857142857143,258.47767857142856,3914.3,-56.42857142857143,258.47767857142856,4019.3,-56.42857142857143,258.47767857142856,4119.3,-56.42857142857143,258.47767857142856,4227.9,-56.42857142857143,258.47767857142856,4329,-56.42857142857143,258.47767857142856,4429.1,-56.42857142857143,258.47767857142856,4529.3,-56.42857142857143,258.47767857142856,4635.3,-56.42857142857143,258.47767857142856,4743.6,-56.42857142857143,258.47767857142856,4849.4,-56.42857142857143,258.47767857142856,4949.4]","[1447.2,1447.2,1000,0,447.2,""smooth"",""up"",""up"",""good_move"",4853.2,3405.8,3006.3,1447.5,399.4,""smooth"",""up"",""up"",""good_move"",7687.7,2834.3,2444.8,4853.4,389.5,""smooth"",""up"",""up"",""good_move"",14487.3,6799.3,2203.4,11822,461.9,""smooth"",""left"",""left"",""good_move"",18036.7,3549.2,3103.7,14487.5,445.6,""smooth"",""left"",""left"",""good_move"",21015.4,2978.4,2550.3,18037,428.1,""oops"",""left"",""right"",""bad_move"",23943.5,2927.8,2566.5,21015.7,361.3,""smooth"",""left"",""left"",""good_move"",26239.2,2295.3,1924.4,23943.9,370.9,""oops"",""left"",""right"",""bad_move""]","",""
"5359","","<div style=""width:500px;"">
  <p>What determined the result of this run?</p>
  </div>","48","html-slider-response","75","712382","0.0-5.0-1.13","100","1","2025-07-16 10:25:35","1f75c3e559b7213887762d5229550c2b","90.212.166.118","Mozilla/5.0 (Windows NT 10.0; Win64; x64) AppleWebKit/537.36 (KHTML, like Gecko) Chrome/138.0.0.0 Safari/537.36","WebKit","Chrome","138.0.0.0","Windows","10.0","https://app.prolific.com/","en-GB,en-US;q=0.9,en;q=0.8","59dd90f6e75b450001a68dac","686e379bc37a29ffa5cdc956","68777d4bc6cda202605225d2","1","1","59dd90f6e75b450001a68dac","1","1","2025-07-16T10:37:36.977Z","","","","","","","","","","","AttribQ","","50","","","","","","","","","","","","","","","","","","","","","","","","","","","","",""
"5143","","<div style=""width:500px;"">
  <p>How much control did you have over the ball?</p>
  </div>","19","html-slider-response","76","717526","0.0-5.0-2.13","100","1","2025-07-16 10:25:35","1f75c3e559b7213887762d5229550c2b","90.212.166.118","Mozilla/5.0 (Windows NT 10.0; Win64; x64) AppleWebKit/537.36 (KHTML, like Gecko) Chrome/138.0.0.0 Safari/537.36","WebKit","Chrome","138.0.0.0","Windows","10.0","https://app.prolific.com/","en-GB,en-US;q=0.9,en;q=0.8","59dd90f6e75b450001a68dac","686e379bc37a29ffa5cdc956","68777d4bc6cda202605225d2","1","1","59dd90f6e75b450001a68dac","1","1","2025-07-16T10:37:42.121Z","","","","","","","","","","","ControlQ","","50","","","","","","","","","","","","","","","","","","","","","","","","","","","","",""
"2324","","<div style=""width:500px;"">
  <p>How would you describe your current emotional state?</p>
