"rt","response_timestamp","stimulus","response","trial_type","trial_index","time_elapsed","internal_node_id","run_id","condition","recorded_at","source_code_version","ip","user_agent","device","browser","browser_version","platform","platform_version","referer","accept_language","PROLIFIC_PID","STUDY_ID","SESSION_ID","WEEK","prolific_id","week","realtime","success","responses","item_order","radio_event_ids","radio_event_times","key_event_times","mouse_event_times","straightlining","zigzagging","honeypot","eventType","view_history","slider_start","which_type","canvas_config","goals_layout","control_level","trial_number","tutorial_trial_number","trial_start_time","phase1_start_time","phase2_start_time","phase3_start_time","goal_1_value","goal_1_distance","goal_2_value","goal_2_distance","goal_selected","outcome","outcome_total","participant_final_score","participant_initial_score","participant_final_score_prop","goal_choice_rt","allocated_time","allocated_time_remaining","goal_direction","counts","mouse_movements","key_presses","question_order","question_id"
"58398","1752050641776","<p style='font-size:40px;line-height:1.25'><strong>Welcome to the experiment!</strong></p><p style='font-size:1.1em;line-height:1.25'>Thank you for participanting in our experiment again! You will be asked to play the Dysfunctional Ball Game again. We will briefly recap the rules before we start.</p><p style='font-size:1.1em;line-height:1.25'>Press <strong>Next</strong> to continue.</p>","0","custom-html-button-response","0","58398","0.0-0.0","17","1","2025-07-09 08:43:02","01610cd0009c79a99da7d0a3353eb402","86.1.242.218","Mozilla/5.0 (Macintosh; Intel Mac OS X 10_15_7) AppleWebKit/537.36 (KHTML, like Gecko) Chrome/137.0.0.0 Safari/537.36","Macintosh","Chrome","137.0.0.0","OS X","10_15_7","https://app.prolific.com/","en-GB,en-US;q=0.9,en;q=0.8","6620f5de5edae6e60f556986","683db7602f5db6a34d12d064","686e2b4b318a93835664c88c","1","6620f5de5edae6e60f556986","1","2025-07-09T08:44:01.778Z","","","","","","","","","","","","","","","","","","","","","","","","","","","","","","","","","","","","","","","","","",""
"2217","","","","fullscreen","1","61620","0.0-1.0","17","1","2025-07-09 08:43:02","01610cd0009c79a99da7d0a3353eb402","86.1.242.218","Mozilla/5.0 (Macintosh; Intel Mac OS X 10_15_7) AppleWebKit/537.36 (KHTML, like Gecko) Chrome/137.0.0.0 Safari/537.36","Macintosh","Chrome","137.0.0.0","OS X","10_15_7","https://app.prolific.com/","en-GB,en-US;q=0.9,en;q=0.8","6620f5de5edae6e60f556986","683db7602f5db6a34d12d064","686e2b4b318a93835664c88c","1","6620f5de5edae6e60f556986","1","","true","","","","","","","","","","","","","","","","","","","","","","","","","","","","","","","","","","","","","","","","",""
"1160","1752050646160","<p style='font-size:1.1em;line-height:1.25'>In the following, we will ask you a few questions relating to your feelings in the last 24 hours.<br></p><p style='font-size:1.1em;line-height:1.25'>Press the <strong>Next</strong> button to continue.</p>","0","custom-html-button-response","2","62782","0.0-2.0-0.0","17","1","2025-07-09 08:43:02","01610cd0009c79a99da7d0a3353eb402","86.1.242.218","Mozilla/5.0 (Macintosh; Intel Mac OS X 10_15_7) AppleWebKit/537.36 (KHTML, like Gecko) Chrome/137.0.0.0 Safari/537.36","Macintosh","Chrome","137.0.0.0","OS X","10_15_7","https://app.prolific.com/","en-GB,en-US;q=0.9,en;q=0.8","6620f5de5edae6e60f556986","683db7602f5db6a34d12d064","686e2b4b318a93835664c88c","1","6620f5de5edae6e60f556986","1","2025-07-09T08:44:06.161Z","","","","","","","","","","","","","","","","","","","","","","","","","","","","","","","","","","","","","","","","","",""
"40951.80000001192","","","","survey-template","3","103740","0.0-2.0-1.0","17","1","2025-07-09 08:43:02","01610cd0009c79a99da7d0a3353eb402","86.1.242.218","Mozilla/5.0 (Macintosh; Intel Mac OS X 10_15_7) AppleWebKit/537.36 (KHTML, like Gecko) Chrome/137.0.0.0 Safari/537.36","Macintosh","Chrome","137.0.0.0","OS X","10_15_7","https://app.prolific.com/","en-GB,en-US;q=0.9,en;q=0.8","6620f5de5edae6e60f556986","683db7602f5db6a34d12d064","686e2b4b318a93835664c88c","1","6620f5de5edae6e60f556986","1","2025-07-09T08:44:47.119Z","","{""Q01"":""1"",""Q02"":""1"",""Q03"":""0"",""Q04"":""2"",""Q05"":""2"",""Q06"":""2"",""Q07"":""2"",""Q08"":""0"",""Q09"":""1"",""Q10"":""3"",""Q11"":""4"",""Q12"":""1"",""Q13"":""5"",""Q14"":""0"",""Q15"":""1"",""Q16"":""1"",""Q17"":""2"",""Q18"":""2"",""Q19"":""0"",""Q20"":""2"",""Q21"":""1"",""Q22"":""0""}","[0,1,2,3,4,5,6,7,8,9,10,11,12,13,14,15,16,17,18,19,20,21]","[""Q01"",""Q02"",""Q03"",""Q04"",""Q05"",""Q06"",""Q07"",""Q08"",""Q09"",""Q09"",""Q09"",""Q10"",""Q10"",""Q11"",""Q12"",""Q13"",""Q14"",""Q15"",""Q16"",""Q17"",""Q18"",""Q19"",""Q20"",""Q21"",""Q22""]","[3277.899999976158,5228.600000023842,7259.699999988079,8011.199999988079,9477.300000011921,11245.199999988079,13044.399999976158,14226.699999988079,15411.5,16644.80000001192,17195,18261.69999998808,19378.899999976158,20778.100000023842,22394.899999976158,23760.399999976158,25511,27245.80000001192,29065.69999998808,30677.5,31527.899999976158,33244.69999998808,36295.39999997616,38760.80000001192,40227.69999998808]","[]","[0.19999998807907104,3277.899999976158,5228.600000023842,6061,7259.699999988079,8011.199999988079,9477.300000011921,11245.199999988079,13044.399999976158,14226.699999988079,15411.5,16644.80000001192,17195,18261.69999998808,19378.899999976158,20778.100000023842,22394.899999976158,23760.399999976158,25511,27245.80000001192,29065.69999998808,30677.5,31527.899999976158,33244.69999998808,36295.39999997616,38760.80000001192,40227.69999998808,40945.5]","0.3181818181818182","0.38095238095238093","0","drsp","","","","","","","","","","","","","","","","","","","","","","","","","","","","","","",""
"9007.400000035763","","","","survey-template","4","112750","0.0-2.0-2.0","17","1","2025-07-09 08:43:02","01610cd0009c79a99da7d0a3353eb402","86.1.242.218","Mozilla/5.0 (Macintosh; Intel Mac OS X 10_15_7) AppleWebKit/537.36 (KHTML, like Gecko) Chrome/137.0.0.0 Safari/537.36","Macintosh","Chrome","137.0.0.0","OS X","10_15_7","https://app.prolific.com/","en-GB,en-US;q=0.9,en;q=0.8","6620f5de5edae6e60f556986","683db7602f5db6a34d12d064","686e2b4b318a93835664c88c","1","6620f5de5edae6e60f556986","1","2025-07-09T08:44:56.129Z","","{""Q01"":""3"",""Q02"":""4"",""Q03"":""3""}","[0,1,2]","[""Q01"",""Q02"",""Q03""]","[4889.200000047684,5622.200000047684,8388.100000023842]","[]","[2988,4154.700000047684,4889.200000047684,5622.200000047684,7122.400000035763,7971.700000047684,8388.100000023842,9006.100000023842]","0.6666666666666666","0","0","stress","","","","","","","","","","","","","","","","","","","","","","","","","","","","","","",""
"8713","","","","instructions","5","121464","0.0-3.0-0.0","17","1","2025-07-09 08:43:02","01610cd0009c79a99da7d0a3353eb402","86.1.242.218","Mozilla/5.0 (Macintosh; Intel Mac OS X 10_15_7) AppleWebKit/537.36 (KHTML, like Gecko) Chrome/137.0.0.0 Safari/537.36","Macintosh","Chrome","137.0.0.0","OS X","10_15_7","https://app.prolific.com/","en-GB,en-US;q=0.9,en;q=0.8","6620f5de5edae6e60f556986","683db7602f5db6a34d12d064","686e2b4b318a93835664c88c","1","6620f5de5edae6e60f556986","1","","","","","","","","","","","","","[{""page_index"":0,""viewing_time"":8713}]","","","","","","","","","","","","","","","","","","","","","","","","","","","","","",""
"6281","","<p>Before you start with this game please answer the following three questions yourself. </p>
  <p>Through this game, we measure several aspects of your cognitive performance, such as reaction times, multi-tasking capabilities </p>
  <p>and the ability to assess the situation you are in.</p>
  <p></p>
  <p><b>How good do you usually are in such tasks?</b></p>","71","html-slider-response","6","127748","0.0-4.0-0.0","17","1","2025-07-09 08:43:02","01610cd0009c79a99da7d0a3353eb402","86.1.242.218","Mozilla/5.0 (Macintosh; Intel Mac OS X 10_15_7) AppleWebKit/537.36 (KHTML, like Gecko) Chrome/137.0.0.0 Safari/537.36","Macintosh","Chrome","137.0.0.0","OS X","10_15_7","https://app.prolific.com/","en-GB,en-US;q=0.9,en;q=0.8","6620f5de5edae6e60f556986","683db7602f5db6a34d12d064","686e2b4b318a93835664c88c","1","6620f5de5edae6e60f556986","1","2025-07-09T08:45:11.127Z","","","","","","","","","","","PreSkillQ","","50","","","","","","","","","","","","","","","","","","","","","","","","","","","","",""
"2646","","<div style=""width:500px;"">
  <p>How well do you think you will perform in this task compared to other participants?</p>
  </div>","58","html-slider-response","7","130397","0.0-4.0-1.0","17","1","2025-07-09 08:43:02","01610cd0009c79a99da7d0a3353eb402","86.1.242.218","Mozilla/5.0 (Macintosh; Intel Mac OS X 10_15_7) AppleWebKit/537.36 (KHTML, like Gecko) Chrome/137.0.0.0 Safari/537.36","Macintosh","Chrome","137.0.0.0","OS X","10_15_7","https://app.prolific.com/","en-GB,en-US;q=0.9,en;q=0.8","6620f5de5edae6e60f556986","683db7602f5db6a34d12d064","686e2b4b318a93835664c88c","1","6620f5de5edae6e60f556986","1","2025-07-09T08:45:13.776Z","","","","","","","","","","","PrePerfQ","","50","","","","","","","","","","","","","","","","","","","","","","","","","","","","",""
"4232","","<div style=""width:500px;"">
  <p>What best describes how you currently feel?</p>
  </div>","2","html-slider-response","8","134631","0.0-4.0-2.0","17","1","2025-07-09 08:43:02","01610cd0009c79a99da7d0a3353eb402","86.1.242.218","Mozilla/5.0 (Macintosh; Intel Mac OS X 10_15_7) AppleWebKit/537.36 (KHTML, like Gecko) Chrome/137.0.0.0 Safari/537.36","Macintosh","Chrome","137.0.0.0","OS X","10_15_7","https://app.prolific.com/","en-GB,en-US;q=0.9,en;q=0.8","6620f5de5edae6e60f556986","683db7602f5db6a34d12d064","686e2b4b318a93835664c88c","1","6620f5de5edae6e60f556986","1","2025-07-09T08:45:18.010Z","","","","","","","","","","","PreMotivationQ","","50","","","","","","","","","","","","","","","","","","","","","","","","","","","","",""
"","","","","ctl-task-cpt","9","171174","0.0-5.0-0.0","17","1","2025-07-09 08:43:02","01610cd0009c79a99da7d0a3353eb402","86.1.242.218","Mozilla/5.0 (Macintosh; Intel Mac OS X 10_15_7) AppleWebKit/537.36 (KHTML, like Gecko) Chrome/137.0.0.0 Safari/537.36","Macintosh","Chrome","137.0.0.0","OS X","10_15_7","https://app.prolific.com/","en-GB,en-US;q=0.9,en;q=0.8","6620f5de5edae6e60f556986","683db7602f5db6a34d12d064","686e2b4b318a93835664c88c","1","6620f5de5edae6e60f556986","1","2025-07-09T08:45:54.553Z","","","","","","","","","","","","","","win-only","3","g1:SW,g2:NE","1","1","0","135768.5","1545.7","6546.6","33531.3","1","4","8","6","2","8","7","7","0","0.05303030303030303","1783","3000","1010","[""up"",""right""]","{""num_key_presses"":7,""num_perfect"":6,""num_errors"":1,""num_randdir"":0,""num_randdir_good_moves"":0,""num_whilered"":0,""num_whileblue"":0,""num_blue"":3,""num_good_moves"":6}","[808,811.796875,0.2,808,811.796875,100.4,808,811.796875,200.5,808,811.796875,305.8,808,811.796875,405.8,782,841.796875,505.8,642,987.796875,611,802,883.796875,711.2,1358,363.796875,811.4,1358,363.796875,915.2,1284,409.796875,1015.6,1458,207.796875,1116.1,1494,175.796875,1221.3,1494,175.796875,1325,1494,175.796875,1425.7,1494,175.796875,1530.4,1492,177.796875,1630.8,1492,173.796875,1735.9,1492,173.796875,1840.3,1492,173.796875,1941,1492,173.796875,2045.9,1492,173.796875,2146.1,1492,173.796875,2250.2,1492,173.796875,2350.9,1492,173.796875,2450.8,1492,173.796875,2555.7,1492,173.796875,2661.3,1492,173.796875,2765.7,1492,173.796875,2870.9,1492,173.796875,2976.1,1492,173.796875,3080.4,1492,173.796875,3181.4,1492,173.796875,3284.9,1492,173.796875,3384.9,1492,173.796875,3484.9,1492,173.796875,3585.6,1492,173.796875,3690.3,1492,173.796875,3791.5,1492,173.796875,3895.8,1492,173.796875,3996.5,1492,173.796875,4099.6,1492,173.796875,4199.6,1492,173.796875,4300.9,1492,173.796875,4405.5,1492,173.796875,4511,1492,173.796875,4611.3,1492,173.796875,4715.2,1492,173.796875,4816.3,1492,173.796875,4916.4]","[503.1,503.1,1000,0,-496.9,""error"",""-"",""-"",""no_move"",4417.3,3913.9,2558.4,1504.9,354,""smooth"",""up"",""up"",""good_move"",10315.9,5898.1,2240.8,7754.4,320.7,""smooth"",""up"",""up"",""good_move"",12670.1,2354.1,2014.4,10316,339.7,""smooth"",""up"",""up"",""good_move"",14486.6,1816.3,1490.6,12670.3,325.7,""smooth"",""right"",""right"",""good_move"",20949,6462,2475.1,18164.5,309.4,""smooth"",""right"",""right"",""good_move"",26887,5937.9,1884.4,24629.5,373.1,""smooth"",""right"",""right"",""good_move""]","",""
"3455","","<div style=""width:500px;"">
  <p>What determined the result of this run?</p>
  </div>","58","html-slider-response","10","174631","0.0-5.0-1.0","17","1","2025-07-09 08:43:02","01610cd0009c79a99da7d0a3353eb402","86.1.242.218","Mozilla/5.0 (Macintosh; Intel Mac OS X 10_15_7) AppleWebKit/537.36 (KHTML, like Gecko) Chrome/137.0.0.0 Safari/537.36","Macintosh","Chrome","137.0.0.0","OS X","10_15_7","https://app.prolific.com/","en-GB,en-US;q=0.9,en;q=0.8","6620f5de5edae6e60f556986","683db7602f5db6a34d12d064","686e2b4b318a93835664c88c","1","6620f5de5edae6e60f556986","1","2025-07-09T08:45:58.010Z","","","","","","","","","","","AttribQ","","50","","","","","","","","","","","","","","","","","","","","","","","","","","","","",""
"2647","","<div style=""width:500px;"">
  <p>How much control did you have over the ball?</p>
  </div>","81","html-slider-response","11","177279","0.0-5.0-2.0","17","1","2025-07-09 08:43:02","01610cd0009c79a99da7d0a3353eb402","86.1.242.218","Mozilla/5.0 (Macintosh; Intel Mac OS X 10_15_7) AppleWebKit/537.36 (KHTML, like Gecko) Chrome/137.0.0.0 Safari/537.36","Macintosh","Chrome","137.0.0.0","OS X","10_15_7","https://app.prolific.com/","en-GB,en-US;q=0.9,en;q=0.8","6620f5de5edae6e60f556986","683db7602f5db6a34d12d064","686e2b4b318a93835664c88c","1","6620f5de5edae6e60f556986","1","2025-07-09T08:46:00.658Z","","","","","","","","","","","ControlQ","","50","","","","","","","","","","","","","","","","","","","","","","","","","","","","",""
"4133","","<div style=""width:500px;"">
  <p>How would you describe your current emotional state?</p>
  </div>","44","html-slider-response","12","181413","0.0-5.0-3.0","17","1","2025-07-09 08:43:02","01610cd0009c79a99da7d0a3353eb402","86.1.242.218","Mozilla/5.0 (Macintosh; Intel Mac OS X 10_15_7) AppleWebKit/537.36 (KHTML, like Gecko) Chrome/137.0.0.0 Safari/537.36","Macintosh","Chrome","137.0.0.0","OS X","10_15_7","https://app.prolific.com/","en-GB,en-US;q=0.9,en;q=0.8","6620f5de5edae6e60f556986","683db7602f5db6a34d12d064","686e2b4b318a93835664c88c","1","6620f5de5edae6e60f556986","1","2025-07-09T08:46:04.792Z","","","","","","","","","","","StressQ","","50","","","","","","","","","","","","","","","","","","","","","","","","","","","","",""
"2581","","<div style=""width:500px;"">
  <p>What best describes how you currently feel?</p>
  </div>","34","html-slider-response","13","183995","0.0-5.0-4.0","17","1","2025-07-09 08:43:02","01610cd0009c79a99da7d0a3353eb402","86.1.242.218","Mozilla/5.0 (Macintosh; Intel Mac OS X 10_15_7) AppleWebKit/537.36 (KHTML, like Gecko) Chrome/137.0.0.0 Safari/537.36","Macintosh","Chrome","137.0.0.0","OS X","10_15_7","https://app.prolific.com/","en-GB,en-US;q=0.9,en;q=0.8","6620f5de5edae6e60f556986","683db7602f5db6a34d12d064","686e2b4b318a93835664c88c","1","6620f5de5edae6e60f556986","1","2025-07-09T08:46:07.375Z","","","","","","","","","","","MotivationQ","","50","","","","","","","","","","","","","","","","","","","","","","","","","","","","",""
"","","","","ctl-task-cpt","14","204081","0.0-5.0-0.1","17","1","2025-07-09 08:43:02","01610cd0009c79a99da7d0a3353eb402","86.1.242.218","Mozilla/5.0 (Macintosh; Intel Mac OS X 10_15_7) AppleWebKit/537.36 (KHTML, like Gecko) Chrome/137.0.0.0 Safari/537.36","Macintosh","Chrome","137.0.0.0","OS X","10_15_7","https://app.prolific.com/","en-GB,en-US;q=0.9,en;q=0.8","6620f5de5edae6e60f556986","683db7602f5db6a34d12d064","686e2b4b318a93835664c88c","1","6620f5de5edae6e60f556986","1","2025-07-09T08:46:27.460Z","","","","","","","","","","","","","","win-only","0","g1:NW,g2:SE","0.9","2","0","185129.9","1149.3","6151.2","17076.9","1","4","4","6","1","1","1","8","7","0.06060606060606061","1701.8","3000","1690","[""left"",""up""]","{""num_key_presses"":4,""num_perfect"":4,""num_errors"":0,""num_randdir"":0,""num_randdir_good_moves"":0,""num_whilered"":0,""num_whileblue"":0,""num_blue"":0,""num_good_moves"":4}","[800,815.796875,0.2,800,815.796875,103.7,800,815.796875,204.9,800,815.796875,307.5,800,815.796875,412.6,800,815.796875,516.2,800,815.796875,617,890,915.796875,721.8,1242,1305.796875,825.4,1250,1311.796875,929.4,1252,1311.796875,1031.9,992,1207.796875,1136.8,380,403.796875,1241.8,380,403.796875,1346.6,182,251.796875,1448.6,64,139.796875,1554.2,64,135.796875,1656.7,64,133.796875,1761.6,64,133.796875,1861.7,64,133.796875,1962.1,64,133.796875,2063.2,64,133.796875,2167.1,64,133.796875,2271.3,64,133.796875,2371.8,64,133.796875,2476.1,64,133.796875,2576.7,64,133.796875,2676.8,64,133.796875,2777.2,64,133.796875,2877.4,64,133.796875,2977.6,64,133.796875,3081.4,64,133.796875,3183.7,64,133.796875,3286.6,64,133.796875,3389.5,64,133.796875,3492.5,64,133.796875,3592.7,64,133.796875,3695.9,64,133.796875,3796.8,64,133.796875,3897,64,133.796875,3998,64,133.796875,4101.6,64,133.796875,4205.2,64,133.796875,4306.2,64,133.796875,4406.3,64,133.796875,4511.1,64,133.796875,4612.9,64,133.796875,4716.7,64,133.796875,4817.7,64,133.796875,4921.8]","[1354.4,1354.4,1000,0,354.4,""smooth"",""up"",""up"",""good_move"",4186.5,2831.9,2398.5,1354.6,433.4,""smooth"",""up"",""up"",""good_move"",7671,3484.4,3200.5,4186.6,283.9,""smooth"",""left"",""left"",""good_move"",10835.1,3163.8,2900.2,7671.3,263.6,""smooth"",""left"",""left"",""good_move""]","",""
"2413","","<div style=""width:500px;"">
  <p>What determined the result of this run?</p>
  </div>","65","html-slider-response","15","206495","0.0-5.0-1.1","17","1","2025-07-09 08:43:02","01610cd0009c79a99da7d0a3353eb402","86.1.242.218","Mozilla/5.0 (Macintosh; Intel Mac OS X 10_15_7) AppleWebKit/537.36 (KHTML, like Gecko) Chrome/137.0.0.0 Safari/537.36","Macintosh","Chrome","137.0.0.0","OS X","10_15_7","https://app.prolific.com/","en-GB,en-US;q=0.9,en;q=0.8","6620f5de5edae6e60f556986","683db7602f5db6a34d12d064","686e2b4b318a93835664c88c","1","6620f5de5edae6e60f556986","1","2025-07-09T08:46:29.874Z","","","","","","","","","","","AttribQ","","50","","","","","","","","","","","","","","","","","","","","","","","","","","","","",""
"1932","","<div style=""width:500px;"">
  <p>How much control did you have over the ball?</p>
  </div>","70","html-slider-response","16","208428","0.0-5.0-2.1","17","1","2025-07-09 08:43:02","01610cd0009c79a99da7d0a3353eb402","86.1.242.218","Mozilla/5.0 (Macintosh; Intel Mac OS X 10_15_7) AppleWebKit/537.36 (KHTML, like Gecko) Chrome/137.0.0.0 Safari/537.36","Macintosh","Chrome","137.0.0.0","OS X","10_15_7","https://app.prolific.com/","en-GB,en-US;q=0.9,en;q=0.8","6620f5de5edae6e60f556986","683db7602f5db6a34d12d064","686e2b4b318a93835664c88c","1","6620f5de5edae6e60f556986","1","2025-07-09T08:46:31.807Z","","","","","","","","","","","ControlQ","","50","","","","","","","","","","","","","","","","","","","","","","","","","","","","",""
"2016","","<div style=""width:500px;"">
  <p>How would you describe your current emotional state?</p>
  </div>","30","html-slider-response","17","210445","0.0-5.0-3.1","17","1","2025-07-09 08:43:02","01610cd0009c79a99da7d0a3353eb402","86.1.242.218","Mozilla/5.0 (Macintosh; Intel Mac OS X 10_15_7) AppleWebKit/537.36 (KHTML, like Gecko) Chrome/137.0.0.0 Safari/537.36","Macintosh","Chrome","137.0.0.0","OS X","10_15_7","https://app.prolific.com/","en-GB,en-US;q=0.9,en;q=0.8","6620f5de5edae6e60f556986","683db7602f5db6a34d12d064","686e2b4b318a93835664c88c","1","6620f5de5edae6e60f556986","1","2025-07-09T08:46:33.824Z","","","","","","","","","","","StressQ","","50","","","","","","","","","","","","","","","","","","","","","","","","","","","","",""
"1866","","<div style=""width:500px;"">
  <p>What best describes how you currently feel?</p>
  </div>","32","html-slider-response","18","212312","0.0-5.0-4.1","17","1","2025-07-09 08:43:02","01610cd0009c79a99da7d0a3353eb402","86.1.242.218","Mozilla/5.0 (Macintosh; Intel Mac OS X 10_15_7) AppleWebKit/537.36 (KHTML, like Gecko) Chrome/137.0.0.0 Safari/537.36","Macintosh","Chrome","137.0.0.0","OS X","10_15_7","https://app.prolific.com/","en-GB,en-US;q=0.9,en;q=0.8","6620f5de5edae6e60f556986","683db7602f5db6a34d12d064","686e2b4b318a93835664c88c","1","6620f5de5edae6e60f556986","1","2025-07-09T08:46:35.691Z","","","","","","","","","","","MotivationQ","","50","","","","","","","","","","","","","","","","","","","","","","","","","","","","",""
"","","","","ctl-task-cpt","19","236531","0.0-5.0-0.2","17","1","2025-07-09 08:43:02","01610cd0009c79a99da7d0a3353eb402","86.1.242.218","Mozilla/5.0 (Macintosh; Intel Mac OS X 10_15_7) AppleWebKit/537.36 (KHTML, like Gecko) Chrome/137.0.0.0 Safari/537.36","Macintosh","Chrome","137.0.0.0","OS X","10_15_7","https://app.prolific.com/","en-GB,en-US;q=0.9,en;q=0.8","6620f5de5edae6e60f556986","683db7602f5db6a34d12d064","686e2b4b318a93835664c88c","1","6620f5de5edae6e60f556986","1","2025-07-09T08:46:59.910Z","","","","","","","","","","","","","","win-only","1","g1:NE,g2:SW","0.8","3","0","213448.3","984.3","5986.7","21205.9","1","4","8","6","2","8","8","16","8","0.12121212121212122","1479.7","3000","1115","[""down"",""left""]","{""num_key_presses"":6,""num_perfect"":5,""num_errors"":0,""num_randdir"":1,""num_randdir_good_moves"":1,""num_whilered"":0,""num_whileblue"":0,""num_blue"":0,""num_good_moves"":6}","[812,803.796875,0.1,812,803.796875,101,812,803.796875,206.3,812,803.796875,307.3,812,803.796875,411.8,812,803.796875,517.9,610,1023.796875,621.3,384,1239.796875,721.4,366,1249.796875,826.3,366,1249.796875,927.1,352,1275.796875,1034.3,302,1369.796875,1134.9,298,1377.796875,1236.3,284,1389.796875,1342,188,1455.796875,1446.3,184,1459.796875,1547.1,184,1459.796875,1651.4,184,1459.796875,1752.6,184,1459.796875,1854.3,184,1459.796875,1956.6,184,1459.796875,2061.6,184,1459.796875,2161.7,184,1459.796875,2266,184,1459.796875,2367.9,184,1459.796875,2468.2,184,1459.796875,2571.3,184,1459.796875,2672.2,184,1459.796875,2776.2,184,1459.796875,2876.7,184,1459.796875,2977,184,1459.796875,3082,184,1459.796875,3182.2,184,1459.796875,3286.5,184,1459.796875,3391.5,184,1459.796875,3491.7,184,1459.796875,3596.1,184,1459.796875,3696.5,184,1459.796875,3796.8,184,1459.796875,3897.3,184,1459.796875,4001.6,184,1459.796875,4104.6,184,1459.796875,4206.6,184,1459.796875,4306.8,184,1459.796875,4406.8,184,1459.796875,4511.4,184,1459.796875,4611.8,184,1459.796875,4712,184,1459.796875,4819.8,184,1459.796875,4921.4]","[1383.2,1383.2,1000,0,383.2,""smooth"",""left"",""left"",""good_move"",4156.6,2773.2,2474.7,1383.5,298.4,""smooth"",""left"",""left"",""good_move"",6614.8,2458,2143.9,4156.8,314.1,""smooth"",""down"",""down"",""good_move"",9953.7,3338.8,3058.3,6614.9,280.5,""smooth"",""left"",""left"",""good_move"",12798.4,2844.6,2542,9953.8,302.6,""oops"",""down"",""down"",""good_move"",15129.4,2330.9,1975.1,12798.5,355.8,""smooth"",""down"",""down"",""good_move""]","",""
"2546","","<div style=""width:500px;"">
  <p>What determined the result of this run?</p>
  </div>","64","html-slider-response","20","239077","0.0-5.0-1.2","17","1","2025-07-09 08:43:02","01610cd0009c79a99da7d0a3353eb402","86.1.242.218","Mozilla/5.0 (Macintosh; Intel Mac OS X 10_15_7) AppleWebKit/537.36 (KHTML, like Gecko) Chrome/137.0.0.0 Safari/537.36","Macintosh","Chrome","137.0.0.0","OS X","10_15_7","https://app.prolific.com/","en-GB,en-US;q=0.9,en;q=0.8","6620f5de5edae6e60f556986","683db7602f5db6a34d12d064","686e2b4b318a93835664c88c","1","6620f5de5edae6e60f556986","1","2025-07-09T08:47:02.457Z","","","","","","","","","","","AttribQ","","50","","","","","","","","","","","","","","","","","","","","","","","","","","","","",""
"2867","","<div style=""width:500px;"">
  <p>How much control did you have over the ball?</p>
  </div>","53","html-slider-response","21","241945","0.0-5.0-2.2","17","1","2025-07-09 08:43:02","01610cd0009c79a99da7d0a3353eb402","86.1.242.218","Mozilla/5.0 (Macintosh; Intel Mac OS X 10_15_7) AppleWebKit/537.36 (KHTML, like Gecko) Chrome/137.0.0.0 Safari/537.36","Macintosh","Chrome","137.0.0.0","OS X","10_15_7","https://app.prolific.com/","en-GB,en-US;q=0.9,en;q=0.8","6620f5de5edae6e60f556986","683db7602f5db6a34d12d064","686e2b4b318a93835664c88c","1","6620f5de5edae6e60f556986","1","2025-07-09T08:47:05.324Z","","","","","","","","","","","ControlQ","","50","","","","","","","","","","","","","","","","","","","","","","","","","","","","",""
"1799","","<div style=""width:500px;"">
  <p>How would you describe your current emotional state?</p>
  </div>","41","html-slider-response","22","243744","0.0-5.0-3.2","17","1","2025-07-09 08:43:02","01610cd0009c79a99da7d0a3353eb402","86.1.242.218","Mozilla/5.0 (Macintosh; Intel Mac OS X 10_15_7) AppleWebKit/537.36 (KHTML, like Gecko) Chrome/137.0.0.0 Safari/537.36","Macintosh","Chrome","137.0.0.0","OS X","10_15_7","https://app.prolific.com/","en-GB,en-US;q=0.9,en;q=0.8","6620f5de5edae6e60f556986","683db7602f5db6a34d12d064","686e2b4b318a93835664c88c","1","6620f5de5edae6e60f556986","1","2025-07-09T08:47:07.123Z","","","","","","","","","","","StressQ","","50","","","","","","","","","","","","","","","","","","","","","","","","","","","","",""
"2416","","<div style=""width:500px;"">
  <p>What best describes how you currently feel?</p>
  </div>","39","html-slider-response","23","246161","0.0-5.0-4.2","17","1","2025-07-09 08:43:02","01610cd0009c79a99da7d0a3353eb402","86.1.242.218","Mozilla/5.0 (Macintosh; Intel Mac OS X 10_15_7) AppleWebKit/537.36 (KHTML, like Gecko) Chrome/137.0.0.0 Safari/537.36","Macintosh","Chrome","137.0.0.0","OS X","10_15_7","https://app.prolific.com/","en-GB,en-US;q=0.9,en;q=0.8","6620f5de5edae6e60f556986","683db7602f5db6a34d12d064","686e2b4b318a93835664c88c","1","6620f5de5edae6e60f556986","1","2025-07-09T08:47:09.540Z","","","","","","","","","","","MotivationQ","","50","","","","","","","","","","","","","","","","","","","","","","","","","","","","",""
"","","","","ctl-task-cpt","24","264240","0.0-5.0-0.3","17","1","2025-07-09 08:43:02","01610cd0009c79a99da7d0a3353eb402","86.1.242.218","Mozilla/5.0 (Macintosh; Intel Mac OS X 10_15_7) AppleWebKit/537.36 (KHTML, like Gecko) Chrome/137.0.0.0 Safari/537.36","Macintosh","Chrome","137.0.0.0","OS X","10_15_7","https://app.prolific.com/","en-GB,en-US;q=0.9,en;q=0.8","6620f5de5edae6e60f556986","683db7602f5db6a34d12d064","686e2b4b318a93835664c88c","1","6620f5de5edae6e60f556986","1","2025-07-09T08:47:27.619Z","","","","","","","","","","","","","","win-only","0","g1:NW,g2:SE","0.7","4","0","247297.3","1135.7","6137.4","15070.3","1","4","4","6","1","1","1","17","16","0.12878787878787878","1829.6","3000","1665","[""left"",""up""]","{""num_key_presses"":4,""num_perfect"":4,""num_errors"":0,""num_randdir"":0,""num_randdir_good_moves"":0,""num_whilered"":0,""num_whileblue"":0,""num_blue"":0,""num_good_moves"":4}","[822,803.796875,0.2,822,801.796875,102.3,822,801.796875,203.4,822,801.796875,305.3,822,801.796875,408.1,822,801.796875,510.1,874,851.796875,617.7,1240,1315.796875,720.6,1198,1305.796875,825,1184,1305.796875,925.2,1222,1341.796875,1030.4,1320,1371.796875,1130.4,1320,1371.796875,1230.4,408,789.796875,1336.4,158,379.796875,1439.9,158,379.796875,1544.5,156,333.796875,1645.2,154,205.796875,1745.6,154,191.796875,1850.2,154,189.796875,1951.1,154,189.796875,2056.1,154,189.796875,2156.8,154,189.796875,2259.7,154,189.796875,2360.1,154,189.796875,2460.6,154,189.796875,2566.1,154,189.796875,2670.6,154,189.796875,2773.5,154,189.796875,2875.1,154,189.796875,2980.2,154,189.796875,3084.8,154,189.796875,3185.3,154,189.796875,3285.6,154,189.796875,3394.3,154,189.796875,3495.1,154,189.796875,3595.3,154,189.796875,3701.3,154,189.796875,3803.1,154,189.796875,3904.9,154,189.796875,4008.4,154,189.796875,4110.4,154,189.796875,4220.2,154,189.796875,4320.2,154,189.796875,4421,154,189.796875,4525,154,189.796875,4632.7,154,189.796875,4737.6,154,189.796875,4838.1,154,189.796875,4939.7]","[1385.7,1385.7,1000,0,385.7,""smooth"",""left"",""left"",""good_move"",3083.5,1697.5,1338.7,1386,358.8,""smooth"",""left"",""left"",""good_move"",5800.3,2716.8,2325.2,3083.5,391.7,""smooth"",""up"",""up"",""good_move"",8835.4,3034.9,2756.2,5800.5,278.7,""smooth"",""up"",""up"",""good_move""]","",""
"2155","","<div style=""width:500px;"">
  <p>What determined the result of this run?</p>
  </div>","72","html-slider-response","25","266395","0.0-5.0-1.3","17","1","2025-07-09 08:43:02","01610cd0009c79a99da7d0a3353eb402","86.1.242.218","Mozilla/5.0 (Macintosh; Intel Mac OS X 10_15_7) AppleWebKit/537.36 (KHTML, like Gecko) Chrome/137.0.0.0 Safari/537.36","Macintosh","Chrome","137.0.0.0","OS X","10_15_7","https://app.prolific.com/","en-GB,en-US;q=0.9,en;q=0.8","6620f5de5edae6e60f556986","683db7602f5db6a34d12d064","686e2b4b318a93835664c88c","1","6620f5de5edae6e60f556986","1","2025-07-09T08:47:29.774Z","","","","","","","","","","","AttribQ","","50","","","","","","","","","","","","","","","","","","","","","","","","","","","","",""
"1548","","<div style=""width:500px;"">
  <p>How much control did you have over the ball?</p>
  </div>","73","html-slider-response","26","267944","0.0-5.0-2.3","17","1","2025-07-09 08:43:02","01610cd0009c79a99da7d0a3353eb402","86.1.242.218","Mozilla/5.0 (Macintosh; Intel Mac OS X 10_15_7) AppleWebKit/537.36 (KHTML, like Gecko) Chrome/137.0.0.0 Safari/537.36","Macintosh","Chrome","137.0.0.0","OS X","10_15_7","https://app.prolific.com/","en-GB,en-US;q=0.9,en;q=0.8","6620f5de5edae6e60f556986","683db7602f5db6a34d12d064","686e2b4b318a93835664c88c","1","6620f5de5edae6e60f556986","1","2025-07-09T08:47:31.323Z","","","","","","","","","","","ControlQ","","50","","","","","","","","","","","","","","","","","","","","","","","","","","","","",""
"2217","","<div style=""width:500px;"">
  <p>How would you describe your current emotional state?</p>
  </div>","44","html-slider-response","27","270161","0.0-5.0-3.3","17","1","2025-07-09 08:43:02","01610cd0009c79a99da7d0a3353eb402","86.1.242.218","Mozilla/5.0 (Macintosh; Intel Mac OS X 10_15_7) AppleWebKit/537.36 (KHTML, like Gecko) Chrome/137.0.0.0 Safari/537.36","Macintosh","Chrome","137.0.0.0","OS X","10_15_7","https://app.prolific.com/","en-GB,en-US;q=0.9,en;q=0.8","6620f5de5edae6e60f556986","683db7602f5db6a34d12d064","686e2b4b318a93835664c88c","1","6620f5de5edae6e60f556986","1","2025-07-09T08:47:33.540Z","","","","","","","","","","","StressQ","","50","","","","","","","","","","","","","","","","","","","","","","","","","","","","",""
"1565","","<div style=""width:500px;"">
  <p>What best describes how you currently feel?</p>
  </div>","45","html-slider-response","28","271727","0.0-5.0-4.3","17","1","2025-07-09 08:43:02","01610cd0009c79a99da7d0a3353eb402","86.1.242.218","Mozilla/5.0 (Macintosh; Intel Mac OS X 10_15_7) AppleWebKit/537.36 (KHTML, like Gecko) Chrome/137.0.0.0 Safari/537.36","Macintosh","Chrome","137.0.0.0","OS X","10_15_7","https://app.prolific.com/","en-GB,en-US;q=0.9,en;q=0.8","6620f5de5edae6e60f556986","683db7602f5db6a34d12d064","686e2b4b318a93835664c88c","1","6620f5de5edae6e60f556986","1","2025-07-09T08:47:35.106Z","","","","","","","","","","","MotivationQ","","50","","","","","","","","","","","","","","","","","","","","","","","","","","","","",""
"","","","","ctl-task-cpt","29","320708","0.0-5.0-0.4","17","1","2025-07-09 08:43:02","01610cd0009c79a99da7d0a3353eb402","86.1.242.218","Mozilla/5.0 (Macintosh; Intel Mac OS X 10_15_7) AppleWebKit/537.36 (KHTML, like Gecko) Chrome/137.0.0.0 Safari/537.36","Macintosh","Chrome","137.0.0.0","OS X","10_15_7","https://app.prolific.com/","en-GB,en-US;q=0.9,en;q=0.8","6620f5de5edae6e60f556986","683db7602f5db6a34d12d064","686e2b4b318a93835664c88c","1","6620f5de5edae6e60f556986","1","2025-07-09T08:48:24.087Z","","","","","","","","","","","","","","win-only","0","g1:NW,g2:SE","0.6","5","0","272864.2","742.6","5743","45970.5","1","4","8","6","2","8","8","25","17","0.1893939393939394","862.4","3000","130","[""down"",""right""]","{""num_key_presses"":10,""num_perfect"":6,""num_errors"":0,""num_randdir"":4,""num_randdir_good_moves"":2,""num_whilered"":0,""num_whileblue"":0,""num_blue"":4,""num_good_moves"":8}","[810,819.796875,0.1,810,819.796875,103.5,810,819.796875,204.6,810,819.796875,315.7,986,1043.796875,420,1488,1467.796875,523.1,1488,1467.796875,623.3,1488,1467.796875,728.8,1514,1491.796875,835.8,1514,1491.796875,938.8,1514,1491.796875,1041.1,1514,1491.796875,1145.4,1514,1491.796875,1250.6,1514,1491.796875,1350.9,1514,1491.796875,1457.4,1514,1491.796875,1559.5,1514,1491.796875,1664.4,1514,1491.796875,1768.2,1514,1491.796875,1868.5,1514,1491.796875,1973.6,1514,1491.796875,2076.5,1514,1491.796875,2183.8,1514,1491.796875,2285.9,1514,1491.796875,2388.5,1514,1491.796875,2495.5,1514,1491.796875,2595.7,1514,1491.796875,2708.2,1514,1491.796875,2809.9,1514,1491.796875,2916,1514,1491.796875,3018,1514,1491.796875,3122.9,1514,1491.796875,3227.9,1514,1491.796875,3333.6,1514,1491.796875,3435,1514,1491.796875,3539.8,1514,1491.796875,3646.1,1514,1491.796875,3747.4,1514,1491.796875,3847.9,1514,1491.796875,3948.4,1514,1491.796875,4055.4,1514,1491.796875,4159,1514,1491.796875,4259.4,1514,1491.796875,4365,1514,1491.796875,4467.8,1514,1491.796875,4568.1,1514,1491.796875,4670.8,1514,1491.796875,4771.4,1514,1491.796875,4874.3,1514,1491.796875,4978.7]","[1362.1,1362.2,1000,0,362.2,""smooth"",""down"",""down"",""good_move"",7216.7,5854.3,2409.1,4488.2,319.4,""oops"",""right"",""left"",""bad_move"",10475.1,3258.2,2945.3,7216.9,312.9,""smooth"",""down"",""down"",""good_move"",12873.3,2398.1,2037.3,10475.2,360.8,""oops"",""down"",""left"",""bad_move"",15449.1,2575.7,2248.4,12873.5,327.2,""oops"",""down"",""right"",""good_move"",18280.5,2831,2535.8,15449.5,295.2,""smooth"",""down"",""down"",""good_move"",21007.8,2727.2,2448.7,18280.6,278.5,""oops"",""right"",""right"",""good_move"",23453.4,2445.5,2188.2,21008,257.2,""smooth"",""right"",""right"",""good_move"",33863.3,10409.9,2598.3,30942.3,322.7,""smooth"",""right"",""right"",""good_move"",40140.8,6277.4,2619.9,37157.6,363.3,""smooth"",""right"",""right"",""good_move""]","",""
"2302","","<div style=""width:500px;"">
  <p>What determined the result of this run?</p>
  </div>","37","html-slider-response","30","323009","0.0-5.0-1.4","17","1","2025-07-09 08:43:02","01610cd0009c79a99da7d0a3353eb402","86.1.242.218","Mozilla/5.0 (Macintosh; Intel Mac OS X 10_15_7) AppleWebKit/537.36 (KHTML, like Gecko) Chrome/137.0.0.0 Safari/537.36","Macintosh","Chrome","137.0.0.0","OS X","10_15_7","https://app.prolific.com/","en-GB,en-US;q=0.9,en;q=0.8","6620f5de5edae6e60f556986","683db7602f5db6a34d12d064","686e2b4b318a93835664c88c","1","6620f5de5edae6e60f556986","1","2025-07-09T08:48:26.389Z","","","","","","","","","","","AttribQ","","50","","","","","","","","","","","","","","","","","","","","","","","","","","","","",""
"2016","","<div style=""width:500px;"">
  <p>How much control did you have over the ball?</p>
  </div>","41","html-slider-response","31","325026","0.0-5.0-2.4","17","1","2025-07-09 08:43:02","01610cd0009c79a99da7d0a3353eb402","86.1.242.218","Mozilla/5.0 (Macintosh; Intel Mac OS X 10_15_7) AppleWebKit/537.36 (KHTML, like Gecko) Chrome/137.0.0.0 Safari/537.36","Macintosh","Chrome","137.0.0.0","OS X","10_15_7","https://app.prolific.com/","en-GB,en-US;q=0.9,en;q=0.8","6620f5de5edae6e60f556986","683db7602f5db6a34d12d064","686e2b4b318a93835664c88c","1","6620f5de5edae6e60f556986","1","2025-07-09T08:48:28.405Z","","","","","","","","","","","ControlQ","","50","","","","","","","","","","","","","","","","","","","","","","","","","","","","",""
"2100","","<div style=""width:500px;"">
  <p>How would you describe your current emotional state?</p>
  </div>","60","html-slider-response","32","327126","0.0-5.0-3.4","17","1","2025-07-09 08:43:02","01610cd0009c79a99da7d0a3353eb402","86.1.242.218","Mozilla/5.0 (Macintosh; Intel Mac OS X 10_15_7) AppleWebKit/537.36 (KHTML, like Gecko) Chrome/137.0.0.0 Safari/537.36","Macintosh","Chrome","137.0.0.0","OS X","10_15_7","https://app.prolific.com/","en-GB,en-US;q=0.9,en;q=0.8","6620f5de5edae6e60f556986","683db7602f5db6a34d12d064","686e2b4b318a93835664c88c","1","6620f5de5edae6e60f556986","1","2025-07-09T08:48:30.505Z","","","","","","","","","","","StressQ","","50","","","","","","","","","","","","","","","","","","","","","","","","","","","","",""
"2183","","<div style=""width:500px;"">
  <p>What best describes how you currently feel?</p>
  </div>","58","html-slider-response","33","329309","0.0-5.0-4.4","17","1","2025-07-09 08:43:02","01610cd0009c79a99da7d0a3353eb402","86.1.242.218","Mozilla/5.0 (Macintosh; Intel Mac OS X 10_15_7) AppleWebKit/537.36 (KHTML, like Gecko) Chrome/137.0.0.0 Safari/537.36","Macintosh","Chrome","137.0.0.0","OS X","10_15_7","https://app.prolific.com/","en-GB,en-US;q=0.9,en;q=0.8","6620f5de5edae6e60f556986","683db7602f5db6a34d12d064","686e2b4b318a93835664c88c","1","6620f5de5edae6e60f556986","1","2025-07-09T08:48:32.688Z","","","","","","","","","","","MotivationQ","","50","","","","","","","","","","","","","","","","","","","","","","","","","","","","",""
"","","","","ctl-task-cpt","34","347053","0.0-5.0-0.5","17","1","2025-07-09 08:43:02","01610cd0009c79a99da7d0a3353eb402","86.1.242.218","Mozilla/5.0 (Macintosh; Intel Mac OS X 10_15_7) AppleWebKit/537.36 (KHTML, like Gecko) Chrome/137.0.0.0 Safari/537.36","Macintosh","Chrome","137.0.0.0","OS X","10_15_7","https://app.prolific.com/","en-GB,en-US;q=0.9,en;q=0.8","6620f5de5edae6e60f556986","683db7602f5db6a34d12d064","686e2b4b318a93835664c88c","1","6620f5de5edae6e60f556986","1","2025-07-09T08:48:50.432Z","","","","","","","","","","","","","","win-only","3","g1:SW,g2:NE","0.5","6","0","330448.7","666.1","5668.9","14730.4","1","4","4","6","1","1","1","26","25","0.19696969696969696","1699.4","3000","1945","[""down"",""left""]","{""num_key_presses"":4,""num_perfect"":3,""num_errors"":0,""num_randdir"":1,""num_randdir_good_moves"":1,""num_whilered"":0,""num_whileblue"":0,""num_blue"":0,""num_good_moves"":4}","[812,789.796875,0.3,812,789.796875,102.8,812,789.796875,204.2,812,789.796875,304.6,812,789.796875,407.2,812,789.796875,513.3,820,785.796875,618.7,1326,363.796875,723.7,1368,325.796875,827.5,1368,325.796875,929.3,1466,235.796875,1034.8,1442,239.796875,1139.7,442,1303.796875,1243.8,430,1327.796875,1344.1,430,1327.796875,1444.9,222,1399.796875,1549.9,186,1423.796875,1655.3,184,1427.796875,1763,184,1427.796875,1864,184,1427.796875,1969,184,1427.796875,2069.6,184,1427.796875,2172.6,184,1427.796875,2274.2,184,1427.796875,2380.4,184,1427.796875,2483.8,184,1427.796875,2587.8,184,1427.796875,2689.3,184,1427.796875,2792.5,184,1427.796875,2895,184,1427.796875,2998.2,184,1427.796875,3103.2,184,1427.796875,3207.8,184,1427.796875,3308.5,184,1427.796875,3410.1,184,1427.796875,3514.3,184,1427.796875,3615.3,184,1427.796875,3718.5,184,1427.796875,3818.5,184,1427.796875,3924,184,1427.796875,4024.8,184,1427.796875,4125.3,184,1427.796875,4228.3,184,1427.796875,4329,184,1427.796875,4430.1,184,1427.796875,4533.7,184,1427.796875,4639.5,184,1427.796875,4741.8,184,1427.796875,4844.3,184,1427.796875,4954]","[1370.4,1370.4,1000,0,370.4,""smooth"",""down"",""down"",""good_move"",3864,2493.4,2157.1,1370.7,336.3,""smooth"",""left"",""left"",""good_move"",6197.2,2332.9,1993.7,3864.3,339.2,""smooth"",""left"",""left"",""good_move"",8956.2,2758.8,2440.5,6197.4,318.3,""oops"",""down"",""down"",""good_move""]","",""
"1906","","<div style=""width:500px;"">
  <p>What determined the result of this run?</p>
  </div>","42","html-slider-response","35","348959","0.0-5.0-1.5","17","1","2025-07-09 08:43:02","01610cd0009c79a99da7d0a3353eb402","86.1.242.218","Mozilla/5.0 (Macintosh; Intel Mac OS X 10_15_7) AppleWebKit/537.36 (KHTML, like Gecko) Chrome/137.0.0.0 Safari/537.36","Macintosh","Chrome","137.0.0.0","OS X","10_15_7","https://app.prolific.com/","en-GB,en-US;q=0.9,en;q=0.8","6620f5de5edae6e60f556986","683db7602f5db6a34d12d064","686e2b4b318a93835664c88c","1","6620f5de5edae6e60f556986","1","2025-07-09T08:48:52.338Z","","","","","","","","","","","AttribQ","","50","","","","","","","","","","","","","","","","","","","","","","","","","","","","",""
"2099","","<div style=""width:500px;"">
  <p>How much control did you have over the ball?</p>
  </div>","59","html-slider-response","36","351059","0.0-5.0-2.5","17","1","2025-07-09 08:43:02","01610cd0009c79a99da7d0a3353eb402","86.1.242.218","Mozilla/5.0 (Macintosh; Intel Mac OS X 10_15_7) AppleWebKit/537.36 (KHTML, like Gecko) Chrome/137.0.0.0 Safari/537.36","Macintosh","Chrome","137.0.0.0","OS X","10_15_7","https://app.prolific.com/","en-GB,en-US;q=0.9,en;q=0.8","6620f5de5edae6e60f556986","683db7602f5db6a34d12d064","686e2b4b318a93835664c88c","1","6620f5de5edae6e60f556986","1","2025-07-09T08:48:54.438Z","","","","","","","","","","","ControlQ","","50","","","","","","","","","","","","","","","","","","","","","","","","","","","","",""
"2867","","<div style=""width:500px;"">
  <p>How would you describe your current emotional state?</p>
  </div>","54","html-slider-response","37","353926","0.0-5.0-3.5","17","1","2025-07-09 08:43:02","01610cd0009c79a99da7d0a3353eb402","86.1.242.218","Mozilla/5.0 (Macintosh; Intel Mac OS X 10_15_7) AppleWebKit/537.36 (KHTML, like Gecko) Chrome/137.0.0.0 Safari/537.36","Macintosh","Chrome","137.0.0.0","OS X","10_15_7","https://app.prolific.com/","en-GB,en-US;q=0.9,en;q=0.8","6620f5de5edae6e60f556986","683db7602f5db6a34d12d064","686e2b4b318a93835664c88c","1","6620f5de5edae6e60f556986","1","2025-07-09T08:48:57.305Z","","","","","","","","","","","StressQ","","50","","","","","","","","","","","","","","","","","","","","","","","","","","","","",""
"1332","","<div style=""width:500px;"">
  <p>What best describes how you currently feel?</p>
  </div>","50","html-slider-response","38","355259","0.0-5.0-4.5","17","1","2025-07-09 08:43:02","01610cd0009c79a99da7d0a3353eb402","86.1.242.218","Mozilla/5.0 (Macintosh; Intel Mac OS X 10_15_7) AppleWebKit/537.36 (KHTML, like Gecko) Chrome/137.0.0.0 Safari/537.36","Macintosh","Chrome","137.0.0.0","OS X","10_15_7","https://app.prolific.com/","en-GB,en-US;q=0.9,en;q=0.8","6620f5de5edae6e60f556986","683db7602f5db6a34d12d064","686e2b4b318a93835664c88c","1","6620f5de5edae6e60f556986","1","2025-07-09T08:48:58.638Z","","","","","","","","","","","MotivationQ","","50","","","","","","","","","","","","","","","","","","","","","","","","","","","","",""
"","","","","ctl-task-cpt","39","386995","0.0-5.0-0.6","17","1","2025-07-09 08:43:02","01610cd0009c79a99da7d0a3353eb402","86.1.242.218","Mozilla/5.0 (Macintosh; Intel Mac OS X 10_15_7) AppleWebKit/537.36 (KHTML, like Gecko) Chrome/137.0.0.0 Safari/537.36","Macintosh","Chrome","137.0.0.0","OS X","10_15_7","https://app.prolific.com/","en-GB,en-US;q=0.9,en;q=0.8","6620f5de5edae6e60f556986","683db7602f5db6a34d12d064","686e2b4b318a93835664c88c","1","6620f5de5edae6e60f556986","1","2025-07-09T08:49:30.374Z","","","","","","","","","","","","","","win-only","0","g1:NW,g2:SE","0.4","7","0","356399.3","837.4","5843.9","28726.3","1","4","8","6","2","8","7","33","26","0.25","811.9","3000","1760","[""down"",""right""]","{""num_key_presses"":6,""num_perfect"":2,""num_errors"":1,""num_randdir"":3,""num_randdir_good_moves"":3,""num_whilered"":0,""num_whileblue"":1,""num_blue"":3,""num_good_moves"":6}","[812,801.796875,0.1,812,803.796875,103.1,812,803.796875,203.4,812,803.796875,310,822,819.796875,410,1294,1409.796875,518.1,1332,1457.796875,623.5,1424,1475.796875,723.7,1460,1485.796875,829.2,1460,1485.796875,930.5,1460,1485.796875,1034.5,1460,1485.796875,1138.8,1460,1485.796875,1243.5,1460,1485.796875,1344,1460,1485.796875,1444,1460,1485.796875,1546,1460,1485.796875,1653.3,1460,1485.796875,1757.2,1460,1485.796875,1858.4,1460,1485.796875,1963.4,1460,1485.796875,2074.9,1460,1485.796875,2175.6,1460,1485.796875,2281.1,1460,1485.796875,2383.3,1460,1485.796875,2485.9,1460,1485.796875,2588.7,1460,1485.796875,2698,1460,1485.796875,2800.4,1460,1485.796875,2907.5,1460,1485.796875,3008.8,1460,1485.796875,3119.3,1460,1485.796875,3220,1460,1485.796875,3327.9,1460,1485.796875,3431.1,1460,1485.796875,3532.3,1460,1485.796875,3635,1460,1485.796875,3738,1460,1485.796875,3838.7,1460,1485.796875,3939.6,1460,1485.796875,4045.7,1460,1485.796875,4147.7,1460,1485.796875,4252.3,1460,1485.796875,4353.3,1460,1485.796875,4453.7,1460,1485.796875,4559.6,1460,1485.796875,4668.4,1460,1485.796875,4778.3,1460,1485.796875,4878.3,1460,1485.796875,4983.8]","[5319.3,5319.3,2995,2006.8,317.5,""smooth"",""right"",""right"",""good_move"",7626.5,2307,1930.7,5319.5,376.3,""smooth"",""down"",""down"",""good_move"",10440.7,2814,2479.4,7626.7,334.6,""oops"",""right"",""down"",""good_move"",13112.9,2672.1,2386.1,10440.8,286,""while_blue"",""right"",""down"",""good_move"",19394.4,6281.4,2388.7,16666.9,338.8,""oops"",""right"",""right"",""good_move"",22729.8,3335.3,2995.2,19394.5,340.1,""oops"",""right"",""right"",""good_move""]","",""
"2763","","<div style=""width:500px;"">
  <p>What determined the result of this run?</p>
  </div>","41","html-slider-response","40","389758","0.0-5.0-1.6","17","1","2025-07-09 08:43:02","01610cd0009c79a99da7d0a3353eb402","86.1.242.218","Mozilla/5.0 (Macintosh; Intel Mac OS X 10_15_7) AppleWebKit/537.36 (KHTML, like Gecko) Chrome/137.0.0.0 Safari/537.36","Macintosh","Chrome","137.0.0.0","OS X","10_15_7","https://app.prolific.com/","en-GB,en-US;q=0.9,en;q=0.8","6620f5de5edae6e60f556986","683db7602f5db6a34d12d064","686e2b4b318a93835664c88c","1","6620f5de5edae6e60f556986","1","2025-07-09T08:49:33.137Z","","","","","","","","","","","AttribQ","","50","","","","","","","","","","","","","","","","","","","","","","","","","","","","",""
"1284","","<div style=""width:500px;"">
  <p>How much control did you have over the ball?</p>
  </div>","71","html-slider-response","41","391043","0.0-5.0-2.6","17","1","2025-07-09 08:43:02","01610cd0009c79a99da7d0a3353eb402","86.1.242.218","Mozilla/5.0 (Macintosh; Intel Mac OS X 10_15_7) AppleWebKit/537.36 (KHTML, like Gecko) Chrome/137.0.0.0 Safari/537.36","Macintosh","Chrome","137.0.0.0","OS X","10_15_7","https://app.prolific.com/","en-GB,en-US;q=0.9,en;q=0.8","6620f5de5edae6e60f556986","683db7602f5db6a34d12d064","686e2b4b318a93835664c88c","1","6620f5de5edae6e60f556986","1","2025-07-09T08:49:34.422Z","","","","","","","","","","","ControlQ","","50","","","","","","","","","","","","","","","","","","","","","","","","","","","","",""
"1315","","<div style=""width:500px;"">
  <p>How would you describe your current emotional state?</p>
  </div>","61","html-slider-response","42","392358","0.0-5.0-3.6","17","1","2025-07-09 08:43:02","01610cd0009c79a99da7d0a3353eb402","86.1.242.218","Mozilla/5.0 (Macintosh; Intel Mac OS X 10_15_7) AppleWebKit/537.36 (KHTML, like Gecko) Chrome/137.0.0.0 Safari/537.36","Macintosh","Chrome","137.0.0.0","OS X","10_15_7","https://app.prolific.com/","en-GB,en-US;q=0.9,en;q=0.8","6620f5de5edae6e60f556986","683db7602f5db6a34d12d064","686e2b4b318a93835664c88c","1","6620f5de5edae6e60f556986","1","2025-07-09T08:49:35.738Z","","","","","","","","","","","StressQ","","50","","","","","","","","","","","","","","","","","","","","","","","","","","","","",""
"2182","","<div style=""width:500px;"">
  <p>What best describes how you currently feel?</p>
  </div>","60","html-slider-response","43","394541","0.0-5.0-4.6","17","1","2025-07-09 08:43:02","01610cd0009c79a99da7d0a3353eb402","86.1.242.218","Mozilla/5.0 (Macintosh; Intel Mac OS X 10_15_7) AppleWebKit/537.36 (KHTML, like Gecko) Chrome/137.0.0.0 Safari/537.36","Macintosh","Chrome","137.0.0.0","OS X","10_15_7","https://app.prolific.com/","en-GB,en-US;q=0.9,en;q=0.8","6620f5de5edae6e60f556986","683db7602f5db6a34d12d064","686e2b4b318a93835664c88c","1","6620f5de5edae6e60f556986","1","2025-07-09T08:49:37.920Z","","","","","","","","","","","MotivationQ","","50","","","","","","","","","","","","","","","","","","","","","","","","","","","","",""
"","","","","ctl-task-cpt","44","545534","0.0-5.0-0.7","17","1","2025-07-09 08:43:02","01610cd0009c79a99da7d0a3353eb402","86.1.242.218","Mozilla/5.0 (Macintosh; Intel Mac OS X 10_15_7) AppleWebKit/537.36 (KHTML, like Gecko) Chrome/137.0.0.0 Safari/537.36","Macintosh","Chrome","137.0.0.0","OS X","10_15_7","https://app.prolific.com/","en-GB,en-US;q=0.9,en;q=0.8","6620f5de5edae6e60f556986","683db7602f5db6a34d12d064","686e2b4b318a93835664c88c","1","6620f5de5edae6e60f556986","1","2025-07-09T08:52:08.913Z","","","","","","","","","","","","","","win-only","0","g1:NW,g2:SE","0.3","8","0","395683.3","103949.9","108952.7","147980.2","1","4","4","6","2","-4","-4","29","33","0.2196969696969697","1167.7","3000","-2495","[""down"",""right""]","{""num_key_presses"":11,""num_perfect"":3,""num_errors"":0,""num_randdir"":8,""num_randdir_good_moves"":2,""num_whilered"":0,""num_whileblue"":0,""num_blue"":2,""num_good_moves"":5}","[814,813.796875,0,814,813.796875,101.2,814,813.796875,206.1,814,813.796875,310.3,814,813.796875,414.6,992,903.796875,515.6,1128,1351.796875,619,812,1303.796875,720.4,1284,1367.796875,820.5,1378,1401.796875,920.5,1378,1401.796875,1022.9,1378,1407.796875,1125.6,1378,1409.796875,1232.4,1378,1409.796875,1338.9,1378,1409.796875,1441.2,1378,1409.796875,1546.2,1378,1409.796875,1655.1,1378,1409.796875,1757.8,1378,1409.796875,1865.2,1378,1409.796875,1965.7,1378,1409.796875,2066.2,1378,1409.796875,2170.2,1378,1409.796875,2274.1,1378,1409.796875,2374.7,1378,1409.796875,2480.1,1378,1409.796875,2581.2,1378,1409.796875,2685.3,1378,1409.796875,2785.5,1378,1409.796875,2887.3,1378,1409.796875,2990.1,1378,1409.796875,3094.3,1378,1409.796875,3195.9,1378,1409.796875,3300.6,1378,1409.796875,3401,1378,1409.796875,3506.9,1378,1409.796875,3612.7,1378,1409.796875,3717.4,1378,1409.796875,3820.4,1378,1409.796875,3925.2,1378,1409.796875,4025.2,1378,1409.796875,4128.7,1378,1409.796875,4230.5,1378,1409.796875,4333.3,1378,1409.796875,4436.3,1378,1409.796875,4540.6,1378,1409.796875,4642.2,1378,1409.796875,4746,1378,1409.796875,4849,1378,1409.796875,4953.8]","[1439.5,1439.6,1000,0,439.6,""smooth"",""right"",""right"",""good_move"",4174,2734.1,2387,1439.9,347.1,""oops"",""down"",""up"",""bad_move"",7597.7,3423.3,3131.1,4174.4,292.2,""smooth"",""right"",""right"",""good_move"",10217.6,2619.8,2314,7597.8,305.8,""oops"",""down"",""right"",""good_move"",13125,2907.3,2613,10217.7,294.3,""oops"",""down"",""left"",""bad_move"",16026.5,2901.2,2625.9,13125.3,275.3,""oops"",""down"",""left"",""bad_move"",18875.2,2848.6,2521,16026.6,327.6,""smooth"",""down"",""down"",""good_move"",25389.8,6514.3,2358.7,22733.3,297.8,""oops"",""down"",""left"",""bad_move"",28255.6,2865.7,2529.5,25389.9,336.2,""oops"",""down"",""up"",""bad_move"",34580.2,6324.5,2109.6,32069.9,400.7,""oops"",""right"",""right"",""good_move"",36885.8,2305.4,1982.4,34580.4,323,""oops"",""right"",""up"",""bad_move""]","",""
"2785","","<div style=""width:500px;"">
  <p>What determined the result of this run?</p>
  </div>","5","html-slider-response","45","548320","0.0-5.0-1.7","17","1","2025-07-09 08:43:02","01610cd0009c79a99da7d0a3353eb402","86.1.242.218","Mozilla/5.0 (Macintosh; Intel Mac OS X 10_15_7) AppleWebKit/537.36 (KHTML, like Gecko) Chrome/137.0.0.0 Safari/537.36","Macintosh","Chrome","137.0.0.0","OS X","10_15_7","https://app.prolific.com/","en-GB,en-US;q=0.9,en;q=0.8","6620f5de5edae6e60f556986","683db7602f5db6a34d12d064","686e2b4b318a93835664c88c","1","6620f5de5edae6e60f556986","1","2025-07-09T08:52:11.699Z","","","","","","","","","","","AttribQ","","50","","","","","","","","","","","","","","","","","","","","","","","","","","","","",""
"2766","","<div style=""width:500px;"">
  <p>How much control did you have over the ball?</p>
  </div>","3","html-slider-response","46","551087","0.0-5.0-2.7","17","1","2025-07-09 08:43:02","01610cd0009c79a99da7d0a3353eb402","86.1.242.218","Mozilla/5.0 (Macintosh; Intel Mac OS X 10_15_7) AppleWebKit/537.36 (KHTML, like Gecko) Chrome/137.0.0.0 Safari/537.36","Macintosh","Chrome","137.0.0.0","OS X","10_15_7","https://app.prolific.com/","en-GB,en-US;q=0.9,en;q=0.8","6620f5de5edae6e60f556986","683db7602f5db6a34d12d064","686e2b4b318a93835664c88c","1","6620f5de5edae6e60f556986","1","2025-07-09T08:52:14.466Z","","","","","","","","","","","ControlQ","","50","","","","","","","","","","","","","","","","","","","","","","","","","","","","",""
"1800","","<div style=""width:500px;"">
  <p>How would you describe your current emotional state?</p>
  </div>","91","html-slider-response","47","552887","0.0-5.0-3.7","17","1","2025-07-09 08:43:02","01610cd0009c79a99da7d0a3353eb402","86.1.242.218","Mozilla/5.0 (Macintosh; Intel Mac OS X 10_15_7) AppleWebKit/537.36 (KHTML, like Gecko) Chrome/137.0.0.0 Safari/537.36","Macintosh","Chrome","137.0.0.0","OS X","10_15_7","https://app.prolific.com/","en-GB,en-US;q=0.9,en;q=0.8","6620f5de5edae6e60f556986","683db7602f5db6a34d12d064","686e2b4b318a93835664c88c","1","6620f5de5edae6e60f556986","1","2025-07-09T08:52:16.266Z","","","","","","","","","","","StressQ","","50","","","","","","","","","","","","","","","","","","","","","","","","","","","","",""
"1832","","<div style=""width:500px;"">
  <p>What best describes how you currently feel?</p>
  </div>","68","html-slider-response","48","554720","0.0-5.0-4.7","17","1","2025-07-09 08:43:02","01610cd0009c79a99da7d0a3353eb402","86.1.242.218","Mozilla/5.0 (Macintosh; Intel Mac OS X 10_15_7) AppleWebKit/537.36 (KHTML, like Gecko) Chrome/137.0.0.0 Safari/537.36","Macintosh","Chrome","137.0.0.0","OS X","10_15_7","https://app.prolific.com/","en-GB,en-US;q=0.9,en;q=0.8","6620f5de5edae6e60f556986","683db7602f5db6a34d12d064","686e2b4b318a93835664c88c","1","6620f5de5edae6e60f556986","1","2025-07-09T08:52:18.099Z","","","","","","","","","","","MotivationQ","","50","","","","","","","","","","","","","","","","","","","","","","","","","","","","",""
"","","","","ctl-task-cpt","49","597803","0.0-5.0-0.8","17","1","2025-07-09 08:43:02","01610cd0009c79a99da7d0a3353eb402","86.1.242.218","Mozilla/5.0 (Macintosh; Intel Mac OS X 10_15_7) AppleWebKit/537.36 (KHTML, like Gecko) Chrome/137.0.0.0 Safari/537.36","Macintosh","Chrome","137.0.0.0","OS X","10_15_7","https://app.prolific.com/","en-GB,en-US;q=0.9,en;q=0.8","6620f5de5edae6e60f556986","683db7602f5db6a34d12d064","686e2b4b318a93835664c88c","1","6620f5de5edae6e60f556986","1","2025-07-09T08:53:01.182Z","","","","","","","","","","","","","","win-only","1","g1:NE,g2:SW","0.2","9","0","555867","699.2","5705.5","40075.4","1","4","4","6","2","-4","-4","25","29","0.1893939393939394","1500.6","3000","-2300","[""down"",""left""]","{""num_key_presses"":9,""num_perfect"":2,""num_errors"":0,""num_randdir"":7,""num_randdir_good_moves"":3,""num_whilered"":0,""num_whileblue"":0,""num_blue"":2,""num_good_moves"":5}","[808,809.796875,0.1,808,809.796875,102.7,808,809.796875,210,808,809.796875,311.1,808,809.796875,411.7,848,803.796875,511.8,534,1205.796875,616.3,404,1357.796875,725,404,1357.796875,831.8,222,1441.796875,937.2,154,1487.796875,1042,154,1487.796875,1142.4,154,1487.796875,1248,154,1487.796875,1352,154,1487.796875,1454.7,154,1487.796875,1557.3,154,1487.796875,1661.8,154,1487.796875,1766.7,154,1487.796875,1871.3,154,1487.796875,1975.5,154,1487.796875,2082.5,154,1487.796875,2186.7,154,1487.796875,2291.9,154,1487.796875,2396.9,154,1487.796875,2497.1,154,1487.796875,2600.5,154,1487.796875,2705.3,154,1487.796875,2806.7,154,1487.796875,2906.7,154,1487.796875,3011.2,154,1487.796875,3112.9,154,1487.796875,3216.7,154,1487.796875,3317.8,154,1487.796875,3420.8,154,1487.796875,3522,154,1487.796875,3626.1,154,1487.796875,3726.8,154,1487.796875,3835.7,154,1487.796875,3936.5,154,1487.796875,4041.6,154,1487.796875,4141.7,154,1487.796875,4247,154,1487.796875,4351.5,154,1487.796875,4454.2,154,1487.796875,4555.3,154,1487.796875,4659.6,154,1487.796875,4762.2,154,1487.796875,4862.7,154,1487.796875,4967.1]","[1615.2,1615.2,1000,0,615.2,""smooth"",""left"",""left"",""good_move"",4519.8,2904.3,2564.4,1615.5,339.9,""smooth"",""down"",""down"",""good_move"",7708.5,3188.3,2784,4520.2,404.3,""oops"",""down"",""right"",""bad_move"",14245.8,6537.2,2525,11378.7,342.1,""oops"",""left"",""right"",""bad_move"",16984.7,2738.7,2361.8,14246,376.9,""oops"",""down"",""left"",""good_move"",19679,2694.3,2420.1,16984.7,274.2,""oops"",""down"",""down"",""good_move"",22451.9,2772.8,2393.4,19679.1,379.4,""oops"",""down"",""right"",""bad_move"",28603.6,6151.5,2015.5,26225.1,363,""oops"",""left"",""up"",""bad_move"",31367.9,2764.1,2408.8,28603.8,355.3,""oops"",""left"",""down"",""good_move""]","",""
"2882","","<div style=""width:500px;"">
  <p>What determined the result of this run?</p>
  </div>","1","html-slider-response","50","600685","0.0-5.0-1.8","17","1","2025-07-09 08:43:02","01610cd0009c79a99da7d0a3353eb402","86.1.242.218","Mozilla/5.0 (Macintosh; Intel Mac OS X 10_15_7) AppleWebKit/537.36 (KHTML, like Gecko) Chrome/137.0.0.0 Safari/537.36","Macintosh","Chrome","137.0.0.0","OS X","10_15_7","https://app.prolific.com/","en-GB,en-US;q=0.9,en;q=0.8","6620f5de5edae6e60f556986","683db7602f5db6a34d12d064","686e2b4b318a93835664c88c","1","6620f5de5edae6e60f556986","1","2025-07-09T08:53:04.064Z","","","","","","","","","","","AttribQ","","50","","","","","","","","","","","","","","","","","","","","","","","","","","","","",""
"2149","","<div style=""width:500px;"">
  <p>How much control did you have over the ball?</p>
  </div>","0","html-slider-response","51","602835","0.0-5.0-2.8","17","1","2025-07-09 08:43:02","01610cd0009c79a99da7d0a3353eb402","86.1.242.218","Mozilla/5.0 (Macintosh; Intel Mac OS X 10_15_7) AppleWebKit/537.36 (KHTML, like Gecko) Chrome/137.0.0.0 Safari/537.36","Macintosh","Chrome","137.0.0.0","OS X","10_15_7","https://app.prolific.com/","en-GB,en-US;q=0.9,en;q=0.8","6620f5de5edae6e60f556986","683db7602f5db6a34d12d064","686e2b4b318a93835664c88c","1","6620f5de5edae6e60f556986","1","2025-07-09T08:53:06.214Z","","","","","","","","","","","ControlQ","","50","","","","","","","","","","","","","","","","","","","","","","","","","","","","",""
"1550","","<div style=""width:500px;"">
  <p>How would you describe your current emotional state?</p>
  </div>","94","html-slider-response","52","604386","0.0-5.0-3.8","17","1","2025-07-09 08:43:02","01610cd0009c79a99da7d0a3353eb402","86.1.242.218","Mozilla/5.0 (Macintosh; Intel Mac OS X 10_15_7) AppleWebKit/537.36 (KHTML, like Gecko) Chrome/137.0.0.0 Safari/537.36","Macintosh","Chrome","137.0.0.0","OS X","10_15_7","https://app.prolific.com/","en-GB,en-US;q=0.9,en;q=0.8","6620f5de5edae6e60f556986","683db7602f5db6a34d12d064","686e2b4b318a93835664c88c","1","6620f5de5edae6e60f556986","1","2025-07-09T08:53:07.765Z","","","","","","","","","","","StressQ","","50","","","","","","","","","","","","","","","","","","","","","","","","","","","","",""
"3182","","<div style=""width:500px;"">
  <p>What best describes how you currently feel?</p>
  </div>","60","html-slider-response","53","607568","0.0-5.0-4.8","17","1","2025-07-09 08:43:02","01610cd0009c79a99da7d0a3353eb402","86.1.242.218","Mozilla/5.0 (Macintosh; Intel Mac OS X 10_15_7) AppleWebKit/537.36 (KHTML, like Gecko) Chrome/137.0.0.0 Safari/537.36","Macintosh","Chrome","137.0.0.0","OS X","10_15_7","https://app.prolific.com/","en-GB,en-US;q=0.9,en;q=0.8","6620f5de5edae6e60f556986","683db7602f5db6a34d12d064","686e2b4b318a93835664c88c","1","6620f5de5edae6e60f556986","1","2025-07-09T08:53:10.948Z","","","","","","","","","","","MotivationQ","","50","","","","","","","","","","","","","","","","","","","","","","","","","","","","",""
"","","","","ctl-task-cpt","54","669245","0.0-5.0-0.9","17","1","2025-07-09 08:43:02","01610cd0009c79a99da7d0a3353eb402","86.1.242.218","Mozilla/5.0 (Macintosh; Intel Mac OS X 10_15_7) AppleWebKit/537.36 (KHTML, like Gecko) Chrome/137.0.0.0 Safari/537.36","Macintosh","Chrome","137.0.0.0","OS X","10_15_7","https://app.prolific.com/","en-GB,en-US;q=0.9,en;q=0.8","6620f5de5edae6e60f556986","683db7602f5db6a34d12d064","686e2b4b318a93835664c88c","1","6620f5de5edae6e60f556986","1","2025-07-09T08:54:12.624Z","","","","","","","","","","","","","","win-only","0","g1:NW,g2:SE","0.4","10","0","608717.8","1115.7","6121.1","58660.3","1","4","8","6","2","-8","-8","17","25","0.12878787878787878","912.3","3000","-2265","[""down"",""right""]","{""num_key_presses"":12,""num_perfect"":4,""num_errors"":0,""num_randdir"":8,""num_randdir_good_moves"":3,""num_whilered"":0,""num_whileblue"":0,""num_blue"":4,""num_good_moves"":7}","[800,809.796875,0,800,809.796875,100.3,800,809.796875,201.7,800,809.796875,310.2,960,905.796875,414.3,1188,1121.796875,514.6,1190,1131.796875,615,1272,1193.796875,715.5,1466,1385.796875,824.5,1466,1391.796875,928.7,1466,1391.796875,1034.9,1466,1391.796875,1135.6,1466,1391.796875,1240,1466,1391.796875,1340.6,1466,1391.796875,1450.5,1466,1391.796875,1551.3,1466,1391.796875,1660.3,1466,1391.796875,1765.3,1466,1391.796875,1869.6,1466,1391.796875,1969.9,1466,1391.796875,2079.4,1466,1391.796875,2184.9,1466,1391.796875,2285.9,1466,1391.796875,2390.5,1466,1391.796875,2495.4,1466,1391.796875,2599.9,1466,1391.796875,2705.3,1466,1391.796875,2812.7,1466,1391.796875,2915.1,1466,1391.796875,3019.6,1466,1391.796875,3120.1,1466,1391.796875,3225.2,1466,1391.796875,3330.1,1466,1391.796875,3435.8,1466,1391.796875,3544.9,1466,1391.796875,3645.1,1466,1391.796875,3745.3,1466,1391.796875,3850.5,1466,1391.796875,3955.6,1466,1391.796875,4056.1,1466,1391.796875,4159.5,1466,1391.796875,4260.5,1466,1391.796875,4360.9,1466,1391.796875,4465.3,1466,1391.796875,4570.9,1466,1391.796875,4672.1,1466,1391.796875,4779.6,1466,1391.796875,4880.3,1466,1391.796875,4984.8]","[4793.4,4793.5,2434.2,2009.3,350,""smooth"",""down"",""down"",""good_move"",7895.9,3102.3,2810.6,4793.6,291.7,""oops"",""down"",""up"",""bad_move"",10295.5,2399.4,1982.4,7896.1,417,""oops"",""down"",""down"",""good_move"",13345.2,3049.7,2713.2,10295.5,336.5,""smooth"",""right"",""right"",""good_move"",16244,2898.6,2560.1,13345.4,338.5,""smooth"",""right"",""right"",""good_move"",19396.7,3152.4,2816.1,16244.3,336.3,""oops"",""down"",""down"",""good_move"",27261.6,7864.6,3219.6,23734.3,307.7,""smooth"",""down"",""down"",""good_move"",30935.1,3673.3,3405.5,27261.8,267.8,""oops"",""right"",""left"",""bad_move"",33091.3,2156,1816.1,30935.3,339.9,""oops"",""right"",""up"",""bad_move"",39880.1,6788.5,2684.6,36820.3,375.2,""oops"",""right"",""up"",""bad_move"",42581.1,2700.9,2403.7,39880.2,297.2,""oops"",""down"",""up"",""bad_move"",45781.4,3200.2,2838.9,42581.2,361.3,""oops"",""down"",""right"",""good_move""]","",""
"1654","","<div style=""width:500px;"">
  <p>What determined the result of this run?</p>
  </div>","0","html-slider-response","55","670900","0.0-5.0-1.9","17","1","2025-07-09 08:43:02","01610cd0009c79a99da7d0a3353eb402","86.1.242.218","Mozilla/5.0 (Macintosh; Intel Mac OS X 10_15_7) AppleWebKit/537.36 (KHTML, like Gecko) Chrome/137.0.0.0 Safari/537.36","Macintosh","Chrome","137.0.0.0","OS X","10_15_7","https://app.prolific.com/","en-GB,en-US;q=0.9,en;q=0.8","6620f5de5edae6e60f556986","683db7602f5db6a34d12d064","686e2b4b318a93835664c88c","1","6620f5de5edae6e60f556986","1","2025-07-09T08:54:14.279Z","","","","","","","","","","","AttribQ","","50","","","","","","","","","","","","","","","","","","","","","","","","","","","","",""
"1650","","<div style=""width:500px;"">
  <p>How much control did you have over the ball?</p>
  </div>","0","html-slider-response","56","672550","0.0-5.0-2.9","17","1","2025-07-09 08:43:02","01610cd0009c79a99da7d0a3353eb402","86.1.242.218","Mozilla/5.0 (Macintosh; Intel Mac OS X 10_15_7) AppleWebKit/537.36 (KHTML, like Gecko) Chrome/137.0.0.0 Safari/537.36","Macintosh","Chrome","137.0.0.0","OS X","10_15_7","https://app.prolific.com/","en-GB,en-US;q=0.9,en;q=0.8","6620f5de5edae6e60f556986","683db7602f5db6a34d12d064","686e2b4b318a93835664c88c","1","6620f5de5edae6e60f556986","1","2025-07-09T08:54:15.929Z","","","","","","","","","","","ControlQ","","50","","","","","","","","","","","","","","","","","","","","","","","","","","","","",""
"2315","","<div style=""width:500px;"">
  <p>How would you describe your current emotional state?</p>
  </div>","100","html-slider-response","57","674866","0.0-5.0-3.9","17","1","2025-07-09 08:43:02","01610cd0009c79a99da7d0a3353eb402","86.1.242.218","Mozilla/5.0 (Macintosh; Intel Mac OS X 10_15_7) AppleWebKit/537.36 (KHTML, like Gecko) Chrome/137.0.0.0 Safari/537.36","Macintosh","Chrome","137.0.0.0","OS X","10_15_7","https://app.prolific.com/","en-GB,en-US;q=0.9,en;q=0.8","6620f5de5edae6e60f556986","683db7602f5db6a34d12d064","686e2b4b318a93835664c88c","1","6620f5de5edae6e60f556986","1","2025-07-09T08:54:18.245Z","","","","","","","","","","","StressQ","","50","","","","","","","","","","","","","","","","","","","","","","","","","","","","",""
"3433","","<div style=""width:500px;"">
  <p>What best describes how you currently feel?</p>
  </div>","42","html-slider-response","58","678300","0.0-5.0-4.9","17","1","2025-07-09 08:43:02","01610cd0009c79a99da7d0a3353eb402","86.1.242.218","Mozilla/5.0 (Macintosh; Intel Mac OS X 10_15_7) AppleWebKit/537.36 (KHTML, like Gecko) Chrome/137.0.0.0 Safari/537.36","Macintosh","Chrome","137.0.0.0","OS X","10_15_7","https://app.prolific.com/","en-GB,en-US;q=0.9,en;q=0.8","6620f5de5edae6e60f556986","683db7602f5db6a34d12d064","686e2b4b318a93835664c88c","1","6620f5de5edae6e60f556986","1","2025-07-09T08:54:21.679Z","","","","","","","","","","","MotivationQ","","50","","","","","","","","","","","","","","","","","","","","","","","","","","","","",""
"","","","","ctl-task-cpt","59","707942","0.0-5.0-0.10","17","1","2025-07-09 08:43:02","01610cd0009c79a99da7d0a3353eb402","86.1.242.218","Mozilla/5.0 (Macintosh; Intel Mac OS X 10_15_7) AppleWebKit/537.36 (KHTML, like Gecko) Chrome/137.0.0.0 Safari/537.36","Macintosh","Chrome","137.0.0.0","OS X","10_15_7","https://app.prolific.com/","en-GB,en-US;q=0.9,en;q=0.8","6620f5de5edae6e60f556986","683db7602f5db6a34d12d064","686e2b4b318a93835664c88c","1","6620f5de5edae6e60f556986","1","2025-07-09T08:54:51.321Z","","","","","","","","","","","","","","win-only","3","g1:SW,g2:NE","0.5","11","0","679451.6","1015.3","6023","26632.6","1","4","4","6","2","4","4","21","17","0.1590909090909091","1499.6","3000","1455","[""up"",""right""]","{""num_key_presses"":6,""num_perfect"":4,""num_errors"":0,""num_randdir"":2,""num_randdir_good_moves"":2,""num_whilered"":0,""num_whileblue"":0,""num_blue"":1,""num_good_moves"":6}","[804,801.796875,0.2,804,801.796875,106.3,804,801.796875,208.3,804,801.796875,310.5,796,823.796875,410.7,574,1155.796875,514.1,432,1211.796875,614.1,1112,371.796875,718.8,1356,113.796875,823.4,1356,113.796875,925.2,1426,113.796875,1030.4,1458,119.796875,1133.3,1458,121.796875,1233.7,1458,121.796875,1343.2,1460,121.796875,1445.6,1460,121.796875,1550.8,1460,121.796875,1658.4,1460,121.796875,1763.8,1460,121.796875,1864.2,1460,121.796875,1969,1460,121.796875,2070.6,1460,121.796875,2175.9,1460,121.796875,2281,1460,121.796875,2383.4,1460,121.796875,2491.8,1460,121.796875,2598.1,1460,121.796875,2699.9,1460,121.796875,2800.1,1460,121.796875,2905.6,1460,121.796875,3006.7,1460,121.796875,3107,1460,121.796875,3208.2,1460,121.796875,3310.3,1460,121.796875,3410.5,1460,121.796875,3515.2,1460,121.796875,3615.7,1460,121.796875,3716.9,1460,121.796875,3822.4,1460,121.796875,3923.4,1460,121.796875,4026.2,1460,121.796875,4130.7,1460,121.796875,4235.1,1460,121.796875,4344.1,1460,121.796875,4446.1,1460,121.796875,4548.9,1460,121.796875,4650.7,1460,121.796875,4754.9,1460,121.796875,4855.2,1460,121.796875,4957.6]","[1351.4,1351.4,1000,0,351.4,""smooth"",""right"",""right"",""good_move"",8586.5,7234.7,2436,5754.6,395.9,""oops"",""up"",""right"",""good_move"",11382.9,2796.1,2399.8,8586.8,396.3,""smooth"",""up"",""up"",""good_move"",14841.7,3458.6,3124.3,11383.1,334.3,""smooth"",""up"",""up"",""good_move"",18383.8,3542.1,3224.9,14841.7,317.2,""smooth"",""up"",""up"",""good_move"",20497.4,2113.5,1785.2,18383.9,328.3,""oops"",""right"",""right"",""good_move""]","",""
"2122","","<div style=""width:500px;"">
  <p>What determined the result of this run?</p>
  </div>","1","html-slider-response","60","710065","0.0-5.0-1.10","17","1","2025-07-09 08:43:02","01610cd0009c79a99da7d0a3353eb402","86.1.242.218","Mozilla/5.0 (Macintosh; Intel Mac OS X 10_15_7) AppleWebKit/537.36 (KHTML, like Gecko) Chrome/137.0.0.0 Safari/537.36","Macintosh","Chrome","137.0.0.0","OS X","10_15_7","https://app.prolific.com/","en-GB,en-US;q=0.9,en;q=0.8","6620f5de5edae6e60f556986","683db7602f5db6a34d12d064","686e2b4b318a93835664c88c","1","6620f5de5edae6e60f556986","1","2025-07-09T08:54:53.444Z","","","","","","","","","","","AttribQ","","50","","","","","","","","","","","","","","","","","","","","","","","","","","","","",""
"1616","","<div style=""width:500px;"">
  <p>How much control did you have over the ball?</p>
  </div>","13","html-slider-response","61","711681","0.0-5.0-2.10","17","1","2025-07-09 08:43:02","01610cd0009c79a99da7d0a3353eb402","86.1.242.218","Mozilla/5.0 (Macintosh; Intel Mac OS X 10_15_7) AppleWebKit/537.36 (KHTML, like Gecko) Chrome/137.0.0.0 Safari/537.36","Macintosh","Chrome","137.0.0.0","OS X","10_15_7","https://app.prolific.com/","en-GB,en-US;q=0.9,en;q=0.8","6620f5de5edae6e60f556986","683db7602f5db6a34d12d064","686e2b4b318a93835664c88c","1","6620f5de5edae6e60f556986","1","2025-07-09T08:54:55.060Z","","","","","","","","","","","ControlQ","","50","","","","","","","","","","","","","","","","","","","","","","","","","","","","",""
"1750","","<div style=""width:500px;"">
  <p>How would you describe your current emotional state?</p>
  </div>","93","html-slider-response","62","713431","0.0-5.0-3.10","17","1","2025-07-09 08:43:02","01610cd0009c79a99da7d0a3353eb402","86.1.242.218","Mozilla/5.0 (Macintosh; Intel Mac OS X 10_15_7) AppleWebKit/537.36 (KHTML, like Gecko) Chrome/137.0.0.0 Safari/537.36","Macintosh","Chrome","137.0.0.0","OS X","10_15_7","https://app.prolific.com/","en-GB,en-US;q=0.9,en;q=0.8","6620f5de5edae6e60f556986","683db7602f5db6a34d12d064","686e2b4b318a93835664c88c","1","6620f5de5edae6e60f556986","1","2025-07-09T08:54:56.810Z","","","","","","","","","","","StressQ","","50","","","","","","","","","","","","","","","","","","","","","","","","","","","","",""
"2433","","<div style=""width:500px;"">
  <p>What best describes how you currently feel?</p>
  </div>","40","html-slider-response","63","715865","0.0-5.0-4.10","17","1","2025-07-09 08:43:02","01610cd0009c79a99da7d0a3353eb402","86.1.242.218","Mozilla/5.0 (Macintosh; Intel Mac OS X 10_15_7) AppleWebKit/537.36 (KHTML, like Gecko) Chrome/137.0.0.0 Safari/537.36","Macintosh","Chrome","137.0.0.0","OS X","10_15_7","https://app.prolific.com/","en-GB,en-US;q=0.9,en;q=0.8","6620f5de5edae6e60f556986","683db7602f5db6a34d12d064","686e2b4b318a93835664c88c","1","6620f5de5edae6e60f556986","1","2025-07-09T08:54:59.244Z","","","","","","","","","","","MotivationQ","","50","","","","","","","","","","","","","","","","","","","","","","","","","","","","",""
"","","","","ctl-task-cpt","64","745914","0.0-5.0-0.11","17","1","2025-07-09 08:43:02","01610cd0009c79a99da7d0a3353eb402","86.1.242.218","Mozilla/5.0 (Macintosh; Intel Mac OS X 10_15_7) AppleWebKit/537.36 (KHTML, like Gecko) Chrome/137.0.0.0 Safari/537.36","Macintosh","Chrome","137.0.0.0","OS X","10_15_7","https://app.prolific.com/","en-GB,en-US;q=0.9,en;q=0.8","6620f5de5edae6e60f556986","683db7602f5db6a34d12d064","686e2b4b318a93835664c88c","1","6620f5de5edae6e60f556986","1","2025-07-09T08:55:29.294Z","","","","","","","","","","","","","","win-only","2","g1:SE,g2:NW","0.6","12","0","717017.4","698.6","5703.5","27032.6","1","4","8","6","2","8","8","29","21","0.2196969696969697","1167.1","3000","970","[""left"",""up""]","{""num_key_presses"":8,""num_perfect"":5,""num_errors"":0,""num_randdir"":3,""num_randdir_good_moves"":2,""num_whilered"":0,""num_whileblue"":0,""num_blue"":0,""num_good_moves"":7}","[818,787.796875,0.2,818,785.796875,102.1,818,785.796875,202.5,818,785.796875,312.3,982,933.796875,420.1,956,1001.796875,526.7,554,539.796875,626.9,554,539.796875,726.9,484,493.796875,827.2,314,313.796875,933.2,276,257.796875,1042.2,244,221.796875,1149.7,244,219.796875,1252.2,244,219.796875,1357.4,244,219.796875,1462.3,244,219.796875,1567.1,244,219.796875,1678.5,244,219.796875,1779.1,244,219.796875,1882.1,244,219.796875,1982.5,244,219.796875,2090,244,219.796875,2198.2,244,219.796875,2302.1,244,219.796875,2410.5,244,219.796875,2512.4,244,219.796875,2617.3,244,219.796875,2725.1,244,219.796875,2829.2,244,219.796875,2934.1,244,219.796875,3039.3,244,219.796875,3142.2,244,219.796875,3242.6,244,219.796875,3347.2,244,219.796875,3449.7,244,219.796875,3555.3,244,219.796875,3660,244,219.796875,3761.5,244,219.796875,3862.7,244,219.796875,3966.6,244,219.796875,4069.2,244,219.796875,4172.3,244,219.796875,4274.9,244,219.796875,4379.2,244,219.796875,4483.4,244,219.796875,4590.5,244,219.796875,4692.1,244,219.796875,4795,244,219.796875,4900.7]","[1587.3,1587.3,1000,0,587.3,""smooth"",""left"",""left"",""good_move"",4134.8,2547.2,2229.2,1587.6,318,""smooth"",""left"",""left"",""good_move"",6234.1,2099.2,1800.7,4134.9,298.5,""oops"",""up"",""up"",""good_move"",9772,3537.7,3214.6,6234.3,323.1,""oops"",""left"",""left"",""good_move"",12123.6,2351.4,2012.9,9772.2,338.5,""oops"",""up"",""down"",""bad_move"",14705.1,2581.3,2296.9,12123.8,284.4,""smooth"",""up"",""up"",""good_move"",18357.1,3651.7,3372.7,14705.4,279,""smooth"",""up"",""up"",""good_move"",21137.8,2780.6,2509.9,18357.2,270.7,""smooth"",""up"",""up"",""good_move""]","",""
"1748","","<div style=""width:500px;"">
  <p>What determined the result of this run?</p>
  </div>","3","html-slider-response","65","747663","0.0-5.0-1.11","17","1","2025-07-09 08:43:02","01610cd0009c79a99da7d0a3353eb402","86.1.242.218","Mozilla/5.0 (Macintosh; Intel Mac OS X 10_15_7) AppleWebKit/537.36 (KHTML, like Gecko) Chrome/137.0.0.0 Safari/537.36","Macintosh","Chrome","137.0.0.0","OS X","10_15_7","https://app.prolific.com/","en-GB,en-US;q=0.9,en;q=0.8","6620f5de5edae6e60f556986","683db7602f5db6a34d12d064","686e2b4b318a93835664c88c","1","6620f5de5edae6e60f556986","1","2025-07-09T08:55:31.042Z","","","","","","","","","","","AttribQ","","50","","","","","","","","","","","","","","","","","","","","","","","","","","","","",""
"1949","","<div style=""width:500px;"">
  <p>How much control did you have over the ball?</p>
  </div>","18","html-slider-response","66","749612","0.0-5.0-2.11","17","1","2025-07-09 08:43:02","01610cd0009c79a99da7d0a3353eb402","86.1.242.218","Mozilla/5.0 (Macintosh; Intel Mac OS X 10_15_7) AppleWebKit/537.36 (KHTML, like Gecko) Chrome/137.0.0.0 Safari/537.36","Macintosh","Chrome","137.0.0.0","OS X","10_15_7","https://app.prolific.com/","en-GB,en-US;q=0.9,en;q=0.8","6620f5de5edae6e60f556986","683db7602f5db6a34d12d064","686e2b4b318a93835664c88c","1","6620f5de5edae6e60f556986","1","2025-07-09T08:55:32.992Z","","","","","","","","","","","ControlQ","","50","","","","","","","","","","","","","","","","","","","","","","","","","","","","",""
"1951","","<div style=""width:500px;"">
  <p>How would you describe your current emotional state?</p>
  </div>","93","html-slider-response","67","751564","0.0-5.0-3.11","17","1","2025-07-09 08:43:02","01610cd0009c79a99da7d0a3353eb402","86.1.242.218","Mozilla/5.0 (Macintosh; Intel Mac OS X 10_15_7) AppleWebKit/537.36 (KHTML, like Gecko) Chrome/137.0.0.0 Safari/537.36","Macintosh","Chrome","137.0.0.0","OS X","10_15_7","https://app.prolific.com/","en-GB,en-US;q=0.9,en;q=0.8","6620f5de5edae6e60f556986","683db7602f5db6a34d12d064","686e2b4b318a93835664c88c","1","6620f5de5edae6e60f556986","1","2025-07-09T08:55:34.943Z","","","","","","","","","","","StressQ","","50","","","","","","","","","","","","","","","","","","","","","","","","","","","","",""
"1616","","<div style=""width:500px;"">
  <p>What best describes how you currently feel?</p>
  </div>","28","html-slider-response","68","753180","0.0-5.0-4.11","17","1","2025-07-09 08:43:02","01610cd0009c79a99da7d0a3353eb402","86.1.242.218","Mozilla/5.0 (Macintosh; Intel Mac OS X 10_15_7) AppleWebKit/537.36 (KHTML, like Gecko) Chrome/137.0.0.0 Safari/537.36","Macintosh","Chrome","137.0.0.0","OS X","10_15_7","https://app.prolific.com/","en-GB,en-US;q=0.9,en;q=0.8","6620f5de5edae6e60f556986","683db7602f5db6a34d12d064","686e2b4b318a93835664c88c","1","6620f5de5edae6e60f556986","1","2025-07-09T08:55:36.559Z","","","","","","","","","","","MotivationQ","","50","","","","","","","","","","","","","","","","","","","","","","","","","","","","",""
"","","","","ctl-task-cpt","69","776832","0.0-5.0-0.12","17","1","2025-07-09 08:43:02","01610cd0009c79a99da7d0a3353eb402","86.1.242.218","Mozilla/5.0 (Macintosh; Intel Mac OS X 10_15_7) AppleWebKit/537.36 (KHTML, like Gecko) Chrome/137.0.0.0 Safari/537.36","Macintosh","Chrome","137.0.0.0","OS X","10_15_7","https://app.prolific.com/","en-GB,en-US;q=0.9,en;q=0.8","6620f5de5edae6e60f556986","683db7602f5db6a34d12d064","686e2b4b318a93835664c88c","1","6620f5de5edae6e60f556986","1","2025-07-09T08:56:00.211Z","","","","","","","","","","","","","","win-only","0","g1:NW,g2:SE","0.7","13","0","754333.6","1100.6","6103.2","20635.5","1","4","8","6","2","8","8","37","29","0.2803030303030303","865.8","3000","1850","[""down"",""right""]","{""num_key_presses"":6,""num_perfect"":3,""num_errors"":0,""num_randdir"":3,""num_randdir_good_moves"":3,""num_whilered"":0,""num_whileblue"":0,""num_blue"":0,""num_good_moves"":6}","[810,813.796875,0.1,810,813.796875,109.1,810,813.796875,209.7,810,813.796875,313.7,880,833.796875,418.2,1502,1253.796875,523.1,1510,1265.796875,625,1514,1297.796875,728,1520,1437.796875,830.1,1518,1447.796875,938.5,1518,1447.796875,1048.8,1518,1447.796875,1155.9,1518,1447.796875,1260.5,1518,1447.796875,1360.8,1518,1447.796875,1461.4,1518,1447.796875,1568.9,1518,1447.796875,1675.9,1518,1447.796875,1776.6,1518,1447.796875,1879.7,1518,1447.796875,1980.1,1518,1447.796875,2080.6,1518,1447.796875,2186.4,1518,1447.796875,2291.3,1518,1447.796875,2392.9,1518,1447.796875,2495.2,1518,1447.796875,2600.1,1518,1447.796875,2700.2,1518,1447.796875,2807.8,1518,1447.796875,2910.5,1518,1447.796875,3013.2,1518,1447.796875,3115.5,1518,1447.796875,3219.7,1518,1447.796875,3320.2,1518,1447.796875,3426.6,1518,1447.796875,3529.4,1518,1447.796875,3632.3,1518,1447.796875,3732.5,1518,1447.796875,3835,1518,1447.796875,3944,1518,1447.796875,4044.6,1518,1447.796875,4148.5,1518,1447.796875,4251.9,1518,1447.796875,4357.3,1518,1447.796875,4459.6,1518,1447.796875,4560.5,1518,1447.796875,4665.4,1518,1447.796875,4767.7,1518,1447.796875,4868.4,1518,1447.796875,4971.1]","[1318.9,1318.9,1000,0,318.9,""smooth"",""right"",""right"",""good_move"",3857.4,2538.3,2209.9,1319.1,328.4,""smooth"",""right"",""right"",""good_move"",5816.7,1959.1,1653.1,3857.6,306,""oops"",""down"",""right"",""good_move"",8233.8,2417,2081.4,5816.8,335.6,""oops"",""down"",""down"",""good_move"",11108.6,2874.5,2546.3,8234.1,328.2,""oops"",""down"",""down"",""good_move"",14415,3306.2,2975.9,11108.8,330.3,""smooth"",""down"",""down"",""good_move""]","",""
"2346","","<div style=""width:500px;"">
  <p>What determined the result of this run?</p>
  </div>","7","html-slider-response","70","779179","0.0-5.0-1.12","17","1","2025-07-09 08:43:02","01610cd0009c79a99da7d0a3353eb402","86.1.242.218","Mozilla/5.0 (Macintosh; Intel Mac OS X 10_15_7) AppleWebKit/537.36 (KHTML, like Gecko) Chrome/137.0.0.0 Safari/537.36","Macintosh","Chrome","137.0.0.0","OS X","10_15_7","https://app.prolific.com/","en-GB,en-US;q=0.9,en;q=0.8","6620f5de5edae6e60f556986","683db7602f5db6a34d12d064","686e2b4b318a93835664c88c","1","6620f5de5edae6e60f556986","1","2025-07-09T08:56:02.558Z","","","","","","","","","","","AttribQ","","50","","","","","","","","","","","","","","","","","","","","","","","","","","","","",""
"2632","","<div style=""width:500px;"">
  <p>How much control did you have over the ball?</p>
  </div>","11","html-slider-response","71","781811","0.0-5.0-2.12","17","1","2025-07-09 08:43:02","01610cd0009c79a99da7d0a3353eb402","86.1.242.218","Mozilla/5.0 (Macintosh; Intel Mac OS X 10_15_7) AppleWebKit/537.36 (KHTML, like Gecko) Chrome/137.0.0.0 Safari/537.36","Macintosh","Chrome","137.0.0.0","OS X","10_15_7","https://app.prolific.com/","en-GB,en-US;q=0.9,en;q=0.8","6620f5de5edae6e60f556986","683db7602f5db6a34d12d064","686e2b4b318a93835664c88c","1","6620f5de5edae6e60f556986","1","2025-07-09T08:56:05.190Z","","","","","","","","","","","ControlQ","","50","","","","","","","","","","","","","","","","","","","","","","","","","","","","",""
"1216","","<div style=""width:500px;"">
  <p>How would you describe your current emotional state?</p>
  </div>","84","html-slider-response","72","783028","0.0-5.0-3.12","17","1","2025-07-09 08:43:02","01610cd0009c79a99da7d0a3353eb402","86.1.242.218","Mozilla/5.0 (Macintosh; Intel Mac OS X 10_15_7) AppleWebKit/537.36 (KHTML, like Gecko) Chrome/137.0.0.0 Safari/537.36","Macintosh","Chrome","137.0.0.0","OS X","10_15_7","https://app.prolific.com/","en-GB,en-US;q=0.9,en;q=0.8","6620f5de5edae6e60f556986","683db7602f5db6a34d12d064","686e2b4b318a93835664c88c","1","6620f5de5edae6e60f556986","1","2025-07-09T08:56:06.407Z","","","","","","","","","","","StressQ","","50","","","","","","","","","","","","","","","","","","","","","","","","","","","","",""
"1483","","<div style=""width:500px;"">
  <p>What best describes how you currently feel?</p>
  </div>","38","html-slider-response","73","784512","0.0-5.0-4.12","17","1","2025-07-09 08:43:02","01610cd0009c79a99da7d0a3353eb402","86.1.242.218","Mozilla/5.0 (Macintosh; Intel Mac OS X 10_15_7) AppleWebKit/537.36 (KHTML, like Gecko) Chrome/137.0.0.0 Safari/537.36","Macintosh","Chrome","137.0.0.0","OS X","10_15_7","https://app.prolific.com/","en-GB,en-US;q=0.9,en;q=0.8","6620f5de5edae6e60f556986","683db7602f5db6a34d12d064","686e2b4b318a93835664c88c","1","6620f5de5edae6e60f556986","1","2025-07-09T08:56:07.891Z","","","","","","","","","","","MotivationQ","","50","","","","","","","","","","","","","","","","","","","","","","","","","","","","",""
"","","","","ctl-task-cpt","74","982837","0.0-5.0-0.13","17","1","2025-07-09 08:43:02","01610cd0009c79a99da7d0a3353eb402","86.1.242.218","Mozilla/5.0 (Macintosh; Intel Mac OS X 10_15_7) AppleWebKit/537.36 (KHTML, like Gecko) Chrome/137.0.0.0 Safari/537.36","Macintosh","Chrome","137.0.0.0","OS X","10_15_7","https://app.prolific.com/","en-GB,en-US;q=0.9,en;q=0.8","6620f5de5edae6e60f556986","683db7602f5db6a34d12d064","686e2b4b318a93835664c88c","1","6620f5de5edae6e60f556986","1","2025-07-09T08:59:26.216Z","","","","","","","","","","","","","","win-only","2","g1:SE,g2:NW","0.8","14","0","785667.6","174428.1","179430.4","195315.6","1","4","4","6","1","1","1","38","37","0.2878787878787879","1800.4","3000","1890","[""down"",""right""]","{""num_key_presses"":6,""num_perfect"":5,""num_errors"":0,""num_randdir"":1,""num_randdir_good_moves"":0,""num_whilered"":0,""num_whileblue"":0,""num_blue"":0,""num_good_moves"":5}","[806,821.796875,0.3,806,821.796875,110.4,806,821.796875,212.5,874,849.796875,312.7,1360,1289.796875,413.2,738,1015.796875,523.8,452,683.796875,635.6,452,683.796875,747,286,505.796875,847.8,118,359.796875,952.7,100,313.796875,1059.2,464,411.796875,1167.8,1138,1157.796875,1277.3,1138,1157.796875,1389.9,1254,1243.796875,1492.4,1398,1363.796875,1592.8,1466,1391.796875,1697.7,1504,1419.796875,1815.7,1504,1419.796875,1916.6,1504,1419.796875,2018.2,1504,1419.796875,2122.8,1504,1419.796875,2227.4,1504,1419.796875,2327.7,1504,1419.796875,2438.6,1504,1419.796875,2552.1,1504,1419.796875,2652.4,1504,1419.796875,2757.5,1504,1419.796875,2858.3,1504,1419.796875,2974.9,1504,1419.796875,3077.3,1504,1419.796875,3188.9,1504,1419.796875,3292.1,1504,1419.796875,3392.2,1504,1419.796875,3493,1504,1419.796875,3602.4,1504,1419.796875,3714.7,1504,1419.796875,3827.9,1504,1419.796875,3932.3,1504,1419.796875,4033.3,1504,1419.796875,4137.5,1504,1419.796875,4237.5,1504,1419.796875,4342.8,1504,1419.796875,4446.8,1504,1419.796875,4547.8,1504,1419.796875,4648.3,1504,1419.796875,4752.3,1504,1419.796875,4866.8,1504,1419.796875,4978.1]","[1360.7,1360.7,1000,0,360.8,""smooth"",""right"",""right"",""good_move"",3881.7,2520.6,2226.8,1361.1,293.8,""oops"",""down"",""left"",""bad_move"",6349.6,2467.8,2134.2,3881.8,333.6,""smooth"",""down"",""down"",""good_move"",9486.1,3136.3,2833.9,6349.8,302.4,""smooth"",""right"",""right"",""good_move"",12467,2980.7,2707.5,9486.3,273.2,""smooth"",""down"",""down"",""good_move"",15698.2,3231,2875.7,12467.2,355.3,""smooth"",""right"",""right"",""good_move""]","",""
"1964","","<div style=""width:500px;"">
  <p>What determined the result of this run?</p>
  </div>","15","html-slider-response","75","984802","0.0-5.0-1.13","17","1","2025-07-09 08:43:02","01610cd0009c79a99da7d0a3353eb402","86.1.242.218","Mozilla/5.0 (Macintosh; Intel Mac OS X 10_15_7) AppleWebKit/537.36 (KHTML, like Gecko) Chrome/137.0.0.0 Safari/537.36","Macintosh","Chrome","137.0.0.0","OS X","10_15_7","https://app.prolific.com/","en-GB,en-US;q=0.9,en;q=0.8","6620f5de5edae6e60f556986","683db7602f5db6a34d12d064","686e2b4b318a93835664c88c","1","6620f5de5edae6e60f556986","1","2025-07-09T08:59:28.181Z","","","","","","","","","","","AttribQ","","50","","","","","","","","","","","","","","","","","","","","","","","","","","","","",""
"2483","","<div style=""width:500px;"">
  <p>How much control did you have over the ball?</p>
  </div>","14","html-slider-response","76","987285","0.0-5.0-2.13","17","1","2025-07-09 08:43:02","01610cd0009c79a99da7d0a3353eb402","86.1.242.218","Mozilla/5.0 (Macintosh; Intel Mac OS X 10_15_7) AppleWebKit/537.36 (KHTML, like Gecko) Chrome/137.0.0.0 Safari/537.36","Macintosh","Chrome","137.0.0.0","OS X","10_15_7","https://app.prolific.com/","en-GB,en-US;q=0.9,en;q=0.8","6620f5de5edae6e60f556986","683db7602f5db6a34d12d064","686e2b4b318a93835664c88c","1","6620f5de5edae6e60f556986","1","2025-07-09T08:59:30.664Z","","","","","","","","","","","ControlQ","","50","","","","","","","","","","","","","","","","","","","","","","","","","","","","",""
"1298","","<div style=""width:500px;"">
  <p>How would you describe your current emotional state?</p>
  </div>","91","html-slider-response","77","988584","0.0-5.0-3.13","17","1","2025-07-09 08:43:02","01610cd0009c79a99da7d0a3353eb402","86.1.242.218","Mozilla/5.0 (Macintosh; Intel Mac OS X 10_15_7) AppleWebKit/537.36 (KHTML, like Gecko) Chrome/137.0.0.0 Safari/537.36","Macintosh","Chrome","137.0.0.0","OS X","10_15_7","https://app.prolific.com/","en-GB,en-US;q=0.9,en;q=0.8","6620f5de5edae6e60f556986","683db7602f5db6a34d12d064","686e2b4b318a93835664c88c","1","6620f5de5edae6e60f556986","1","2025-07-09T08:59:31.963Z","","","","","","","","","","","StressQ","","50","","","","","","","","","","","","","","","","","","","","","","","","","","","","",""
"2367","","<div style=""width:500px;"">
  <p>What best describes how you currently feel?</p>
  </div>","45","html-slider-response","78","990951","0.0-5.0-4.13","17","1","2025-07-09 08:43:02","01610cd0009c79a99da7d0a3353eb402","86.1.242.218","Mozilla/5.0 (Macintosh; Intel Mac OS X 10_15_7) AppleWebKit/537.36 (KHTML, like Gecko) Chrome/137.0.0.0 Safari/537.36","Macintosh","Chrome","137.0.0.0","OS X","10_15_7","https://app.prolific.com/","en-GB,en-US;q=0.9,en;q=0.8","6620f5de5edae6e60f556986","683db7602f5db6a34d12d064","686e2b4b318a93835664c88c","1","6620f5de5edae6e60f556986","1","2025-07-09T08:59:34.330Z","","","","","","","","","","","MotivationQ","","50","","","","","","","","","","","","","","","","","","","","","","","","","","","","",""
"","","","","ctl-task-cpt","79","1023864","0.0-5.0-0.14","17","1","2025-07-09 08:43:02","01610cd0009c79a99da7d0a3353eb402","86.1.242.218","Mozilla/5.0 (Macintosh; Intel Mac OS X 10_15_7) AppleWebKit/537.36 (KHTML, like Gecko) Chrome/137.0.0.0 Safari/537.36","Macintosh","Chrome","137.0.0.0","OS X","10_15_7","https://app.prolific.com/","en-GB,en-US;q=0.9,en;q=0.8","6620f5de5edae6e60f556986","683db7602f5db6a34d12d064","686e2b4b318a93835664c88c","1","6620f5de5edae6e60f556986","1","2025-07-09T09:00:07.243Z","","","","","","","","","","","","","","win-only","3","g1:SW,g2:NE","0.9","15","0","992113.5","764.6","5776.7","29895.6","1","4","8","6","2","8","7","45","38","0.3409090909090909","1090","3000","1835","[""up"",""right""]","{""num_key_presses"":8,""num_perfect"":6,""num_errors"":1,""num_randdir"":1,""num_randdir_good_moves"":1,""num_whilered"":0,""num_whileblue"":1,""num_blue"":2,""num_good_moves"":7}","[816,803.796875,0.1,816,805.796875,101.4,816,805.796875,201.6,816,837.796875,316,634,1121.796875,427.6,892,729.796875,536.1,1288,331.796875,644.1,1292,327.796875,744.1,1358,227.796875,845.9,1392,165.796875,950.6,1392,161.796875,1055.2,1392,161.796875,1169.3,1392,161.796875,1279.9,1392,161.796875,1385.7,1392,161.796875,1493.3,1392,161.796875,1603.3,1392,161.796875,1714.3,1392,161.796875,1818.6,1392,161.796875,1930.4,1392,161.796875,2031,1392,161.796875,2131.3,1392,161.796875,2237.5,1392,161.796875,2340.7,1392,161.796875,2454.8,1392,161.796875,2563.2,1392,161.796875,2666.2,1392,161.796875,2771,1392,161.796875,2873.6,1392,161.796875,2980.4,1392,161.796875,3086.2,1392,161.796875,3195,1392,161.796875,3296.7,1392,161.796875,3398.5,1392,161.796875,3502.8,1392,161.796875,3607.2,1392,161.796875,3720.9,1392,161.796875,3829.9,1392,161.796875,3931.7,1392,161.796875,4036.3,1392,161.796875,4137.6,1392,161.796875,4242.5,1392,161.796875,4351.5,1392,161.796875,4456.7,1392,161.796875,4557.5,1392,161.796875,4661.2,1392,161.796875,4772.2,1392,161.796875,4877.5,1392,161.796875,4981.7]","[5144.6,5144.6,2852.2,2013.8,278.6,""smooth"",""up"",""up"",""good_move"",8223.3,3078.3,2830.3,5145,248,""while_blue"",""up"",""left"",""bad_move"",11217.6,2994,2706.6,8223.7,287.4,""smooth"",""up"",""up"",""good_move"",13379,2161.1,1793.9,11217.9,367.2,""smooth"",""up"",""up"",""good_move"",16346.9,2967.7,2645.8,13379.2,321.9,""smooth"",""right"",""right"",""good_move"",18853.8,2506.6,2211.3,16347.3,295.2,""oops"",""right"",""right"",""good_move"",21129.2,2275.3,1947.5,18853.9,327.8,""smooth"",""right"",""right"",""good_move"",24011.5,2882.2,2570.7,21129.3,311.5,""smooth"",""right"",""right"",""good_move""]","",""
"1600","","<div style=""width:500px;"">
  <p>What determined the result of this run?</p>
  </div>","14","html-slider-response","80","1025465","0.0-5.0-1.14","17","1","2025-07-09 08:43:02","01610cd0009c79a99da7d0a3353eb402","86.1.242.218","Mozilla/5.0 (Macintosh; Intel Mac OS X 10_15_7) AppleWebKit/537.36 (KHTML, like Gecko) Chrome/137.0.0.0 Safari/537.36","Macintosh","Chrome","137.0.0.0","OS X","10_15_7","https://app.prolific.com/","en-GB,en-US;q=0.9,en;q=0.8","6620f5de5edae6e60f556986","683db7602f5db6a34d12d064","686e2b4b318a93835664c88c","1","6620f5de5edae6e60f556986","1","2025-07-09T09:00:08.844Z","","","","","","","","","","","AttribQ","","50","","","","","","","","","","","","","","","","","","","","","","","","","","","","",""
"2249","","<div style=""width:500px;"">
  <p>How much control did you have over the ball?</p>
  </div>","22","html-slider-response","81","1027714","0.0-5.0-2.14","17","1","2025-07-09 08:43:02","01610cd0009c79a99da7d0a3353eb402","86.1.242.218","Mozilla/5.0 (Macintosh; Intel Mac OS X 10_15_7) AppleWebKit/537.36 (KHTML, like Gecko) Chrome/137.0.0.0 Safari/537.36","Macintosh","Chrome","137.0.0.0","OS X","10_15_7","https://app.prolific.com/","en-GB,en-US;q=0.9,en;q=0.8","6620f5de5edae6e60f556986","683db7602f5db6a34d12d064","686e2b4b318a93835664c88c","1","6620f5de5edae6e60f556986","1","2025-07-09T09:00:11.094Z","","","","","","","","","","","ControlQ","","50","","","","","","","","","","","","","","","","","","","","","","","","","","","","",""
"1983","","<div style=""width:500px;"">
  <p>How would you describe your current emotional state?</p>
  </div>","85","html-slider-response","82","1029698","0.0-5.0-3.14","17","1","2025-07-09 08:43:02","01610cd0009c79a99da7d0a3353eb402","86.1.242.218","Mozilla/5.0 (Macintosh; Intel Mac OS X 10_15_7) AppleWebKit/537.36 (KHTML, like Gecko) Chrome/137.0.0.0 Safari/537.36","Macintosh","Chrome","137.0.0.0","OS X","10_15_7","https://app.prolific.com/","en-GB,en-US;q=0.9,en;q=0.8","6620f5de5edae6e60f556986","683db7602f5db6a34d12d064","686e2b4b318a93835664c88c","1","6620f5de5edae6e60f556986","1","2025-07-09T09:00:13.077Z","","","","","","","","","","","StressQ","","50","","","","","","","","","","","","","","","","","","","","","","","","","","","","",""
"1399","","<div style=""width:500px;"">
  <p>What best describes how you currently feel?</p>
  </div>","45","html-slider-response","83","1031099","0.0-5.0-4.14","17","1","2025-07-09 08:43:02","01610cd0009c79a99da7d0a3353eb402","86.1.242.218","Mozilla/5.0 (Macintosh; Intel Mac OS X 10_15_7) AppleWebKit/537.36 (KHTML, like Gecko) Chrome/137.0.0.0 Safari/537.36","Macintosh","Chrome","137.0.0.0","OS X","10_15_7","https://app.prolific.com/","en-GB,en-US;q=0.9,en;q=0.8","6620f5de5edae6e60f556986","683db7602f5db6a34d12d064","686e2b4b318a93835664c88c","1","6620f5de5edae6e60f556986","1","2025-07-09T09:00:14.478Z","","","","","","","","","","","MotivationQ","","50","","","","","","","","","","","","","","","","","","","","","","","","","","","","",""
"","","","","ctl-task-cpt","84","1059539","0.0-5.0-0.15","17","1","2025-07-09 08:43:02","01610cd0009c79a99da7d0a3353eb402","86.1.242.218","Mozilla/5.0 (Macintosh; Intel Mac OS X 10_15_7) AppleWebKit/537.36 (KHTML, like Gecko) Chrome/137.0.0.0 Safari/537.36","Macintosh","Chrome","137.0.0.0","OS X","10_15_7","https://app.prolific.com/","en-GB,en-US;q=0.9,en;q=0.8","6620f5de5edae6e60f556986","683db7602f5db6a34d12d064","686e2b4b318a93835664c88c","1","6620f5de5edae6e60f556986","1","2025-07-09T09:00:42.918Z","","","","","","","","","","","","","","win-only","2","g1:SE,g2:NW","0.8","16","0","1032262.3","864.7","5871.3","25420.9","1","4","4","6","1","1","1","46","45","0.3484848484848485","1383.5","3000","1835","[""down"",""right""]","{""num_key_presses"":6,""num_perfect"":5,""num_errors"":0,""num_randdir"":1,""num_randdir_good_moves"":0,""num_whilered"":0,""num_whileblue"":0,""num_blue"":2,""num_good_moves"":5}","[818,805.796875,0.2,818,805.796875,104.5,818,805.796875,206.6,818,805.796875,319.9,812,811.796875,435.7,612,607.796875,541.9,598,581.796875,646.5,620,595.796875,747.1,1536,1573.796875,849.5,1536,1573.796875,954.8,1536,1573.796875,1057.2,1536,1573.796875,1170.7,1512,1553.796875,1277.3,1512,1553.796875,1381.3,1512,1553.796875,1493.9,1512,1553.796875,1607.2,1512,1553.796875,1708,1512,1553.796875,1823.6,1512,1553.796875,1930.6,1512,1553.796875,2031.3,1512,1553.796875,2136.5,1512,1553.796875,2239.3,1512,1553.796875,2342.4,1512,1553.796875,2445,1512,1553.796875,2546.5,1512,1553.796875,2646.8,1512,1553.796875,2751.1,1512,1553.796875,2862.2,1512,1553.796875,2970.9,1512,1553.796875,3085.8,1512,1553.796875,3185.9,1512,1553.796875,3286.5,1512,1553.796875,3396.3,1512,1553.796875,3498.6,1512,1553.796875,3601.2,1512,1553.796875,3709,1512,1553.796875,3811.8,1512,1553.796875,3913.1,1512,1553.796875,4016.3,1512,1553.796875,4123.3,1512,1553.796875,4227.6,1512,1553.796875,4327.7,1512,1553.796875,4431.2,1512,1553.796875,4542.5,1512,1553.796875,4647.4,1512,1553.796875,4756.4,1512,1553.796875,4857.4,1512,1553.796875,4973.4]","[1368.6,1368.6,1000,0,368.6,""smooth"",""down"",""down"",""good_move"",4223.6,2854.6,2544.4,1369,310.2,""oops"",""down"",""left"",""bad_move"",6940,2716.2,2392.8,4223.8,323.4,""smooth"",""right"",""right"",""good_move"",11756,4815.7,2058.6,9358.1,339.3,""smooth"",""right"",""right"",""good_move"",13610.4,1854.1,1419,11756.3,435.1,""smooth"",""right"",""right"",""good_move"",19379.4,5768.9,1808.7,17234.3,336.4,""smooth"",""down"",""down"",""good_move""]","",""
"3307","","<div style=""width:500px;"">
  <p>What determined the result of this run?</p>
  </div>","28","html-slider-response","85","1062846","0.0-5.0-1.15","17","1","2025-07-09 08:43:02","01610cd0009c79a99da7d0a3353eb402","86.1.242.218","Mozilla/5.0 (Macintosh; Intel Mac OS X 10_15_7) AppleWebKit/537.36 (KHTML, like Gecko) Chrome/137.0.0.0 Safari/537.36","Macintosh","Chrome","137.0.0.0","OS X","10_15_7","https://app.prolific.com/","en-GB,en-US;q=0.9,en;q=0.8","6620f5de5edae6e60f556986","683db7602f5db6a34d12d064","686e2b4b318a93835664c88c","1","6620f5de5edae6e60f556986","1","2025-07-09T09:00:46.225Z","","","","","","","","","","","AttribQ","","50","","","","","","","","","","","","","","","","","","","","","","","","","","","","",""
"2217","","<div style=""width:500px;"">
  <p>How much control did you have over the ball?</p>
  </div>","31","html-slider-response","86","1065063","0.0-5.0-2.15","17","1","2025-07-09 08:43:02","01610cd0009c79a99da7d0a3353eb402","86.1.242.218","Mozilla/5.0 (Macintosh; Intel Mac OS X 10_15_7) AppleWebKit/537.36 (KHTML, like Gecko) Chrome/137.0.0.0 Safari/537.36","Macintosh","Chrome","137.0.0.0","OS X","10_15_7","https://app.prolific.com/","en-GB,en-US;q=0.9,en;q=0.8","6620f5de5edae6e60f556986","683db7602f5db6a34d12d064","686e2b4b318a93835664c88c","1","6620f5de5edae6e60f556986","1","2025-07-09T09:00:48.442Z","","","","","","","","","","","ControlQ","","50","","","","","","","","","","","","","","","","","","","","","","","","","","","","",""
"1848","","<div style=""width:500px;"">
  <p>How would you describe your current emotional state?</p>
  </div>","88","html-slider-response","87","1066912","0.0-5.0-3.15","17","1","2025-07-09 08:43:02","01610cd0009c79a99da7d0a3353eb402","86.1.242.218","Mozilla/5.0 (Macintosh; Intel Mac OS X 10_15_7) AppleWebKit/537.36 (KHTML, like Gecko) Chrome/137.0.0.0 Safari/537.36","Macintosh","Chrome","137.0.0.0","OS X","10_15_7","https://app.prolific.com/","en-GB,en-US;q=0.9,en;q=0.8","6620f5de5edae6e60f556986","683db7602f5db6a34d12d064","686e2b4b318a93835664c88c","1","6620f5de5edae6e60f556986","1","2025-07-09T09:00:50.291Z","","","","","","","","","","","StressQ","","50","","","","","","","","","","","","","","","","","","","","","","","","","","","","",""
"1283","","<div style=""width:500px;"">
  <p>What best describes how you currently feel?</p>
  </div>","58","html-slider-response","88","1068195","0.0-5.0-4.15","17","1","2025-07-09 08:43:02","01610cd0009c79a99da7d0a3353eb402","86.1.242.218","Mozilla/5.0 (Macintosh; Intel Mac OS X 10_15_7) AppleWebKit/537.36 (KHTML, like Gecko) Chrome/137.0.0.0 Safari/537.36","Macintosh","Chrome","137.0.0.0","OS X","10_15_7","https://app.prolific.com/","en-GB,en-US;q=0.9,en;q=0.8","6620f5de5edae6e60f556986","683db7602f5db6a34d12d064","686e2b4b318a93835664c88c","1","6620f5de5edae6e60f556986","1","2025-07-09T09:00:51.574Z","","","","","","","","","","","MotivationQ","","50","","","","","","","","","","","","","","","","","","","","","","","","","","","","",""
