"rt","response_timestamp","stimulus","response","trial_type","trial_index","time_elapsed","internal_node_id","run_id","condition","recorded_at","source_code_version","ip","user_agent","device","browser","browser_version","platform","platform_version","referer","accept_language","PROLIFIC_PID","STUDY_ID","SESSION_ID","WEEK","BATCH","prolific_id","week","batch","realtime","success","responses","item_order","radio_event_ids","radio_event_times","key_event_times","mouse_event_times","straightlining","zigzagging","honeypot","eventType","view_history","slider_start","which_type","canvas_config","goals_layout","control_level","trial_number","tutorial_trial_number","trial_start_time","phase1_start_time","phase2_start_time","phase3_start_time","goal_1_value","goal_1_distance","goal_2_value","goal_2_distance","goal_selected","outcome","outcome_total","participant_final_score","participant_initial_score","participant_final_score_prop","goal_choice_rt","allocated_time","allocated_time_remaining","goal_direction","counts","mouse_movements","key_presses","question_order","question_id"
"66155","1752663120469","<p style='font-size:40px;line-height:1.25'><strong>Welcome to the experiment!</strong></p><p style='font-size:1.1em;line-height:1.25'>Thank you for participanting in our experiment again! You will be asked to play the Dysfunctional Ball Game again. We will briefly recap the rules before we start.</p><p style='font-size:1.1em;line-height:1.25'>Press <strong>Next</strong> to continue.</p>","0","custom-html-button-response","0","66205","0.0-0.0","104","1","2025-07-16 10:50:06","1f75c3e559b7213887762d5229550c2b","102.128.184.38","Mozilla/5.0 (Windows NT 10.0; Win64; x64) AppleWebKit/537.36 (KHTML, like Gecko) Chrome/138.0.0.0 Safari/537.36 Edg/138.0.0.0","WebKit","Edge","138.0.0.0","Windows","10.0","https://app.prolific.com/","en-US,en;q=0.9,en-ZA;q=0.8","66952367721687887540318f","68764874ac79eee8c1d4cb03","687782fb090c9548bc1cd52e","2","0","66952367721687887540318f","2","0","2025-07-16T10:52:00.515Z","","","","","","","","","","","","","","","","","","","","","","","","","","","","","","","","","","","","","","","","","",""
"128863","","","","fullscreen","1","196304","0.0-1.0","104","1","2025-07-16 10:50:06","1f75c3e559b7213887762d5229550c2b","102.128.184.38","Mozilla/5.0 (Windows NT 10.0; Win64; x64) AppleWebKit/537.36 (KHTML, like Gecko) Chrome/138.0.0.0 Safari/537.36 Edg/138.0.0.0","WebKit","Edge","138.0.0.0","Windows","10.0","https://app.prolific.com/","en-US,en;q=0.9,en-ZA;q=0.8","66952367721687887540318f","68764874ac79eee8c1d4cb03","687782fb090c9548bc1cd52e","2","0","66952367721687887540318f","2","0","","true","","","","","","","","","","","","","","","","","","","","","","","","","","","","","","","","","","","","","","","","",""
"31112","1752663281735","<p style='font-size:1.1em;line-height:1.25'>In the following, we will ask you a few questions relating to your feelings in the last 24 hours.<br></p><p style='font-size:1.1em;line-height:1.25'>Press the <strong>Next</strong> button to continue.</p>","0","custom-html-button-response","2","227431","0.0-2.0-0.0","104","1","2025-07-16 10:50:06","1f75c3e559b7213887762d5229550c2b","102.128.184.38","Mozilla/5.0 (Windows NT 10.0; Win64; x64) AppleWebKit/537.36 (KHTML, like Gecko) Chrome/138.0.0.0 Safari/537.36 Edg/138.0.0.0","WebKit","Edge","138.0.0.0","Windows","10.0","https://app.prolific.com/","en-US,en;q=0.9,en-ZA;q=0.8","66952367721687887540318f","68764874ac79eee8c1d4cb03","687782fb090c9548bc1cd52e","2","0","66952367721687887540318f","2","0","2025-07-16T10:54:41.738Z","","","","","","","","","","","","","","","","","","","","","","","","","","","","","","","","","","","","","","","","","",""
"111416.30000000005","","","","survey-template","3","338902","0.0-2.0-1.0","104","1","2025-07-16 10:50:06","1f75c3e559b7213887762d5229550c2b","102.128.184.38","Mozilla/5.0 (Windows NT 10.0; Win64; x64) AppleWebKit/537.36 (KHTML, like Gecko) Chrome/138.0.0.0 Safari/537.36 Edg/138.0.0.0","WebKit","Edge","138.0.0.0","Windows","10.0","https://app.prolific.com/","en-US,en;q=0.9,en-ZA;q=0.8","66952367721687887540318f","68764874ac79eee8c1d4cb03","687782fb090c9548bc1cd52e","2","0","66952367721687887540318f","2","0","2025-07-16T10:56:33.209Z","","{""Q01"":""0"",""Q02"":""0"",""Q03"":""0"",""Q04"":""0"",""Q05"":""2"",""Q06"":""0"",""Q07"":""2"",""Q08"":""1"",""Q09"":""1"",""Q10"":""0"",""Q11"":""1"",""Q12"":""0"",""Q13"":""5"",""Q14"":""2"",""Q15"":""0"",""Q16"":""0"",""Q17"":""1"",""Q18"":""0"",""Q19"":""1"",""Q20"":""0"",""Q21"":""0"",""Q22"":""0""}","[0,1,2,3,4,5,6,7,8,9,10,11,12,13,14,15,16,17,18,19,20,21]","[""Q01"",""Q02"",""Q03"",""Q04"",""Q05"",""Q06"",""Q07"",""Q08"",""Q09"",""Q10"",""Q11"",""Q11"",""Q12"",""Q13"",""Q14"",""Q15"",""Q16"",""Q17"",""Q18"",""Q19"",""Q20"",""Q21"",""Q22""]","[3369.6999999999534,7984.099999999977,9273.699999999953,12520.800000000047,14897.699999999953,16569.900000000023,20657.800000000047,24616.900000000023,35193.80000000005,42834.09999999998,47226.19999999995,57083,59115.30000000005,65410.30000000005,67922.40000000002,69764.40000000002,80827,83379.59999999998,84387.19999999995,89147.09999999998,90787.40000000002,93819.59999999998,97579.59999999998]","[]","[0.40000000002328306,3369.6999999999534,5409.400000000023,7072.199999999953,7984.099999999977,9273.699999999953,12520.800000000047,14897.699999999953,16569.900000000023,18706,20657.800000000047,22970.400000000023,24616.900000000023,35193.80000000005,42834.09999999998,47226.19999999995,57083,59115.30000000005,65410.30000000005,67922.40000000002,69764.40000000002,80827,83379.59999999998,84387.19999999995,89147.09999999998,90787.40000000002,92052.19999999995,93819.59999999998,97579.59999999998,111381.09999999998]","0.5909090909090909","0.42857142857142855","0","drsp","","","","","","","","","","","","","","","","","","","","","","","","","","","","","","",""
"14802.900000000023","","","","survey-template","4","353736","0.0-2.0-2.0","104","1","2025-07-16 10:50:06","1f75c3e559b7213887762d5229550c2b","102.128.184.38","Mozilla/5.0 (Windows NT 10.0; Win64; x64) AppleWebKit/537.36 (KHTML, like Gecko) Chrome/138.0.0.0 Safari/537.36 Edg/138.0.0.0","WebKit","Edge","138.0.0.0","Windows","10.0","https://app.prolific.com/","en-US,en;q=0.9,en-ZA;q=0.8","66952367721687887540318f","68764874ac79eee8c1d4cb03","687782fb090c9548bc1cd52e","2","0","66952367721687887540318f","2","0","2025-07-16T10:56:48.043Z","","{""Q01"":""2"",""Q02"":""0"",""Q03"":""2""}","[0,1,2]","[""Q01"",""Q02"",""Q03""]","[5502.400000000023,9126.199999999953,13222.79999999993]","[]","[4518.099999999977,5502.400000000023,9126.199999999953,13222.79999999993,14799.79999999993]","0.6666666666666666","0","0","stress","","","","","","","","","","","","","","","","","","","","","","","","","","","","","","",""
"4723","","","","instructions","5","358466","0.0-3.0-0.0","104","1","2025-07-16 10:50:06","1f75c3e559b7213887762d5229550c2b","102.128.184.38","Mozilla/5.0 (Windows NT 10.0; Win64; x64) AppleWebKit/537.36 (KHTML, like Gecko) Chrome/138.0.0.0 Safari/537.36 Edg/138.0.0.0","WebKit","Edge","138.0.0.0","Windows","10.0","https://app.prolific.com/","en-US,en;q=0.9,en-ZA;q=0.8","66952367721687887540318f","68764874ac79eee8c1d4cb03","687782fb090c9548bc1cd52e","2","0","66952367721687887540318f","2","0","","","","","","","","","","","","","[{""page_index"":0,""viewing_time"":4722}]","","","","","","","","","","","","","","","","","","","","","","","","","","","","","",""
"47381","","<p>Before you start with this game please answer the following three questions yourself. </p>
  <p>Through this game, we measure several aspects of your cognitive performance, such as reaction times, multi-tasking capabilities </p>
  <p>and the ability to assess the situation you are in.</p>
  <p></p>
  <p><b>How good do you usually are in such tasks?</b></p>","100","html-slider-response","6","405862","0.0-4.0-0.0","104","1","2025-07-16 10:50:06","1f75c3e559b7213887762d5229550c2b","102.128.184.38","Mozilla/5.0 (Windows NT 10.0; Win64; x64) AppleWebKit/537.36 (KHTML, like Gecko) Chrome/138.0.0.0 Safari/537.36 Edg/138.0.0.0","WebKit","Edge","138.0.0.0","Windows","10.0","https://app.prolific.com/","en-US,en;q=0.9,en-ZA;q=0.8","66952367721687887540318f","68764874ac79eee8c1d4cb03","687782fb090c9548bc1cd52e","2","0","66952367721687887540318f","2","0","2025-07-16T10:57:40.169Z","","","","","","","","","","","PreSkillQ","","50","","","","","","","","","","","","","","","","","","","","","","","","","","","","",""
"6261","","<div style=""width:500px;"">
  <p>How well do you think you will perform in this task compared to other participants?</p>
  </div>","100","html-slider-response","7","412131","0.0-4.0-1.0","104","1","2025-07-16 10:50:06","1f75c3e559b7213887762d5229550c2b","102.128.184.38","Mozilla/5.0 (Windows NT 10.0; Win64; x64) AppleWebKit/537.36 (KHTML, like Gecko) Chrome/138.0.0.0 Safari/537.36 Edg/138.0.0.0","WebKit","Edge","138.0.0.0","Windows","10.0","https://app.prolific.com/","en-US,en;q=0.9,en-ZA;q=0.8","66952367721687887540318f","68764874ac79eee8c1d4cb03","687782fb090c9548bc1cd52e","2","0","66952367721687887540318f","2","0","2025-07-16T10:57:46.437Z","","","","","","","","","","","PrePerfQ","","50","","","","","","","","","","","","","","","","","","","","","","","","","","","","",""
"10685","","<div style=""width:500px;"">
  <p>What best describes how you currently feel?</p>
  </div>","100","html-slider-response","8","422820","0.0-4.0-2.0","104","1","2025-07-16 10:50:06","1f75c3e559b7213887762d5229550c2b","102.128.184.38","Mozilla/5.0 (Windows NT 10.0; Win64; x64) AppleWebKit/537.36 (KHTML, like Gecko) Chrome/138.0.0.0 Safari/537.36 Edg/138.0.0.0","WebKit","Edge","138.0.0.0","Windows","10.0","https://app.prolific.com/","en-US,en;q=0.9,en-ZA;q=0.8","66952367721687887540318f","68764874ac79eee8c1d4cb03","687782fb090c9548bc1cd52e","2","0","66952367721687887540318f","2","0","2025-07-16T10:57:57.126Z","","","","","","","","","","","PreMotivationQ","","50","","","","","","","","","","","","","","","","","","","","","","","","","","","","",""
"","","","","ctl-task-cpt","9","466646","0.0-5.0-0.0","104","1","2025-07-16 10:50:06","1f75c3e559b7213887762d5229550c2b","102.128.184.38","Mozilla/5.0 (Windows NT 10.0; Win64; x64) AppleWebKit/537.36 (KHTML, like Gecko) Chrome/138.0.0.0 Safari/537.36 Edg/138.0.0.0","WebKit","Edge","138.0.0.0","Windows","10.0","https://app.prolific.com/","en-US,en;q=0.9,en-ZA;q=0.8","66952367721687887540318f","68764874ac79eee8c1d4cb03","687782fb090c9548bc1cd52e","2","0","66952367721687887540318f","2","0","2025-07-16T10:58:40.953Z","","","","","","","","","","","","","","win-only","3","g1:SW,g2:NE","1","1","0","468571.2","15129","20131.8","40757.4","1","4","4","6","2","4","4","4","0","0.030303030303030304","1915.1","3000","780","[""up"",""right""]","{""num_key_presses"":6,""num_perfect"":6,""num_errors"":0,""num_randdir"":0,""num_randdir_good_moves"":0,""num_whilered"":0,""num_whileblue"":0,""num_blue"":1,""num_good_moves"":6}","[291.22232142857143,296.12857142857143,6.6,291.22232142857143,296.12857142857143,103.4,291.22232142857143,296.12857142857143,212,291.22232142857143,296.12857142857143,312.1,291.22232142857143,296.12857142857143,413.3,291.22232142857143,296.12857142857143,513.8,291.22232142857143,296.12857142857143,619.3,291.22232142857143,296.12857142857143,719.8,291.22232142857143,296.12857142857143,822.4,291.22232142857143,296.12857142857143,923.1,288.22232142857143,299.12857142857143,1028.9,254.22232142857143,315.12857142857143,1133.1,416.22232142857143,96.12857142857143,1234.1,522.2223214285714,15.128571428571426,1335.1,535.2223214285714,15.128571428571426,1438.4,538.2223214285714,20.128571428571426,1538.7,518.2223214285714,69.12857142857143,1640.5,515.2223214285714,73.12857142857143,1749.9,515.2223214285714,73.12857142857143,1853.1,515.2223214285714,73.12857142857143,1961,515.2223214285714,73.12857142857143,2065.8,515.2223214285714,73.12857142857143,2169.5,515.2223214285714,73.12857142857143,2273.8,515.2223214285714,73.12857142857143,2374.8,795.2223214285714,130.12857142857143,2486.6,858.2223214285714,154.12857142857143,2586.7,860.2223214285714,154.12857142857143,2690.9,860.2223214285714,154.12857142857143,2792.9,860.2223214285714,154.12857142857143,2900.7,860.2223214285714,154.12857142857143,3008.1,860.2223214285714,154.12857142857143,3108.6,860.2223214285714,154.12857142857143,3214.3,860.2223214285714,154.12857142857143,3319.6,860.2223214285714,154.12857142857143,3423.3,860.2223214285714,154.12857142857143,3528.5,860.2223214285714,154.12857142857143,3636,860.2223214285714,154.12857142857143,3736.5,860.2223214285714,154.12857142857143,3842.1,860.2223214285714,154.12857142857143,3948.1,860.2223214285714,154.12857142857143,4048.2,860.2223214285714,154.12857142857143,4152.6,860.2223214285714,154.12857142857143,4267.2,860.2223214285714,154.12857142857143,4368.7,860.2223214285714,154.12857142857143,4476.8,860.2223214285714,154.12857142857143,4577.8,860.2223214285714,154.12857142857143,4677.9,860.2223214285714,154.12857142857143,4779,860.2223214285714,154.12857142857143,4885.9,860.2223214285714,154.12857142857143,4986.2]","[4719.5,4719.5,2035.5,2012.1,672,""smooth"",""right"",""right"",""good_move"",8142.8,3421.9,2916.6,4720.9,505.4,""smooth"",""right"",""right"",""good_move"",11590.9,3445.7,2909.1,8145.2,536.6,""smooth"",""right"",""right"",""good_move"",14416.9,2824.3,2310.6,11592.6,513.7,""smooth"",""up"",""up"",""good_move"",17277,2857.6,2373.6,14419.4,484.1,""smooth"",""up"",""up"",""good_move"",20494.6,3216.8,2719.4,17277.8,497.4,""smooth"",""up"",""up"",""good_move""]","",""
"12354","","<div style=""width:500px;"">
  <p>What determined the result of this run?</p>
  </div>","100","html-slider-response","10","479006","0.0-5.0-1.0","104","1","2025-07-16 10:50:06","1f75c3e559b7213887762d5229550c2b","102.128.184.38","Mozilla/5.0 (Windows NT 10.0; Win64; x64) AppleWebKit/537.36 (KHTML, like Gecko) Chrome/138.0.0.0 Safari/537.36 Edg/138.0.0.0","WebKit","Edge","138.0.0.0","Windows","10.0","https://app.prolific.com/","en-US,en;q=0.9,en-ZA;q=0.8","66952367721687887540318f","68764874ac79eee8c1d4cb03","687782fb090c9548bc1cd52e","2","0","66952367721687887540318f","2","0","2025-07-16T10:58:53.312Z","","","","","","","","","","","AttribQ","","50","","","","","","","","","","","","","","","","","","","","","","","","","","","","",""
"4226","","<div style=""width:500px;"">
  <p>How much control did you have over the ball?</p>
  </div>","99","html-slider-response","11","483237","0.0-5.0-2.0","104","1","2025-07-16 10:50:06","1f75c3e559b7213887762d5229550c2b","102.128.184.38","Mozilla/5.0 (Windows NT 10.0; Win64; x64) AppleWebKit/537.36 (KHTML, like Gecko) Chrome/138.0.0.0 Safari/537.36 Edg/138.0.0.0","WebKit","Edge","138.0.0.0","Windows","10.0","https://app.prolific.com/","en-US,en;q=0.9,en-ZA;q=0.8","66952367721687887540318f","68764874ac79eee8c1d4cb03","687782fb090c9548bc1cd52e","2","0","66952367721687887540318f","2","0","2025-07-16T10:58:57.543Z","","","","","","","","","","","ControlQ","","50","","","","","","","","","","","","","","","","","","","","","","","","","","","","",""
"4492","","<div style=""width:500px;"">
  <p>How would you describe your current emotional state?</p>
  </div>","11","html-slider-response","12","487733","0.0-5.0-3.0","104","1","2025-07-16 10:50:06","1f75c3e559b7213887762d5229550c2b","102.128.184.38","Mozilla/5.0 (Windows NT 10.0; Win64; x64) AppleWebKit/537.36 (KHTML, like Gecko) Chrome/138.0.0.0 Safari/537.36 Edg/138.0.0.0","WebKit","Edge","138.0.0.0","Windows","10.0","https://app.prolific.com/","en-US,en;q=0.9,en-ZA;q=0.8","66952367721687887540318f","68764874ac79eee8c1d4cb03","687782fb090c9548bc1cd52e","2","0","66952367721687887540318f","2","0","2025-07-16T10:59:02.039Z","","","","","","","","","","","StressQ","","50","","","","","","","","","","","","","","","","","","","","","","","","","","","","",""
"4414","","<div style=""width:500px;"">
  <p>What best describes how you currently feel?</p>
  </div>","98","html-slider-response","13","492151","0.0-5.0-4.0","104","1","2025-07-16 10:50:06","1f75c3e559b7213887762d5229550c2b","102.128.184.38","Mozilla/5.0 (Windows NT 10.0; Win64; x64) AppleWebKit/537.36 (KHTML, like Gecko) Chrome/138.0.0.0 Safari/537.36 Edg/138.0.0.0","WebKit","Edge","138.0.0.0","Windows","10.0","https://app.prolific.com/","en-US,en;q=0.9,en-ZA;q=0.8","66952367721687887540318f","68764874ac79eee8c1d4cb03","687782fb090c9548bc1cd52e","2","0","66952367721687887540318f","2","0","2025-07-16T10:59:06.457Z","","","","","","","","","","","MotivationQ","","50","","","","","","","","","","","","","","","","","","","","","","","","","","","","",""
"","","","","ctl-task-cpt","14","577980","0.0-5.0-0.1","104","1","2025-07-16 10:50:06","1f75c3e559b7213887762d5229550c2b","102.128.184.38","Mozilla/5.0 (Windows NT 10.0; Win64; x64) AppleWebKit/537.36 (KHTML, like Gecko) Chrome/138.0.0.0 Safari/537.36 Edg/138.0.0.0","WebKit","Edge","138.0.0.0","Windows","10.0","https://app.prolific.com/","en-US,en;q=0.9,en-ZA;q=0.8","66952367721687887540318f","68764874ac79eee8c1d4cb03","687782fb090c9548bc1cd52e","2","0","66952367721687887540318f","2","0","2025-07-16T11:00:32.286Z","","","","","","","","","","","","","","win-only","0","g1:NW,g2:SE","0.9","2","0","537854.8","61813","66822","82803.1","1","4","8","6","2","8","8","12","4","0.09090909090909091","3019.1","3000","1065","[""down"",""right""]","{""num_key_presses"":6,""num_perfect"":5,""num_errors"":0,""num_randdir"":1,""num_randdir_good_moves"":1,""num_whilered"":0,""num_whileblue"":0,""num_blue"":0,""num_good_moves"":6}","[296.22232142857143,295.12857142857143,2.9,296.22232142857143,295.12857142857143,112.8,296.22232142857143,295.12857142857143,218.4,296.22232142857143,295.12857142857143,328.8,296.22232142857143,295.12857142857143,429.7,296.22232142857143,295.12857142857143,534.7,296.22232142857143,295.12857142857143,635.4,296.22232142857143,295.12857142857143,745.9,296.22232142857143,295.12857142857143,860.3,296.22232142857143,295.12857142857143,961.1,296.22232142857143,295.12857142857143,1066,296.22232142857143,295.12857142857143,1170.3,296.22232142857143,295.12857142857143,1280.9,296.22232142857143,295.12857142857143,1383.2,296.22232142857143,295.12857142857143,1485.3,296.22232142857143,295.12857142857143,1596.2,296.22232142857143,295.12857142857143,1696.8,296.22232142857143,295.12857142857143,1801.9,296.22232142857143,295.12857142857143,1904.8,296.22232142857143,295.12857142857143,2011.8,296.22232142857143,295.12857142857143,2116.6,365.22232142857143,333.12857142857143,2216.9,462.22232142857143,432.12857142857143,2318.1,488.22232142857143,483.12857142857143,2438,502.22232142857143,518.1285714285714,2558.8,518.2223214285714,528.1285714285714,2659.3,532.2223214285714,533.1285714285714,2762.2,532.2223214285714,533.1285714285714,2873.4,532.2223214285714,533.1285714285714,2978,532.2223214285714,533.1285714285714,3080.7,532.2223214285714,533.1285714285714,3187,532.2223214285714,533.1285714285714,3291.4,532.2223214285714,533.1285714285714,3395.8,532.2223214285714,533.1285714285714,3500.3,681.2223214285714,482.12857142857143,3601.8,762.2223214285714,434.12857142857143,3702.1,765.2223214285714,432.12857142857143,3814,765.2223214285714,432.12857142857143,3914.7,765.2223214285714,432.12857142857143,4015.9,765.2223214285714,432.12857142857143,4119.6,765.2223214285714,432.12857142857143,4221.6,765.2223214285714,432.12857142857143,4325.1,765.2223214285714,432.12857142857143,4426.5,765.2223214285714,432.12857142857143,4531.6,765.2223214285714,432.12857142857143,4632.6,765.2223214285714,432.12857142857143,4734.7,765.2223214285714,432.12857142857143,4835.5,765.2223214285714,432.12857142857143,4955.7]","[1765.5,1765.5,1000,0,765.5,""smooth"",""right"",""right"",""good_move"",4981,3211.5,2757.7,1769.5,453.8,""smooth"",""right"",""right"",""good_move"",7798,2814.7,2321.6,4983.3,493.1,""oops"",""right"",""right"",""good_move"",9988,2188.2,1698.7,7799.9,489.4,""smooth"",""down"",""down"",""good_move"",12733.3,2742.6,2273.7,9990.8,468.8,""smooth"",""down"",""down"",""good_move"",15844.8,3110.2,2687.9,12734.6,422.3,""smooth"",""down"",""down"",""good_move""]","",""
"4252","","<div style=""width:500px;"">
  <p>What determined the result of this run?</p>
  </div>","100","html-slider-response","15","582240","0.0-5.0-1.1","104","1","2025-07-16 10:50:06","1f75c3e559b7213887762d5229550c2b","102.128.184.38","Mozilla/5.0 (Windows NT 10.0; Win64; x64) AppleWebKit/537.36 (KHTML, like Gecko) Chrome/138.0.0.0 Safari/537.36 Edg/138.0.0.0","WebKit","Edge","138.0.0.0","Windows","10.0","https://app.prolific.com/","en-US,en;q=0.9,en-ZA;q=0.8","66952367721687887540318f","68764874ac79eee8c1d4cb03","687782fb090c9548bc1cd52e","2","0","66952367721687887540318f","2","0","2025-07-16T11:00:36.547Z","","","","","","","","","","","AttribQ","","50","","","","","","","","","","","","","","","","","","","","","","","","","","","","",""
"2956","","<div style=""width:500px;"">
  <p>How much control did you have over the ball?</p>
  </div>","100","html-slider-response","16","585201","0.0-5.0-2.1","104","1","2025-07-16 10:50:06","1f75c3e559b7213887762d5229550c2b","102.128.184.38","Mozilla/5.0 (Windows NT 10.0; Win64; x64) AppleWebKit/537.36 (KHTML, like Gecko) Chrome/138.0.0.0 Safari/537.36 Edg/138.0.0.0","WebKit","Edge","138.0.0.0","Windows","10.0","https://app.prolific.com/","en-US,en;q=0.9,en-ZA;q=0.8","66952367721687887540318f","68764874ac79eee8c1d4cb03","687782fb090c9548bc1cd52e","2","0","66952367721687887540318f","2","0","2025-07-16T11:00:39.507Z","","","","","","","","","","","ControlQ","","50","","","","","","","","","","","","","","","","","","","","","","","","","","","","",""
"5100","","<div style=""width:500px;"">
  <p>How would you describe your current emotional state?</p>
  </div>","20","html-slider-response","17","590304","0.0-5.0-3.1","104","1","2025-07-16 10:50:06","1f75c3e559b7213887762d5229550c2b","102.128.184.38","Mozilla/5.0 (Windows NT 10.0; Win64; x64) AppleWebKit/537.36 (KHTML, like Gecko) Chrome/138.0.0.0 Safari/537.36 Edg/138.0.0.0","WebKit","Edge","138.0.0.0","Windows","10.0","https://app.prolific.com/","en-US,en;q=0.9,en-ZA;q=0.8","66952367721687887540318f","68764874ac79eee8c1d4cb03","687782fb090c9548bc1cd52e","2","0","66952367721687887540318f","2","0","2025-07-16T11:00:44.611Z","","","","","","","","","","","StressQ","","50","","","","","","","","","","","","","","","","","","","","","","","","","","","","",""
"4911","","<div style=""width:500px;"">
  <p>What best describes how you currently feel?</p>
  </div>","98","html-slider-response","18","595220","0.0-5.0-4.1","104","1","2025-07-16 10:50:06","1f75c3e559b7213887762d5229550c2b","102.128.184.38","Mozilla/5.0 (Windows NT 10.0; Win64; x64) AppleWebKit/537.36 (KHTML, like Gecko) Chrome/138.0.0.0 Safari/537.36 Edg/138.0.0.0","WebKit","Edge","138.0.0.0","Windows","10.0","https://app.prolific.com/","en-US,en;q=0.9,en-ZA;q=0.8","66952367721687887540318f","68764874ac79eee8c1d4cb03","687782fb090c9548bc1cd52e","2","0","66952367721687887540318f","2","0","2025-07-16T11:00:49.526Z","","","","","","","","","","","MotivationQ","","50","","","","","","","","","","","","","","","","","","","","","","","","","","","","",""
"","","","","ctl-task-cpt","19","635938","0.0-5.0-0.2","104","1","2025-07-16 10:50:06","1f75c3e559b7213887762d5229550c2b","102.128.184.38","Mozilla/5.0 (Windows NT 10.0; Win64; x64) AppleWebKit/537.36 (KHTML, like Gecko) Chrome/138.0.0.0 Safari/537.36 Edg/138.0.0.0","WebKit","Edge","138.0.0.0","Windows","10.0","https://app.prolific.com/","en-US,en;q=0.9,en-ZA;q=0.8","66952367721687887540318f","68764874ac79eee8c1d4cb03","687782fb090c9548bc1cd52e","2","0","66952367721687887540318f","2","0","2025-07-16T11:01:30.245Z","","","","","","","","","","","","","","win-only","2","g1:SE,g2:NW","0.8","3","0","640932.3","1866.1","6869.2","37694.4","1","4","8","6","2","8","8","20","12","0.15151515151515152","2448.4","3000","1175","[""left"",""up""]","{""num_key_presses"":6,""num_perfect"":4,""num_errors"":0,""num_randdir"":2,""num_randdir_good_moves"":2,""num_whilered"":0,""num_whileblue"":0,""num_blue"":4,""num_good_moves"":6}","[300.22232142857143,291.12857142857143,2.1,300.22232142857143,291.12857142857143,105.2,300.22232142857143,291.12857142857143,207.9,300.22232142857143,291.12857142857143,312.7,300.22232142857143,291.12857142857143,416.7,300.22232142857143,291.12857142857143,521.3,300.22232142857143,291.12857142857143,632.5,300.22232142857143,291.12857142857143,746.6,300.22232142857143,291.12857142857143,852.5,300.22232142857143,291.12857142857143,970.2,300.22232142857143,291.12857142857143,1072.9,300.22232142857143,291.12857142857143,1179.5,340.22232142857143,279.12857142857143,1281.7,469.22232142857143,253.12857142857143,1389,516.2223214285714,249.12857142857143,1491.9,351.22232142857143,229.12857142857143,1597.8,9.222321428571426,169.12857142857143,1710.1,-11.777678571428574,148.12857142857143,1814.3,-7.777678571428574,134.12857142857143,1923.1,44.222321428571426,59.128571428571426,2029.5,50.222321428571426,46.128571428571426,2147.4,50.222321428571426,44.128571428571426,2248.5,50.222321428571426,44.128571428571426,2353.9,50.222321428571426,44.128571428571426,2456.7,50.222321428571426,44.128571428571426,2558.8,50.222321428571426,44.128571428571426,2662.8,50.222321428571426,44.128571428571426,2764.2,50.222321428571426,44.128571428571426,2866.7,56.222321428571426,44.128571428571426,2979.8,375.22232142857143,45.128571428571426,3086.7,641.2223214285714,52.128571428571426,3191.7,750.2223214285714,67.12857142857143,3299,767.2223214285714,72.12857142857143,3406.6,770.2223214285714,72.12857142857143,3528.9,770.2223214285714,72.12857142857143,3632.6,770.2223214285714,72.12857142857143,3738.9,770.2223214285714,72.12857142857143,3840.3,770.2223214285714,72.12857142857143,3943,770.2223214285714,72.12857142857143,4044.6,770.2223214285714,72.12857142857143,4149.8,770.2223214285714,72.12857142857143,4252.9,770.2223214285714,72.12857142857143,4353.5,770.2223214285714,72.12857142857143,4456.9,770.2223214285714,72.12857142857143,4557.5,770.2223214285714,72.12857142857143,4663.2,770.2223214285714,72.12857142857143,4763.5,770.2223214285714,72.12857142857143,4871.4,770.2223214285714,72.12857142857143,4979.9]","[1449.3,1449.3,1000,0,449.3,""oops"",""left"",""up"",""good_move"",4835.8,3384.2,2896,1451.6,488.2,""smooth"",""left"",""left"",""good_move"",15601.4,10763.8,2274.8,12825.4,501.3,""smooth"",""left"",""left"",""good_move"",18018.2,2416.2,1889.4,15602.1,526.8,""oops"",""left"",""up"",""good_move"",21290.7,3271.5,2493.3,18019.3,778.2,""smooth"",""left"",""left"",""good_move"",30672.8,9380.2,2463.4,27783,426.5,""smooth"",""up"",""up"",""good_move""]","",""
"3564","","<div style=""width:500px;"">
  <p>What determined the result of this run?</p>
  </div>","98","html-slider-response","20","639507","0.0-5.0-1.2","104","1","2025-07-16 10:50:06","1f75c3e559b7213887762d5229550c2b","102.128.184.38","Mozilla/5.0 (Windows NT 10.0; Win64; x64) AppleWebKit/537.36 (KHTML, like Gecko) Chrome/138.0.0.0 Safari/537.36 Edg/138.0.0.0","WebKit","Edge","138.0.0.0","Windows","10.0","https://app.prolific.com/","en-US,en;q=0.9,en-ZA;q=0.8","66952367721687887540318f","68764874ac79eee8c1d4cb03","687782fb090c9548bc1cd52e","2","0","66952367721687887540318f","2","0","2025-07-16T11:01:33.814Z","","","","","","","","","","","AttribQ","","50","","","","","","","","","","","","","","","","","","","","","","","","","","","","",""
"5800","","<div style=""width:500px;"">
  <p>How much control did you have over the ball?</p>
  </div>","100","html-slider-response","21","645311","0.0-5.0-2.2","104","1","2025-07-16 10:50:06","1f75c3e559b7213887762d5229550c2b","102.128.184.38","Mozilla/5.0 (Windows NT 10.0; Win64; x64) AppleWebKit/537.36 (KHTML, like Gecko) Chrome/138.0.0.0 Safari/537.36 Edg/138.0.0.0","WebKit","Edge","138.0.0.0","Windows","10.0","https://app.prolific.com/","en-US,en;q=0.9,en-ZA;q=0.8","66952367721687887540318f","68764874ac79eee8c1d4cb03","687782fb090c9548bc1cd52e","2","0","66952367721687887540318f","2","0","2025-07-16T11:01:39.618Z","","","","","","","","","","","ControlQ","","50","","","","","","","","","","","","","","","","","","","","","","","","","","","","",""
"4539","","<div style=""width:500px;"">
  <p>How would you describe your current emotional state?</p>
  </div>","1","html-slider-response","22","649855","0.0-5.0-3.2","104","1","2025-07-16 10:50:06","1f75c3e559b7213887762d5229550c2b","102.128.184.38","Mozilla/5.0 (Windows NT 10.0; Win64; x64) AppleWebKit/537.36 (KHTML, like Gecko) Chrome/138.0.0.0 Safari/537.36 Edg/138.0.0.0","WebKit","Edge","138.0.0.0","Windows","10.0","https://app.prolific.com/","en-US,en;q=0.9,en-ZA;q=0.8","66952367721687887540318f","68764874ac79eee8c1d4cb03","687782fb090c9548bc1cd52e","2","0","66952367721687887540318f","2","0","2025-07-16T11:01:44.162Z","","","","","","","","","","","StressQ","","50","","","","","","","","","","","","","","","","","","","","","","","","","","","","",""
"4496","","<div style=""width:500px;"">
  <p>What best describes how you currently feel?</p>
  </div>","100","html-slider-response","23","654358","0.0-5.0-4.2","104","1","2025-07-16 10:50:06","1f75c3e559b7213887762d5229550c2b","102.128.184.38","Mozilla/5.0 (Windows NT 10.0; Win64; x64) AppleWebKit/537.36 (KHTML, like Gecko) Chrome/138.0.0.0 Safari/537.36 Edg/138.0.0.0","WebKit","Edge","138.0.0.0","Windows","10.0","https://app.prolific.com/","en-US,en;q=0.9,en-ZA;q=0.8","66952367721687887540318f","68764874ac79eee8c1d4cb03","687782fb090c9548bc1cd52e","2","0","66952367721687887540318f","2","0","2025-07-16T11:01:48.665Z","","","","","","","","","","","MotivationQ","","50","","","","","","","","","","","","","","","","","","","","","","","","","","","","",""
"","","","","ctl-task-cpt","24","693480","0.0-5.0-0.3","104","1","2025-07-16 10:50:06","1f75c3e559b7213887762d5229550c2b","102.128.184.38","Mozilla/5.0 (Windows NT 10.0; Win64; x64) AppleWebKit/537.36 (KHTML, like Gecko) Chrome/138.0.0.0 Safari/537.36 Edg/138.0.0.0","WebKit","Edge","138.0.0.0","Windows","10.0","https://app.prolific.com/","en-US,en;q=0.9,en-ZA;q=0.8","66952367721687887540318f","68764874ac79eee8c1d4cb03","687782fb090c9548bc1cd52e","2","0","66952367721687887540318f","2","0","2025-07-16T11:02:27.787Z","","","","","","","","","","","","","","win-only","2","g1:SE,g2:NW","0.7","4","0","700070","2706.7","7716.7","36091.2","1","4","4","6","2","4","4","24","20","0.18181818181818182","2615.8","3000","470","[""left"",""up""]","{""num_key_presses"":10,""num_perfect"":7,""num_errors"":0,""num_randdir"":3,""num_randdir_good_moves"":1,""num_whilered"":0,""num_whileblue"":0,""num_blue"":0,""num_good_moves"":8}","[297.22232142857143,290.12857142857143,2.3,297.22232142857143,290.12857142857143,102.1,297.22232142857143,290.12857142857143,207.2,297.22232142857143,290.12857142857143,312.7,297.22232142857143,290.12857142857143,417.4,297.22232142857143,290.12857142857143,520.3,297.22232142857143,290.12857142857143,620.4,297.22232142857143,290.12857142857143,723.7,297.22232142857143,290.12857142857143,832.1,297.22232142857143,290.12857142857143,934.9,297.22232142857143,290.12857142857143,1036.1,297.22232142857143,290.12857142857143,1139.6,297.22232142857143,290.12857142857143,1240.5,297.22232142857143,290.12857142857143,1346.5,297.22232142857143,290.12857142857143,1453,297.22232142857143,290.12857142857143,1553,294.22232142857143,289.12857142857143,1656.7,180.22232142857143,207.12857142857143,1764,145.22232142857143,142.12857142857143,1868.4,136.22232142857143,122.12857142857143,1973.9,96.22232142857143,96.12857142857143,2077.2,75.22232142857143,87.12857142857143,2179,73.22232142857143,85.12857142857143,2282.2,70.22232142857143,82.12857142857143,2387.1,70.22232142857143,82.12857142857143,2496.4,70.22232142857143,82.12857142857143,2597.7,70.22232142857143,82.12857142857143,2701.5,70.22232142857143,82.12857142857143,2808.1,70.22232142857143,82.12857142857143,2918,70.22232142857143,82.12857142857143,3024.6,70.22232142857143,82.12857142857143,3133,70.22232142857143,82.12857142857143,3241.1,70.22232142857143,82.12857142857143,3348.3,265.22232142857143,116.12857142857143,3452.3,439.22232142857143,153.12857142857143,3560.9,524.2223214285714,167.12857142857143,3663.2,551.2223214285714,174.12857142857143,3767.3,555.2223214285714,174.12857142857143,3878.4,555.2223214285714,174.12857142857143,3981.8,555.2223214285714,174.12857142857143,4098.2,555.2223214285714,174.12857142857143,4198.6,555.2223214285714,174.12857142857143,4298.9,555.2223214285714,174.12857142857143,4401.4,555.2223214285714,174.12857142857143,4502.2,555.2223214285714,174.12857142857143,4608,555.2223214285714,174.12857142857143,4715.3,555.2223214285714,174.12857142857143,4833.5,555.2223214285714,174.12857142857143,4936.8]","[1540.1,1540.1,1000,0.1,540,""smooth"",""left"",""left"",""good_move"",4119.7,2576.1,2044.9,1543.6,531.2,""smooth"",""left"",""left"",""good_move"",6836.4,2713.9,2177.8,4122.5,536.1,""smooth"",""left"",""left"",""good_move"",10202.5,3365.4,2839.8,6837.3,525.5,""oops"",""up"",""up"",""good_move"",13290.6,3086.8,2610.2,10204,476.5,""smooth"",""up"",""up"",""good_move"",16436.6,3143.8,2688.7,13292.8,455.1,""oops"",""up"",""down"",""bad_move"",20138,3699.6,3080.2,16438.4,619.4,""smooth"",""up"",""up"",""good_move"",22942.5,2802.4,2359.9,20140.2,442.5,""oops"",""up"",""right"",""bad_move"",25893.2,2947,2430.9,22946.2,516.1,""smooth"",""up"",""up"",""good_move"",28202.5,2305,1820.7,25897.6,484.2,""smooth"",""left"",""left"",""good_move""]","",""
"3382","","<div style=""width:500px;"">
  <p>What determined the result of this run?</p>
  </div>","99","html-slider-response","25","696870","0.0-5.0-1.3","104","1","2025-07-16 10:50:06","1f75c3e559b7213887762d5229550c2b","102.128.184.38","Mozilla/5.0 (Windows NT 10.0; Win64; x64) AppleWebKit/537.36 (KHTML, like Gecko) Chrome/138.0.0.0 Safari/537.36 Edg/138.0.0.0","WebKit","Edge","138.0.0.0","Windows","10.0","https://app.prolific.com/","en-US,en;q=0.9,en-ZA;q=0.8","66952367721687887540318f","68764874ac79eee8c1d4cb03","687782fb090c9548bc1cd52e","2","0","66952367721687887540318f","2","0","2025-07-16T11:02:31.177Z","","","","","","","","","","","AttribQ","","50","","","","","","","","","","","","","","","","","","","","","","","","","","","","",""
"2619","","<div style=""width:500px;"">
  <p>How much control did you have over the ball?</p>
  </div>","99","html-slider-response","26","699494","0.0-5.0-2.3","104","1","2025-07-16 10:50:06","1f75c3e559b7213887762d5229550c2b","102.128.184.38","Mozilla/5.0 (Windows NT 10.0; Win64; x64) AppleWebKit/537.36 (KHTML, like Gecko) Chrome/138.0.0.0 Safari/537.36 Edg/138.0.0.0","WebKit","Edge","138.0.0.0","Windows","10.0","https://app.prolific.com/","en-US,en;q=0.9,en-ZA;q=0.8","66952367721687887540318f","68764874ac79eee8c1d4cb03","687782fb090c9548bc1cd52e","2","0","66952367721687887540318f","2","0","2025-07-16T11:02:33.800Z","","","","","","","","","","","ControlQ","","50","","","","","","","","","","","","","","","","","","","","","","","","","","","","",""
"3406","","<div style=""width:500px;"">
  <p>How would you describe your current emotional state?</p>
  </div>","0","html-slider-response","27","702905","0.0-5.0-3.3","104","1","2025-07-16 10:50:06","1f75c3e559b7213887762d5229550c2b","102.128.184.38","Mozilla/5.0 (Windows NT 10.0; Win64; x64) AppleWebKit/537.36 (KHTML, like Gecko) Chrome/138.0.0.0 Safari/537.36 Edg/138.0.0.0","WebKit","Edge","138.0.0.0","Windows","10.0","https://app.prolific.com/","en-US,en;q=0.9,en-ZA;q=0.8","66952367721687887540318f","68764874ac79eee8c1d4cb03","687782fb090c9548bc1cd52e","2","0","66952367721687887540318f","2","0","2025-07-16T11:02:37.211Z","","","","","","","","","","","StressQ","","50","","","","","","","","","","","","","","","","","","","","","","","","","","","","",""
"6310","","<div style=""width:500px;"">
  <p>What best describes how you currently feel?</p>
  </div>","99","html-slider-response","28","709222","0.0-5.0-4.3","104","1","2025-07-16 10:50:06","1f75c3e559b7213887762d5229550c2b","102.128.184.38","Mozilla/5.0 (Windows NT 10.0; Win64; x64) AppleWebKit/537.36 (KHTML, like Gecko) Chrome/138.0.0.0 Safari/537.36 Edg/138.0.0.0","WebKit","Edge","138.0.0.0","Windows","10.0","https://app.prolific.com/","en-US,en;q=0.9,en-ZA;q=0.8","66952367721687887540318f","68764874ac79eee8c1d4cb03","687782fb090c9548bc1cd52e","2","0","66952367721687887540318f","2","0","2025-07-16T11:02:43.529Z","","","","","","","","","","","MotivationQ","","50","","","","","","","","","","","","","","","","","","","","","","","","","","","","",""
"","","","","ctl-task-cpt","29","754802","0.0-5.0-0.4","104","1","2025-07-16 10:50:06","1f75c3e559b7213887762d5229550c2b","102.128.184.38","Mozilla/5.0 (Windows NT 10.0; Win64; x64) AppleWebKit/537.36 (KHTML, like Gecko) Chrome/138.0.0.0 Safari/537.36 Edg/138.0.0.0","WebKit","Edge","138.0.0.0","Windows","10.0","https://app.prolific.com/","en-US,en;q=0.9,en-ZA;q=0.8","66952367721687887540318f","68764874ac79eee8c1d4cb03","687782fb090c9548bc1cd52e","2","0","66952367721687887540318f","2","0","2025-07-16T11:03:29.108Z","","","","","","","","","","","","","","win-only","1","g1:NE,g2:SW","0.6","5","0","754932.9","1876.9","6886","42553.7","1","4","8","6","2","-8","-8","16","24","0.12121212121212122","1805.6","3000","-1295","[""down"",""left""]","{""num_key_presses"":11,""num_perfect"":7,""num_errors"":0,""num_randdir"":4,""num_randdir_good_moves"":1,""num_whilered"":0,""num_whileblue"":0,""num_blue"":0,""num_good_moves"":8}","[300.22232142857143,302.12857142857143,2.1,300.22232142857143,302.12857142857143,108.9,300.22232142857143,302.12857142857143,209.4,300.22232142857143,302.12857142857143,315.2,300.22232142857143,302.12857142857143,425.8,300.22232142857143,302.12857142857143,528.9,300.22232142857143,302.12857142857143,641.6,292.22232142857143,308.12857142857143,765.3,35.222321428571426,572.1285714285714,875.4,-14.777678571428574,632.1285714285714,990.1,-22.777678571428574,639.1285714285714,1097.8,12.222321428571426,593.1285714285714,1214.8,40.222321428571426,569.1285714285714,1333.9,48.222321428571426,564.1285714285714,1439.2,51.222321428571426,560.1285714285714,1547.3,51.222321428571426,560.1285714285714,1654.4,51.222321428571426,560.1285714285714,1763.6,51.222321428571426,560.1285714285714,1869.4,51.222321428571426,560.1285714285714,1969.6,51.222321428571426,560.1285714285714,2083.2,51.222321428571426,560.1285714285714,2189.3,51.222321428571426,560.1285714285714,2290.3,51.222321428571426,560.1285714285714,2405.1,51.222321428571426,560.1285714285714,2508.3,51.222321428571426,560.1285714285714,2614.3,51.222321428571426,560.1285714285714,2715,17.222321428571426,538.1285714285714,2820.3,-71.77767857142857,460.12857142857143,2934.5,-92.77767857142857,450.12857142857143,3036.2,-92.77767857142857,450.12857142857143,3145,-92.77767857142857,450.12857142857143,3252.6,-92.77767857142857,450.12857142857143,3353.6,-92.77767857142857,450.12857142857143,3456.8,-92.77767857142857,450.12857142857143,3559.6,-92.77767857142857,450.12857142857143,3660.2,-92.77767857142857,450.12857142857143,3765.3,-92.77767857142857,450.12857142857143,3874.5,-92.77767857142857,450.12857142857143,3976.7,-92.77767857142857,450.12857142857143,4085,-92.77767857142857,450.12857142857143,4185.8,-92.77767857142857,450.12857142857143,4290.6,-92.77767857142857,450.12857142857143,4394.7,-92.77767857142857,450.12857142857143,4501.4,-92.77767857142857,450.12857142857143,4604.6,-92.77767857142857,450.12857142857143,4709.1,-92.77767857142857,450.12857142857143,4822.5,-92.77767857142857,450.12857142857143,4934.9]","[1534.9,1534.9,1000,0,534.9,""smooth"",""left"",""left"",""good_move"",5236.5,3698.8,2873.9,1537.8,824.9,""oops"",""left"",""up"",""bad_move"",7971.2,2731.8,2092.1,5239.5,639.6,""smooth"",""left"",""left"",""good_move"",11053.1,3080.6,2481.8,7972.5,598.8,""smooth"",""left"",""left"",""good_move"",13948.5,2894.6,2136.4,11053.9,758.2,""smooth"",""down"",""down"",""good_move"",16952,2999.7,2526.4,13952.5,473.2,""oops"",""down"",""down"",""good_move"",19687,2734.2,2182.4,16952.9,551.8,""oops"",""down"",""up"",""bad_move"",22540.6,2848.8,2188.8,19691.8,660,""smooth"",""down"",""down"",""good_move"",25893.3,3350.9,2764.9,22542.4,586,""smooth"",""down"",""down"",""good_move"",28887.2,2988.9,2525.6,25898.5,463.2,""oops"",""down"",""right"",""bad_move"",32610.9,3720.5,3260.4,28890.5,460,""smooth"",""down"",""down"",""good_move""]","",""
"7233","","<div style=""width:500px;"">
  <p>What determined the result of this run?</p>
  </div>","100","html-slider-response","30","762042","0.0-5.0-1.4","104","1","2025-07-16 10:50:06","1f75c3e559b7213887762d5229550c2b","102.128.184.38","Mozilla/5.0 (Windows NT 10.0; Win64; x64) AppleWebKit/537.36 (KHTML, like Gecko) Chrome/138.0.0.0 Safari/537.36 Edg/138.0.0.0","WebKit","Edge","138.0.0.0","Windows","10.0","https://app.prolific.com/","en-US,en;q=0.9,en-ZA;q=0.8","66952367721687887540318f","68764874ac79eee8c1d4cb03","687782fb090c9548bc1cd52e","2","0","66952367721687887540318f","2","0","2025-07-16T11:03:36.348Z","","","","","","","","","","","AttribQ","","50","","","","","","","","","","","","","","","","","","","","","","","","","","","","",""
"3617","","<div style=""width:500px;"">
  <p>How much control did you have over the ball?</p>
  </div>","100","html-slider-response","31","765663","0.0-5.0-2.4","104","1","2025-07-16 10:50:06","1f75c3e559b7213887762d5229550c2b","102.128.184.38","Mozilla/5.0 (Windows NT 10.0; Win64; x64) AppleWebKit/537.36 (KHTML, like Gecko) Chrome/138.0.0.0 Safari/537.36 Edg/138.0.0.0","WebKit","Edge","138.0.0.0","Windows","10.0","https://app.prolific.com/","en-US,en;q=0.9,en-ZA;q=0.8","66952367721687887540318f","68764874ac79eee8c1d4cb03","687782fb090c9548bc1cd52e","2","0","66952367721687887540318f","2","0","2025-07-16T11:03:39.969Z","","","","","","","","","","","ControlQ","","50","","","","","","","","","","","","","","","","","","","","","","","","","","","","",""
"4100","","<div style=""width:500px;"">
  <p>How would you describe your current emotional state?</p>
  </div>","0","html-slider-response","32","769768","0.0-5.0-3.4","104","1","2025-07-16 10:50:06","1f75c3e559b7213887762d5229550c2b","102.128.184.38","Mozilla/5.0 (Windows NT 10.0; Win64; x64) AppleWebKit/537.36 (KHTML, like Gecko) Chrome/138.0.0.0 Safari/537.36 Edg/138.0.0.0","WebKit","Edge","138.0.0.0","Windows","10.0","https://app.prolific.com/","en-US,en;q=0.9,en-ZA;q=0.8","66952367721687887540318f","68764874ac79eee8c1d4cb03","687782fb090c9548bc1cd52e","2","0","66952367721687887540318f","2","0","2025-07-16T11:03:44.075Z","","","","","","","","","","","StressQ","","50","","","","","","","","","","","","","","","","","","","","","","","","","","","","",""
"3068","","<div style=""width:500px;"">
  <p>What best describes how you currently feel?</p>
  </div>","99","html-slider-response","33","772841","0.0-5.0-4.4","104","1","2025-07-16 10:50:06","1f75c3e559b7213887762d5229550c2b","102.128.184.38","Mozilla/5.0 (Windows NT 10.0; Win64; x64) AppleWebKit/537.36 (KHTML, like Gecko) Chrome/138.0.0.0 Safari/537.36 Edg/138.0.0.0","WebKit","Edge","138.0.0.0","Windows","10.0","https://app.prolific.com/","en-US,en;q=0.9,en-ZA;q=0.8","66952367721687887540318f","68764874ac79eee8c1d4cb03","687782fb090c9548bc1cd52e","2","0","66952367721687887540318f","2","0","2025-07-16T11:03:47.147Z","","","","","","","","","","","MotivationQ","","50","","","","","","","","","","","","","","","","","","","","","","","","","","","","",""
"","","","","ctl-task-cpt","34","827209","0.0-5.0-0.5","104","1","2025-07-16 10:50:06","1f75c3e559b7213887762d5229550c2b","102.128.184.38","Mozilla/5.0 (Windows NT 10.0; Win64; x64) AppleWebKit/537.36 (KHTML, like Gecko) Chrome/138.0.0.0 Safari/537.36 Edg/138.0.0.0","WebKit","Edge","138.0.0.0","Windows","10.0","https://app.prolific.com/","en-US,en;q=0.9,en-ZA;q=0.8","66952367721687887540318f","68764874ac79eee8c1d4cb03","687782fb090c9548bc1cd52e","2","0","66952367721687887540318f","2","0","2025-07-16T11:04:41.516Z","","","","","","","","","","","","","","win-only","3","g1:SW,g2:NE","0.5","6","0","818552","1803.3","6814.7","51337.9","1","4","4","6","2","4","4","20","16","0.15151515151515152","2112.6","3000","30","[""up"",""right""]","{""num_key_presses"":14,""num_perfect"":6,""num_errors"":0,""num_randdir"":8,""num_randdir_good_moves"":4,""num_whilered"":0,""num_whileblue"":0,""num_blue"":1,""num_good_moves"":10}","[299.22232142857143,292.12857142857143,0.9,299.22232142857143,292.12857142857143,101,299.22232142857143,292.12857142857143,204,299.22232142857143,292.12857142857143,317.8,299.22232142857143,292.12857142857143,423,299.22232142857143,292.12857142857143,538.6,299.22232142857143,292.12857142857143,645.8,299.22232142857143,292.12857142857143,746,299.22232142857143,292.12857142857143,849.3,299.22232142857143,292.12857142857143,955.9,299.22232142857143,292.12857142857143,1061.7,593.2223214285714,67.12857142857143,1170.7,695.2223214285714,-16.871428571428574,1273.9,700.2223214285714,-24.871428571428574,1375.7,677.2223214285714,-31.871428571428574,1477.7,603.2223214285714,24.128571428571426,1590.5,585.2223214285714,42.128571428571426,1704.8,569.2223214285714,52.128571428571426,1811.3,562.2223214285714,55.128571428571426,1915.4,562.2223214285714,55.128571428571426,2029.6,562.2223214285714,55.128571428571426,2134.1,562.2223214285714,55.128571428571426,2246.4,562.2223214285714,55.128571428571426,2355.3,562.2223214285714,55.128571428571426,2460,562.2223214285714,55.128571428571426,2569.5,532.2223214285714,218.12857142857143,2679,511.22232142857143,405.12857142857143,2782.1,560.2223214285714,460.12857142857143,2893,566.2223214285714,461.12857142857143,3006.9,568.2223214285714,461.12857142857143,3113.4,568.2223214285714,461.12857142857143,3215.1,568.2223214285714,461.12857142857143,3319,568.2223214285714,461.12857142857143,3432.3,568.2223214285714,461.12857142857143,3541.9,568.2223214285714,461.12857142857143,3650.2,568.2223214285714,461.12857142857143,3753.7,568.2223214285714,461.12857142857143,3859.9,568.2223214285714,461.12857142857143,3968.3,568.2223214285714,461.12857142857143,4076.9,568.2223214285714,461.12857142857143,4183.8,568.2223214285714,461.12857142857143,4286,568.2223214285714,461.12857142857143,4397.8,568.2223214285714,461.12857142857143,4503.4,568.2223214285714,461.12857142857143,4610.9,568.2223214285714,461.12857142857143,4713.2,568.2223214285714,461.12857142857143,4818.2,568.2223214285714,461.12857142857143,4931.7]","[1531.7,1531.7,1000,0,531.7,""oops"",""right"",""down"",""bad_move"",5190.3,3655.7,2863,1534.6,792.7,""smooth"",""right"",""right"",""good_move"",8339.3,3144.5,2499.9,5195,644.5,""smooth"",""right"",""right"",""good_move"",10924.2,2583.5,2075.7,8340.7,507.8,""oops"",""right"",""left"",""bad_move"",14044.3,3117.7,2510.9,10926.6,606.8,""oops"",""right"",""right"",""good_move"",17186.6,3138.5,2504,14048.1,634.5,""oops"",""right"",""up"",""good_move"",24136.5,6946.5,2495.3,20952.4,688.8,""smooth"",""right"",""right"",""good_move"",26508.7,2368.4,1777,24140.4,591.4,""smooth"",""up"",""up"",""good_move"",29918.5,3408.7,2719.7,26509.9,688.9,""smooth"",""up"",""up"",""good_move"",33302.1,3380.8,2912.4,29921.5,468.3,""oops"",""up"",""down"",""bad_move"",36629,3324.5,2729.3,33304.5,596.6,""smooth"",""up"",""up"",""good_move"",39368,2734.7,2166.4,36633.4,568.2,""oops"",""up"",""down"",""bad_move"",41563.6,2194.3,1579.9,39369.4,614.4,""oops"",""up"",""up"",""good_move"",44270.3,2704.8,2229.1,41565.6,475.6,""oops"",""up"",""up"",""good_move""]","",""
"6640","","<div style=""width:500px;"">
  <p>What determined the result of this run?</p>
  </div>","100","html-slider-response","35","833855","0.0-5.0-1.5","104","1","2025-07-16 10:50:06","1f75c3e559b7213887762d5229550c2b","102.128.184.38","Mozilla/5.0 (Windows NT 10.0; Win64; x64) AppleWebKit/537.36 (KHTML, like Gecko) Chrome/138.0.0.0 Safari/537.36 Edg/138.0.0.0","WebKit","Edge","138.0.0.0","Windows","10.0","https://app.prolific.com/","en-US,en;q=0.9,en-ZA;q=0.8","66952367721687887540318f","68764874ac79eee8c1d4cb03","687782fb090c9548bc1cd52e","2","0","66952367721687887540318f","2","0","2025-07-16T11:04:48.162Z","","","","","","","","","","","AttribQ","","50","","","","","","","","","","","","","","","","","","","","","","","","","","","","",""
"2566","","<div style=""width:500px;"">
  <p>How much control did you have over the ball?</p>
  </div>","100","html-slider-response","36","836428","0.0-5.0-2.5","104","1","2025-07-16 10:50:06","1f75c3e559b7213887762d5229550c2b","102.128.184.38","Mozilla/5.0 (Windows NT 10.0; Win64; x64) AppleWebKit/537.36 (KHTML, like Gecko) Chrome/138.0.0.0 Safari/537.36 Edg/138.0.0.0","WebKit","Edge","138.0.0.0","Windows","10.0","https://app.prolific.com/","en-US,en;q=0.9,en-ZA;q=0.8","66952367721687887540318f","68764874ac79eee8c1d4cb03","687782fb090c9548bc1cd52e","2","0","66952367721687887540318f","2","0","2025-07-16T11:04:50.735Z","","","","","","","","","","","ControlQ","","50","","","","","","","","","","","","","","","","","","","","","","","","","","","","",""
"4832","","<div style=""width:500px;"">
  <p>How would you describe your current emotional state?</p>
  </div>","2","html-slider-response","37","841267","0.0-5.0-3.5","104","1","2025-07-16 10:50:06","1f75c3e559b7213887762d5229550c2b","102.128.184.38","Mozilla/5.0 (Windows NT 10.0; Win64; x64) AppleWebKit/537.36 (KHTML, like Gecko) Chrome/138.0.0.0 Safari/537.36 Edg/138.0.0.0","WebKit","Edge","138.0.0.0","Windows","10.0","https://app.prolific.com/","en-US,en;q=0.9,en-ZA;q=0.8","66952367721687887540318f","68764874ac79eee8c1d4cb03","687782fb090c9548bc1cd52e","2","0","66952367721687887540318f","2","0","2025-07-16T11:04:55.573Z","","","","","","","","","","","StressQ","","50","","","","","","","","","","","","","","","","","","","","","","","","","","","","",""
"3788","","<div style=""width:500px;"">
  <p>What best describes how you currently feel?</p>
  </div>","99","html-slider-response","38","845060","0.0-5.0-4.5","104","1","2025-07-16 10:50:06","1f75c3e559b7213887762d5229550c2b","102.128.184.38","Mozilla/5.0 (Windows NT 10.0; Win64; x64) AppleWebKit/537.36 (KHTML, like Gecko) Chrome/138.0.0.0 Safari/537.36 Edg/138.0.0.0","WebKit","Edge","138.0.0.0","Windows","10.0","https://app.prolific.com/","en-US,en;q=0.9,en-ZA;q=0.8","66952367721687887540318f","68764874ac79eee8c1d4cb03","687782fb090c9548bc1cd52e","2","0","66952367721687887540318f","2","0","2025-07-16T11:04:59.367Z","","","","","","","","","","","MotivationQ","","50","","","","","","","","","","","","","","","","","","","","","","","","","","","","",""
"","","","","ctl-task-cpt","39","922271","0.0-5.0-0.6","104","1","2025-07-16 10:50:06","1f75c3e559b7213887762d5229550c2b","102.128.184.38","Mozilla/5.0 (Windows NT 10.0; Win64; x64) AppleWebKit/537.36 (KHTML, like Gecko) Chrome/138.0.0.0 Safari/537.36 Edg/138.0.0.0","WebKit","Edge","138.0.0.0","Windows","10.0","https://app.prolific.com/","en-US,en;q=0.9,en-ZA;q=0.8","66952367721687887540318f","68764874ac79eee8c1d4cb03","687782fb090c9548bc1cd52e","2","0","66952367721687887540318f","2","0","2025-07-16T11:06:16.578Z","","","","","","","","","","","","","","win-only","2","g1:SE,g2:NW","0.4","7","0","890771.8","2042.3","7058.6","74180.6","1","4","8","6","2","8","8","28","20","0.21212121212121213","1592.1","3000","120","[""left"",""up""]","{""num_key_presses"":18,""num_perfect"":7,""num_errors"":0,""num_randdir"":11,""num_randdir_good_moves"":5,""num_whilered"":0,""num_whileblue"":0,""num_blue"":3,""num_good_moves"":12}","[295.22232142857143,296.12857142857143,1.2,295.22232142857143,296.12857142857143,103.1,295.22232142857143,296.12857142857143,205.9,295.22232142857143,296.12857142857143,312,295.22232142857143,296.12857142857143,415.8,295.22232142857143,296.12857142857143,518.6,295.22232142857143,296.12857142857143,635.6,295.22232142857143,296.12857142857143,735.7,221.22232142857143,263.12857142857143,841.2,126.22232142857143,151.12857142857143,953.3,104.22232142857143,114.12857142857143,1054.7,76.22232142857143,87.12857142857143,1165.6,67.22232142857143,80.12857142857143,1275.7,60.222321428571426,76.12857142857143,1390.9,60.222321428571426,76.12857142857143,1496.8,60.222321428571426,76.12857142857143,1597.4,60.222321428571426,76.12857142857143,1701.1,60.222321428571426,76.12857142857143,1811,60.222321428571426,76.12857142857143,1922.1,60.222321428571426,76.12857142857143,2038.6,58.222321428571426,76.12857142857143,2141.4,-203.77767857142857,217.12857142857143,2255.2,-282.77767857142857,271.12857142857143,2357,-292.77767857142857,281.12857142857143,2460.1,-292.77767857142857,281.12857142857143,2561.6,-292.77767857142857,281.12857142857143,2675.5,-292.77767857142857,281.12857142857143,2783.7,-292.77767857142857,281.12857142857143,2895.1,-292.77767857142857,281.12857142857143,3002,-292.77767857142857,281.12857142857143,3106.4,-292.77767857142857,281.12857142857143,3219.9,-292.77767857142857,281.12857142857143,3328.8,-292.77767857142857,281.12857142857143,3433.9,-292.77767857142857,281.12857142857143,3534.2,-292.77767857142857,281.12857142857143,3645.8,-292.77767857142857,281.12857142857143,3759.4,-292.77767857142857,281.12857142857143,3860.6,-292.77767857142857,281.12857142857143,3969.5,-292.77767857142857,281.12857142857143,4080.3,-292.77767857142857,281.12857142857143,4186.2,-292.77767857142857,281.12857142857143,4291.7,-292.77767857142857,281.12857142857143,4400.2,-292.77767857142857,281.12857142857143,4516.2,-292.77767857142857,281.12857142857143,4629.1,-292.77767857142857,281.12857142857143,4749.1,-292.77767857142857,281.12857142857143,4855.3,-292.77767857142857,281.12857142857143,4967.4]","[1497.9,1497.9,1000,0,497.9,""smooth"",""left"",""left"",""good_move"",4693.8,3193.8,1958.7,1500.1,1235,""smooth"",""left"",""left"",""good_move"",8496.7,3801.2,3312.1,4695.5,489.1,""oops"",""left"",""left"",""good_move"",11538.8,3039.1,2493.4,8499.7,545.7,""oops"",""up"",""down"",""bad_move"",18317.1,6775.8,2974.7,14872.2,470.2,""smooth"",""up"",""up"",""good_move"",24475.4,6156.7,2031.5,21934.7,509.2,""smooth"",""up"",""up"",""good_move"",27479.4,3002.6,1747.8,24476.8,1255,""oops"",""up"",""down"",""bad_move"",30352.1,2871.8,2394.9,27480.3,476.9,""oops"",""up"",""down"",""bad_move"",33157.6,2804.5,2324.5,30353.1,480,""oops"",""up"",""right"",""bad_move"",36567.9,3406.1,2921.1,33161.9,484.9,""oops"",""up"",""up"",""good_move"",39623.1,3053.6,2077.6,36569.5,976,""smooth"",""up"",""up"",""good_move"",42599.2,2974.1,2505.4,39625.1,468.7,""oops"",""up"",""left"",""good_move"",45633.8,3031.6,2271,42602.2,760.6,""oops"",""up"",""down"",""bad_move"",48901.7,3264.7,2721.2,45637.1,543.4,""oops"",""up"",""right"",""bad_move"",52662.1,3758.8,3299.8,48903.5,458.9,""smooth"",""up"",""up"",""good_move"",60186.2,7518.3,3384.2,56317.5,484.5,""oops"",""up"",""up"",""good_move"",63696.6,3509,3002.3,60187.7,506.6,""oops"",""up"",""up"",""good_move"",66854.2,3154.4,2630.4,63700,523.9,""smooth"",""left"",""left"",""good_move""]","",""
"12165","","<div style=""width:500px;"">
  <p>What determined the result of this run?</p>
  </div>","100","html-slider-response","40","934445","0.0-5.0-1.6","104","1","2025-07-16 10:50:06","1f75c3e559b7213887762d5229550c2b","102.128.184.38","Mozilla/5.0 (Windows NT 10.0; Win64; x64) AppleWebKit/537.36 (KHTML, like Gecko) Chrome/138.0.0.0 Safari/537.36 Edg/138.0.0.0","WebKit","Edge","138.0.0.0","Windows","10.0","https://app.prolific.com/","en-US,en;q=0.9,en-ZA;q=0.8","66952367721687887540318f","68764874ac79eee8c1d4cb03","687782fb090c9548bc1cd52e","2","0","66952367721687887540318f","2","0","2025-07-16T11:06:28.752Z","","","","","","","","","","","AttribQ","","50","","","","","","","","","","","","","","","","","","","","","","","","","","","","",""
"5807","","<div style=""width:500px;"">
  <p>How much control did you have over the ball?</p>
  </div>","100","html-slider-response","41","940261","0.0-5.0-2.6","104","1","2025-07-16 10:50:06","1f75c3e559b7213887762d5229550c2b","102.128.184.38","Mozilla/5.0 (Windows NT 10.0; Win64; x64) AppleWebKit/537.36 (KHTML, like Gecko) Chrome/138.0.0.0 Safari/537.36 Edg/138.0.0.0","WebKit","Edge","138.0.0.0","Windows","10.0","https://app.prolific.com/","en-US,en;q=0.9,en-ZA;q=0.8","66952367721687887540318f","68764874ac79eee8c1d4cb03","687782fb090c9548bc1cd52e","2","0","66952367721687887540318f","2","0","2025-07-16T11:06:34.567Z","","","","","","","","","","","ControlQ","","50","","","","","","","","","","","","","","","","","","","","","","","","","","","","",""
"4714","","<div style=""width:500px;"">
  <p>How would you describe your current emotional state?</p>
  </div>","0","html-slider-response","42","944980","0.0-5.0-3.6","104","1","2025-07-16 10:50:06","1f75c3e559b7213887762d5229550c2b","102.128.184.38","Mozilla/5.0 (Windows NT 10.0; Win64; x64) AppleWebKit/537.36 (KHTML, like Gecko) Chrome/138.0.0.0 Safari/537.36 Edg/138.0.0.0","WebKit","Edge","138.0.0.0","Windows","10.0","https://app.prolific.com/","en-US,en;q=0.9,en-ZA;q=0.8","66952367721687887540318f","68764874ac79eee8c1d4cb03","687782fb090c9548bc1cd52e","2","0","66952367721687887540318f","2","0","2025-07-16T11:06:39.286Z","","","","","","","","","","","StressQ","","50","","","","","","","","","","","","","","","","","","","","","","","","","","","","",""
"6104","","<div style=""width:500px;"">
  <p>What best describes how you currently feel?</p>
  </div>","99","html-slider-response","43","951093","0.0-5.0-4.6","104","1","2025-07-16 10:50:06","1f75c3e559b7213887762d5229550c2b","102.128.184.38","Mozilla/5.0 (Windows NT 10.0; Win64; x64) AppleWebKit/537.36 (KHTML, like Gecko) Chrome/138.0.0.0 Safari/537.36 Edg/138.0.0.0","WebKit","Edge","138.0.0.0","Windows","10.0","https://app.prolific.com/","en-US,en;q=0.9,en-ZA;q=0.8","66952367721687887540318f","68764874ac79eee8c1d4cb03","687782fb090c9548bc1cd52e","2","0","66952367721687887540318f","2","0","2025-07-16T11:06:45.400Z","","","","","","","","","","","MotivationQ","","50","","","","","","","","","","","","","","","","","","","","","","","","","","","","",""
"","","","","ctl-task-cpt","44","1035609","0.0-5.0-0.7","104","1","2025-07-16 10:50:06","1f75c3e559b7213887762d5229550c2b","102.128.184.38","Mozilla/5.0 (Windows NT 10.0; Win64; x64) AppleWebKit/537.36 (KHTML, like Gecko) Chrome/138.0.0.0 Safari/537.36 Edg/138.0.0.0","WebKit","Edge","138.0.0.0","Windows","10.0","https://app.prolific.com/","en-US,en;q=0.9,en-ZA;q=0.8","66952367721687887540318f","68764874ac79eee8c1d4cb03","687782fb090c9548bc1cd52e","2","0","66952367721687887540318f","2","0","2025-07-16T11:08:09.916Z","","","","","","","","","","","","","","win-only","1","g1:NE,g2:SW","0.3","8","0","996805.9","2499.4","7512.7","81479.8","1","4","4","6","2","4","4","32","28","0.24242424242424243","1641.1","3000","435","[""down"",""left""]","{""num_key_presses"":16,""num_perfect"":6,""num_errors"":0,""num_randdir"":10,""num_randdir_good_moves"":5,""num_whilered"":0,""num_whileblue"":0,""num_blue"":6,""num_good_moves"":11}","[300.22232142857143,305.12857142857143,3.8,300.22232142857143,305.12857142857143,118.8,300.22232142857143,305.12857142857143,232.7,300.22232142857143,305.12857142857143,337.3,300.22232142857143,305.12857142857143,437.3,300.22232142857143,305.12857142857143,548.7,300.22232142857143,305.12857142857143,661.3,300.22232142857143,305.12857142857143,770.2,272.22232142857143,334.12857142857143,873.5,116.22232142857143,481.12857142857143,981.4,83.22232142857143,523.1285714285714,1098.1,77.22232142857143,528.1285714285714,1209.2,77.22232142857143,528.1285714285714,1320.6,74.22232142857143,530.1285714285714,1429.8,74.22232142857143,530.1285714285714,1544.6,74.22232142857143,530.1285714285714,1667.1,74.22232142857143,530.1285714285714,1767.6,74.22232142857143,530.1285714285714,1879.7,74.22232142857143,530.1285714285714,1996.7,74.22232142857143,530.1285714285714,2111.9,123.22232142857143,524.1285714285714,2233.8,651.2223214285714,521.1285714285714,2343.9,794.2223214285714,522.1285714285714,2445.9,798.2223214285714,521.1285714285714,2550.8,798.2223214285714,521.1285714285714,2654.2,798.2223214285714,521.1285714285714,2760.8,798.2223214285714,521.1285714285714,2875.6,798.2223214285714,521.1285714285714,2978.5,798.2223214285714,521.1285714285714,3096.1,798.2223214285714,521.1285714285714,3213.1,798.2223214285714,521.1285714285714,3314.4,798.2223214285714,521.1285714285714,3425,798.2223214285714,521.1285714285714,3534,798.2223214285714,521.1285714285714,3645.8,798.2223214285714,521.1285714285714,3759.1,798.2223214285714,521.1285714285714,3866.5,798.2223214285714,521.1285714285714,3967.9,798.2223214285714,521.1285714285714,4075.4,798.2223214285714,521.1285714285714,4193.2,798.2223214285714,521.1285714285714,4305.8,798.2223214285714,521.1285714285714,4420.6,798.2223214285714,521.1285714285714,4544,798.2223214285714,521.1285714285714,4646,798.2223214285714,521.1285714285714,4746.4,798.2223214285714,521.1285714285714,4851.4,798.2223214285714,521.1285714285714,4960]","[4813.4,4813.4,2255.4,2030.8,527.2,""oops"",""left"",""down"",""good_move"",22999.5,18183,2738.7,19594.1,666.8,""oops"",""left"",""up"",""bad_move"",26504.2,3502.9,2863.1,23001.4,639.8,""oops"",""left"",""left"",""good_move"",30841.1,4333.7,3084.7,26507.4,1249,""smooth"",""left"",""left"",""good_move"",34119.8,3275.3,1916,30844.6,1359.3,""oops"",""left"",""right"",""bad_move"",36769,2647.2,2072.6,34121.9,574.6,""oops"",""left"",""right"",""bad_move"",40210.9,3441,2902.2,36769.9,538.8,""smooth"",""left"",""left"",""good_move"",43602.4,3390.1,2610.9,40212.4,779.1,""smooth"",""left"",""left"",""good_move"",46813.6,3209.5,2154.6,43604.1,1054.9,""oops"",""left"",""up"",""bad_move"",53884.3,7068,2787.2,50639.9,457.2,""oops"",""left"",""left"",""good_move"",57214.8,3327.4,2252.3,53887.4,1075.2,""smooth"",""down"",""down"",""good_move"",60529.6,3312.7,2806.5,57217,506.1,""oops"",""down"",""down"",""good_move"",63282.1,2750.3,2240.1,60531.9,510.1,""oops"",""down"",""up"",""bad_move"",66676.1,3392.3,2406.7,63283.8,985.6,""smooth"",""down"",""down"",""good_move"",70218.1,3540.4,3025.9,66677.7,514.5,""smooth"",""down"",""down"",""good_move"",73583.9,3364.7,2947.5,70219.2,417.2,""oops"",""down"",""down"",""good_move""]","",""
"4782","","<div style=""width:500px;"">
  <p>What determined the result of this run?</p>
  </div>","99","html-slider-response","45","1040401","0.0-5.0-1.7","104","1","2025-07-16 10:50:06","1f75c3e559b7213887762d5229550c2b","102.128.184.38","Mozilla/5.0 (Windows NT 10.0; Win64; x64) AppleWebKit/537.36 (KHTML, like Gecko) Chrome/138.0.0.0 Safari/537.36 Edg/138.0.0.0","WebKit","Edge","138.0.0.0","Windows","10.0","https://app.prolific.com/","en-US,en;q=0.9,en-ZA;q=0.8","66952367721687887540318f","68764874ac79eee8c1d4cb03","687782fb090c9548bc1cd52e","2","0","66952367721687887540318f","2","0","2025-07-16T11:08:14.708Z","","","","","","","","","","","AttribQ","","50","","","","","","","","","","","","","","","","","","","","","","","","","","","","",""
"5987","","<div style=""width:500px;"">
  <p>How much control did you have over the ball?</p>
  </div>","100","html-slider-response","46","1046394","0.0-5.0-2.7","104","1","2025-07-16 10:50:06","1f75c3e559b7213887762d5229550c2b","102.128.184.38","Mozilla/5.0 (Windows NT 10.0; Win64; x64) AppleWebKit/537.36 (KHTML, like Gecko) Chrome/138.0.0.0 Safari/537.36 Edg/138.0.0.0","WebKit","Edge","138.0.0.0","Windows","10.0","https://app.prolific.com/","en-US,en;q=0.9,en-ZA;q=0.8","66952367721687887540318f","68764874ac79eee8c1d4cb03","687782fb090c9548bc1cd52e","2","0","66952367721687887540318f","2","0","2025-07-16T11:08:20.704Z","","","","","","","","","","","ControlQ","","50","","","","","","","","","","","","","","","","","","","","","","","","","","","","",""
"3983","","<div style=""width:500px;"">
  <p>How would you describe your current emotional state?</p>
  </div>","1","html-slider-response","47","1050393","0.0-5.0-3.7","104","1","2025-07-16 10:50:06","1f75c3e559b7213887762d5229550c2b","102.128.184.38","Mozilla/5.0 (Windows NT 10.0; Win64; x64) AppleWebKit/537.36 (KHTML, like Gecko) Chrome/138.0.0.0 Safari/537.36 Edg/138.0.0.0","WebKit","Edge","138.0.0.0","Windows","10.0","https://app.prolific.com/","en-US,en;q=0.9,en-ZA;q=0.8","66952367721687887540318f","68764874ac79eee8c1d4cb03","687782fb090c9548bc1cd52e","2","0","66952367721687887540318f","2","0","2025-07-16T11:08:24.699Z","","","","","","","","","","","StressQ","","50","","","","","","","","","","","","","","","","","","","","","","","","","","","","",""
"3418","","<div style=""width:500px;"">
  <p>What best describes how you currently feel?</p>
  </div>","98","html-slider-response","48","1053817","0.0-5.0-4.7","104","1","2025-07-16 10:50:06","1f75c3e559b7213887762d5229550c2b","102.128.184.38","Mozilla/5.0 (Windows NT 10.0; Win64; x64) AppleWebKit/537.36 (KHTML, like Gecko) Chrome/138.0.0.0 Safari/537.36 Edg/138.0.0.0","WebKit","Edge","138.0.0.0","Windows","10.0","https://app.prolific.com/","en-US,en;q=0.9,en-ZA;q=0.8","66952367721687887540318f","68764874ac79eee8c1d4cb03","687782fb090c9548bc1cd52e","2","0","66952367721687887540318f","2","0","2025-07-16T11:08:28.123Z","","","","","","","","","","","MotivationQ","","50","","","","","","","","","","","","","","","","","","","","","","","","","","","","",""
"","","","","ctl-task-cpt","49","1133966","0.0-5.0-0.8","104","1","2025-07-16 10:50:06","1f75c3e559b7213887762d5229550c2b","102.128.184.38","Mozilla/5.0 (Windows NT 10.0; Win64; x64) AppleWebKit/537.36 (KHTML, like Gecko) Chrome/138.0.0.0 Safari/537.36 Edg/138.0.0.0","WebKit","Edge","138.0.0.0","Windows","10.0","https://app.prolific.com/","en-US,en;q=0.9,en-ZA;q=0.8","66952367721687887540318f","68764874ac79eee8c1d4cb03","687782fb090c9548bc1cd52e","2","0","66952367721687887540318f","2","0","2025-07-16T11:09:48.273Z","","","","","","","","","","","","","","win-only","1","g1:NE,g2:SW","0.2","9","0","1099523.6","2067","7076.6","77092.2","1","4","8","6","2","-8","-9","23","32","0.17424242424242425","1965.9","3000","-760","[""down"",""left""]","{""num_key_presses"":19,""num_perfect"":3,""num_errors"":1,""num_randdir"":15,""num_randdir_good_moves"":6,""num_whilered"":0,""num_whileblue"":0,""num_blue"":2,""num_good_moves"":9}","[302.22232142857143,298.12857142857143,5.2,302.22232142857143,298.12857142857143,105.2,302.22232142857143,298.12857142857143,212.5,302.22232142857143,298.12857142857143,323.6,302.22232142857143,298.12857142857143,440.2,302.22232142857143,298.12857142857143,556.2,302.22232142857143,298.12857142857143,659.2,302.22232142857143,298.12857142857143,777,302.22232142857143,298.12857142857143,886.7,302.22232142857143,298.12857142857143,987.3,302.22232142857143,298.12857142857143,1090.5,302.22232142857143,298.12857142857143,1199.9,302.22232142857143,298.12857142857143,1302.7,147.22232142857143,463.12857142857143,1416.4,84.22232142857143,513.1285714285714,1541.8,66.22232142857143,523.1285714285714,1657.4,51.222321428571426,531.1285714285714,1766.9,51.222321428571426,531.1285714285714,1872.5,51.222321428571426,531.1285714285714,1992,51.222321428571426,531.1285714285714,2093.7,51.222321428571426,531.1285714285714,2202.3,51.222321428571426,531.1285714285714,2303.8,51.222321428571426,531.1285714285714,2410,51.222321428571426,531.1285714285714,2522.5,51.222321428571426,531.1285714285714,2638.3,75.22232142857143,536.1285714285714,2756.7,473.22232142857143,528.1285714285714,2858.7,621.2223214285714,564.1285714285714,2978,656.2223214285714,566.1285714285714,3087.9,692.2223214285714,572.1285714285714,3193,692.2223214285714,572.1285714285714,3308.6,692.2223214285714,572.1285714285714,3415.5,692.2223214285714,572.1285714285714,3538.3,692.2223214285714,572.1285714285714,3653.5,692.2223214285714,572.1285714285714,3757.6,692.2223214285714,572.1285714285714,3859.1,692.2223214285714,572.1285714285714,3976.4,692.2223214285714,572.1285714285714,4080.4,692.2223214285714,572.1285714285714,4184.7,692.2223214285714,572.1285714285714,4306.6,692.2223214285714,572.1285714285714,4412.6,692.2223214285714,572.1285714285714,4517.4,692.2223214285714,572.1285714285714,4619.5,692.2223214285714,572.1285714285714,4722.1,692.2223214285714,572.1285714285714,4834.8,692.2223214285714,572.1285714285714,4936.5]","[1481.5,1481.5,1000,0,481.5,""oops"",""left"",""down"",""good_move"",4755.8,3271.8,2443.3,1484,828.6,""oops"",""left"",""down"",""good_move"",7274.4,2516.9,1827.6,4757.5,689.3,""oops"",""left"",""up"",""bad_move"",11050.2,3772.9,2533.6,7277.4,1239.3,""smooth"",""left"",""left"",""good_move"",18547.3,7495,2670.6,15288.4,588.3,""oops"",""left"",""right"",""bad_move"",22001.8,3451.8,2807,18550.2,644.7,""oops"",""left"",""right"",""bad_move"",24755.1,2752.4,1964.9,22002.7,787.5,""oops"",""left"",""down"",""good_move"",27621.7,2865.5,2260.6,24756.2,604.9,""oops"",""left"",""down"",""good_move"",30728.2,3105.7,2582.5,27622.5,523.2,""smooth"",""left"",""left"",""good_move"",34426.6,3697.4,1831.4,30729.3,1866,""oops"",""left"",""right"",""bad_move"",37338.6,2911,2358,34427.7,553,""oops"",""left"",""right"",""bad_move"",40211.8,2871.4,2393.7,37340.5,477.6,""oops"",""left"",""up"",""bad_move"",42279.4,2066.4,1974.2,40213.1,92.2,""error"",""-"",""-"",""no_move"",45893.7,3611.9,1983.8,43289,620.9,""oops"",""left"",""down"",""good_move"",48766.1,2871.3,2278,45894.9,593.3,""smooth"",""left"",""left"",""good_move"",52718.2,3948.9,2626.7,48769.3,1322.2,""oops"",""left"",""up"",""bad_move"",60605.1,7886.1,2988.7,57014.3,602.1,""oops"",""left"",""down"",""good_move"",63287.1,2680.5,1797.9,60606.7,882.5,""oops"",""left"",""up"",""bad_move"",67211.5,3922.6,2588.3,63288.9,1334.3,""oops"",""left"",""right"",""bad_move""]","",""
"6063","","<div style=""width:500px;"">
  <p>What determined the result of this run?</p>
  </div>","100","html-slider-response","50","1140037","0.0-5.0-1.8","104","1","2025-07-16 10:50:06","1f75c3e559b7213887762d5229550c2b","102.128.184.38","Mozilla/5.0 (Windows NT 10.0; Win64; x64) AppleWebKit/537.36 (KHTML, like Gecko) Chrome/138.0.0.0 Safari/537.36 Edg/138.0.0.0","WebKit","Edge","138.0.0.0","Windows","10.0","https://app.prolific.com/","en-US,en;q=0.9,en-ZA;q=0.8","66952367721687887540318f","68764874ac79eee8c1d4cb03","687782fb090c9548bc1cd52e","2","0","66952367721687887540318f","2","0","2025-07-16T11:09:54.343Z","","","","","","","","","","","AttribQ","","50","","","","","","","","","","","","","","","","","","","","","","","","","","","","",""
"4635","","<div style=""width:500px;"">
  <p>How much control did you have over the ball?</p>
  </div>","15","html-slider-response","51","1144677","0.0-5.0-2.8","104","1","2025-07-16 10:50:06","1f75c3e559b7213887762d5229550c2b","102.128.184.38","Mozilla/5.0 (Windows NT 10.0; Win64; x64) AppleWebKit/537.36 (KHTML, like Gecko) Chrome/138.0.0.0 Safari/537.36 Edg/138.0.0.0","WebKit","Edge","138.0.0.0","Windows","10.0","https://app.prolific.com/","en-US,en;q=0.9,en-ZA;q=0.8","66952367721687887540318f","68764874ac79eee8c1d4cb03","687782fb090c9548bc1cd52e","2","0","66952367721687887540318f","2","0","2025-07-16T11:09:58.984Z","","","","","","","","","","","ControlQ","","50","","","","","","","","","","","","","","","","","","","","","","","","","","","","",""
"3963","","<div style=""width:500px;"">
  <p>How would you describe your current emotional state?</p>
  </div>","96","html-slider-response","52","1148645","0.0-5.0-3.8","104","1","2025-07-16 10:50:06","1f75c3e559b7213887762d5229550c2b","102.128.184.38","Mozilla/5.0 (Windows NT 10.0; Win64; x64) AppleWebKit/537.36 (KHTML, like Gecko) Chrome/138.0.0.0 Safari/537.36 Edg/138.0.0.0","WebKit","Edge","138.0.0.0","Windows","10.0","https://app.prolific.com/","en-US,en;q=0.9,en-ZA;q=0.8","66952367721687887540318f","68764874ac79eee8c1d4cb03","687782fb090c9548bc1cd52e","2","0","66952367721687887540318f","2","0","2025-07-16T11:10:02.951Z","","","","","","","","","","","StressQ","","50","","","","","","","","","","","","","","","","","","","","","","","","","","","","",""
"3869","","<div style=""width:500px;"">
  <p>What best describes how you currently feel?</p>
  </div>","23","html-slider-response","53","1152518","0.0-5.0-4.8","104","1","2025-07-16 10:50:06","1f75c3e559b7213887762d5229550c2b","102.128.184.38","Mozilla/5.0 (Windows NT 10.0; Win64; x64) AppleWebKit/537.36 (KHTML, like Gecko) Chrome/138.0.0.0 Safari/537.36 Edg/138.0.0.0","WebKit","Edge","138.0.0.0","Windows","10.0","https://app.prolific.com/","en-US,en;q=0.9,en-ZA;q=0.8","66952367721687887540318f","68764874ac79eee8c1d4cb03","687782fb090c9548bc1cd52e","2","0","66952367721687887540318f","2","0","2025-07-16T11:10:06.825Z","","","","","","","","","","","MotivationQ","","50","","","","","","","","","","","","","","","","","","","","","","","","","","","","",""
"","","","","ctl-task-cpt","54","1233158","0.0-5.0-0.9","104","1","2025-07-16 10:50:06","1f75c3e559b7213887762d5229550c2b","102.128.184.38","Mozilla/5.0 (Windows NT 10.0; Win64; x64) AppleWebKit/537.36 (KHTML, like Gecko) Chrome/138.0.0.0 Safari/537.36 Edg/138.0.0.0","WebKit","Edge","138.0.0.0","Windows","10.0","https://app.prolific.com/","en-US,en;q=0.9,en-ZA;q=0.8","66952367721687887540318f","68764874ac79eee8c1d4cb03","687782fb090c9548bc1cd52e","2","0","66952367721687887540318f","2","0","2025-07-16T11:11:27.465Z","","","","","","","","","","","","","","win-only","2","g1:SE,g2:NW","0.4","10","0","1198230.5","17586.9","22606.5","77590.4","1","4","4","6","2","4","4","27","23","0.20454545454545456","1417.6","3000","930","[""left"",""up""]","{""num_key_presses"":14,""num_perfect"":7,""num_errors"":0,""num_randdir"":7,""num_randdir_good_moves"":3,""num_whilered"":0,""num_whileblue"":0,""num_blue"":1,""num_good_moves"":10}","[294.22232142857143,294.12857142857143,2.5,294.22232142857143,294.12857142857143,109.9,294.22232142857143,294.12857142857143,227.4,294.22232142857143,294.12857142857143,343.6,294.22232142857143,294.12857142857143,444,294.22232142857143,294.12857142857143,546.5,294.22232142857143,294.12857142857143,648.6,185.22232142857143,232.12857142857143,781.5,32.222321428571426,103.12857142857143,883.7,22.222321428571426,85.12857142857143,987.7,22.222321428571426,79.12857142857143,1087.9,29.222321428571426,71.12857142857143,1194.8,29.222321428571426,71.12857142857143,1314.7,29.222321428571426,71.12857142857143,1441.8,29.222321428571426,71.12857142857143,1556,29.222321428571426,71.12857142857143,1668.5,29.222321428571426,71.12857142857143,1788.3,29.222321428571426,71.12857142857143,1907.8,-26.777678571428574,108.12857142857143,2023,-134.77767857142857,172.12857142857143,2152.8,-144.77767857142857,183.12857142857143,2258.9,-144.77767857142857,183.12857142857143,2367.4,-144.77767857142857,183.12857142857143,2467.6,-144.77767857142857,183.12857142857143,2574.6,-144.77767857142857,183.12857142857143,2680.7,-144.77767857142857,183.12857142857143,2782.1,-144.77767857142857,183.12857142857143,2884.5,-144.77767857142857,183.12857142857143,3001.2,-144.77767857142857,183.12857142857143,3118.5,-144.77767857142857,183.12857142857143,3236,-144.77767857142857,183.12857142857143,3343.5,-144.77767857142857,183.12857142857143,3446.1,-144.77767857142857,183.12857142857143,3567.1,-144.77767857142857,183.12857142857143,3672.3,-144.77767857142857,183.12857142857143,3783.9,-144.77767857142857,183.12857142857143,3889.4,-144.77767857142857,183.12857142857143,3990.7,-144.77767857142857,183.12857142857143,4111.4,-144.77767857142857,183.12857142857143,4228.5,-144.77767857142857,183.12857142857143,4334.4,-144.77767857142857,183.12857142857143,4439.2,-144.77767857142857,183.12857142857143,4557.5,-144.77767857142857,183.12857142857143,4664.9,-144.77767857142857,183.12857142857143,4771,-144.77767857142857,183.12857142857143,4884.5,-144.77767857142857,183.12857142857143,4996.3]","[1817.4,1817.4,1000,0,817.4,""smooth"",""left"",""left"",""good_move"",5810.2,3988.7,2722.3,1821.7,1266.3,""oops"",""left"",""left"",""good_move"",10017,4205.9,1930.5,5811.2,2275.3,""oops"",""left"",""left"",""good_move"",14051.3,4033.2,1680.1,10018.2,2353.1,""oops"",""up"",""down"",""bad_move"",20422.7,6367.3,2507.7,17190.5,724.6,""oops"",""up"",""down"",""bad_move"",23661,3235.7,2630.1,20425.3,605.6,""oops"",""up"",""right"",""bad_move"",26506.1,2843.2,1910.9,23662.9,932.3,""smooth"",""up"",""up"",""good_move"",30644.9,4136.9,2775.2,26508.1,1361.6,""smooth"",""up"",""up"",""good_move"",35098,4452.1,2283.6,30646,2168.5,""smooth"",""up"",""up"",""good_move"",39299.4,4198.4,2651.4,35101,1547,""oops"",""up"",""right"",""bad_move"",42309.4,3007.6,2468.2,39301.9,539.3,""smooth"",""up"",""up"",""good_move"",46433.2,4122.7,2397.8,42310.5,1724.9,""oops"",""up"",""left"",""good_move"",50540.1,4105.4,2088.9,46434.7,2016.5,""smooth"",""up"",""up"",""good_move"",54583.3,4042,2606,50541.4,1436,""smooth"",""left"",""left"",""good_move""]","",""
"9720","","<div style=""width:500px;"">
  <p>What determined the result of this run?</p>
  </div>","99","html-slider-response","55","1242888","0.0-5.0-1.9","104","1","2025-07-16 10:50:06","1f75c3e559b7213887762d5229550c2b","102.128.184.38","Mozilla/5.0 (Windows NT 10.0; Win64; x64) AppleWebKit/537.36 (KHTML, like Gecko) Chrome/138.0.0.0 Safari/537.36 Edg/138.0.0.0","WebKit","Edge","138.0.0.0","Windows","10.0","https://app.prolific.com/","en-US,en;q=0.9,en-ZA;q=0.8","66952367721687887540318f","68764874ac79eee8c1d4cb03","687782fb090c9548bc1cd52e","2","0","66952367721687887540318f","2","0","2025-07-16T11:11:37.194Z","","","","","","","","","","","AttribQ","","50","","","","","","","","","","","","","","","","","","","","","","","","","","","","",""
"3449","","<div style=""width:500px;"">
  <p>How much control did you have over the ball?</p>
  </div>","99","html-slider-response","56","1246344","0.0-5.0-2.9","104","1","2025-07-16 10:50:06","1f75c3e559b7213887762d5229550c2b","102.128.184.38","Mozilla/5.0 (Windows NT 10.0; Win64; x64) AppleWebKit/537.36 (KHTML, like Gecko) Chrome/138.0.0.0 Safari/537.36 Edg/138.0.0.0","WebKit","Edge","138.0.0.0","Windows","10.0","https://app.prolific.com/","en-US,en;q=0.9,en-ZA;q=0.8","66952367721687887540318f","68764874ac79eee8c1d4cb03","687782fb090c9548bc1cd52e","2","0","66952367721687887540318f","2","0","2025-07-16T11:11:40.651Z","","","","","","","","","","","ControlQ","","50","","","","","","","","","","","","","","","","","","","","","","","","","","","","",""
"4404","","<div style=""width:500px;"">
  <p>How would you describe your current emotional state?</p>
  </div>","50","html-slider-response","57","1250753","0.0-5.0-3.9","104","1","2025-07-16 10:50:06","1f75c3e559b7213887762d5229550c2b","102.128.184.38","Mozilla/5.0 (Windows NT 10.0; Win64; x64) AppleWebKit/537.36 (KHTML, like Gecko) Chrome/138.0.0.0 Safari/537.36 Edg/138.0.0.0","WebKit","Edge","138.0.0.0","Windows","10.0","https://app.prolific.com/","en-US,en;q=0.9,en-ZA;q=0.8","66952367721687887540318f","68764874ac79eee8c1d4cb03","687782fb090c9548bc1cd52e","2","0","66952367721687887540318f","2","0","2025-07-16T11:11:45.060Z","","","","","","","","","","","StressQ","","50","","","","","","","","","","","","","","","","","","","","","","","","","","","","",""
"3295","","<div style=""width:500px;"">
  <p>What best describes how you currently feel?</p>
  </div>","50","html-slider-response","58","1254054","0.0-5.0-4.9","104","1","2025-07-16 10:50:06","1f75c3e559b7213887762d5229550c2b","102.128.184.38","Mozilla/5.0 (Windows NT 10.0; Win64; x64) AppleWebKit/537.36 (KHTML, like Gecko) Chrome/138.0.0.0 Safari/537.36 Edg/138.0.0.0","WebKit","Edge","138.0.0.0","Windows","10.0","https://app.prolific.com/","en-US,en;q=0.9,en-ZA;q=0.8","66952367721687887540318f","68764874ac79eee8c1d4cb03","687782fb090c9548bc1cd52e","2","0","66952367721687887540318f","2","0","2025-07-16T11:11:48.361Z","","","","","","","","","","","MotivationQ","","50","","","","","","","","","","","","","","","","","","","","","","","","","","","","",""
"","","","","ctl-task-cpt","59","1334959","0.0-5.0-0.10","104","1","2025-07-16 10:50:06","1f75c3e559b7213887762d5229550c2b","102.128.184.38","Mozilla/5.0 (Windows NT 10.0; Win64; x64) AppleWebKit/537.36 (KHTML, like Gecko) Chrome/138.0.0.0 Safari/537.36 Edg/138.0.0.0","WebKit","Edge","138.0.0.0","Windows","10.0","https://app.prolific.com/","en-US,en;q=0.9,en-ZA;q=0.8","66952367721687887540318f","68764874ac79eee8c1d4cb03","687782fb090c9548bc1cd52e","2","0","66952367721687887540318f","2","0","2025-07-16T11:13:09.266Z","","","","","","","","","","","","","","win-only","2","g1:SE,g2:NW","0.5","11","0","1299762.9","1889.1","6896.4","77868.9","1","4","4","6","2","4","4","31","27","0.23484848484848486","1922","3000","1380","[""left"",""up""]","{""num_key_presses"":12,""num_perfect"":7,""num_errors"":0,""num_randdir"":5,""num_randdir_good_moves"":2,""num_whilered"":0,""num_whileblue"":0,""num_blue"":5,""num_good_moves"":9}","[294.22232142857143,293.12857142857143,1.9,294.22232142857143,293.12857142857143,111.5,294.22232142857143,293.12857142857143,217.7,294.22232142857143,293.12857142857143,327.1,294.22232142857143,293.12857142857143,428.3,294.22232142857143,293.12857142857143,541.1,294.22232142857143,293.12857142857143,656.2,294.22232142857143,293.12857142857143,782.5,294.22232142857143,293.12857142857143,887.2,294.22232142857143,293.12857142857143,990.5,294.22232142857143,293.12857142857143,1111.2,291.22232142857143,290.12857142857143,1231.3,151.22232142857143,167.12857142857143,1347.1,55.222321428571426,90.12857142857143,1453.5,32.222321428571426,60.128571428571426,1558.1,31.222321428571426,57.128571428571426,1661.1,31.222321428571426,55.128571428571426,1761.3,31.222321428571426,55.128571428571426,1877.1,31.222321428571426,55.128571428571426,1991.8,31.222321428571426,55.128571428571426,2106.8,31.222321428571426,55.128571428571426,2227.3,31.222321428571426,55.128571428571426,2339,-109.77767857142857,135.12857142857143,2451.7,-223.77767857142857,199.12857142857143,2552.1,-237.77767857142857,211.12857142857143,2665.3,-237.77767857142857,211.12857142857143,2772.3,-237.77767857142857,211.12857142857143,2886.2,-237.77767857142857,211.12857142857143,2997.6,-237.77767857142857,211.12857142857143,3108,-237.77767857142857,211.12857142857143,3227.9,-237.77767857142857,211.12857142857143,3344.2,-237.77767857142857,211.12857142857143,3453.3,-237.77767857142857,211.12857142857143,3573.2,-237.77767857142857,211.12857142857143,3683.4,-237.77767857142857,211.12857142857143,3801.4,-237.77767857142857,211.12857142857143,3919.3,-237.77767857142857,211.12857142857143,4040.9,-237.77767857142857,211.12857142857143,4161.3,-237.77767857142857,211.12857142857143,4277.8,-237.77767857142857,211.12857142857143,4380.6,-237.77767857142857,211.12857142857143,4483.8,-237.77767857142857,211.12857142857143,4611,-237.77767857142857,211.12857142857143,4728.7,-237.77767857142857,211.12857142857143,4830.8,-237.77767857142857,211.12857142857143,4952.8]","[1577.5,1577.5,1000,0,577.5,""smooth"",""left"",""left"",""good_move"",9581.5,8001.8,2558.7,6445.4,577.5,""smooth"",""left"",""left"",""good_move"",14083.9,4500.6,2467.4,9583.3,2033.2,""oops"",""left"",""up"",""good_move"",19608.4,5522.1,2280.4,14086.5,3241.6,""oops"",""left"",""down"",""bad_move"",23431.9,3821.5,2470.3,19610.4,1351.2,""smooth"",""left"",""left"",""good_move"",29061.5,5627.1,2717.8,23434.6,2909.2,""smooth"",""up"",""up"",""good_move"",34070.4,5007.9,3104.6,29062.5,1903.3,""oops"",""up"",""down"",""bad_move"",37957.9,3885.7,3274,34072.2,611.7,""oops"",""up"",""up"",""good_move"",49926.6,11967.2,2599.5,46711.6,615.5,""smooth"",""up"",""up"",""good_move"",59302.7,9370.9,2979.5,55744,579.3,""oops"",""up"",""right"",""bad_move"",65957.7,6650.8,2230.4,63010.4,716.9,""smooth"",""up"",""up"",""good_move"",70518.5,4559.9,2361.3,65958.6,2198.6,""smooth"",""left"",""left"",""good_move""]","",""
"5946","","<div style=""width:500px;"">
  <p>What determined the result of this run?</p>
  </div>","100","html-slider-response","60","1340915","0.0-5.0-1.10","104","1","2025-07-16 10:50:06","1f75c3e559b7213887762d5229550c2b","102.128.184.38","Mozilla/5.0 (Windows NT 10.0; Win64; x64) AppleWebKit/537.36 (KHTML, like Gecko) Chrome/138.0.0.0 Safari/537.36 Edg/138.0.0.0","WebKit","Edge","138.0.0.0","Windows","10.0","https://app.prolific.com/","en-US,en;q=0.9,en-ZA;q=0.8","66952367721687887540318f","68764874ac79eee8c1d4cb03","687782fb090c9548bc1cd52e","2","0","66952367721687887540318f","2","0","2025-07-16T11:13:15.221Z","","","","","","","","","","","AttribQ","","50","","","","","","","","","","","","","","","","","","","","","","","","","","","","",""
"3307","","<div style=""width:500px;"">
  <p>How much control did you have over the ball?</p>
  </div>","100","html-slider-response","61","1344227","0.0-5.0-2.10","104","1","2025-07-16 10:50:06","1f75c3e559b7213887762d5229550c2b","102.128.184.38","Mozilla/5.0 (Windows NT 10.0; Win64; x64) AppleWebKit/537.36 (KHTML, like Gecko) Chrome/138.0.0.0 Safari/537.36 Edg/138.0.0.0","WebKit","Edge","138.0.0.0","Windows","10.0","https://app.prolific.com/","en-US,en;q=0.9,en-ZA;q=0.8","66952367721687887540318f","68764874ac79eee8c1d4cb03","687782fb090c9548bc1cd52e","2","0","66952367721687887540318f","2","0","2025-07-16T11:13:18.534Z","","","","","","","","","","","ControlQ","","50","","","","","","","","","","","","","","","","","","","","","","","","","","","","",""
"4153","","<div style=""width:500px;"">
  <p>How would you describe your current emotional state?</p>
  </div>","50","html-slider-response","62","1348385","0.0-5.0-3.10","104","1","2025-07-16 10:50:06","1f75c3e559b7213887762d5229550c2b","102.128.184.38","Mozilla/5.0 (Windows NT 10.0; Win64; x64) AppleWebKit/537.36 (KHTML, like Gecko) Chrome/138.0.0.0 Safari/537.36 Edg/138.0.0.0","WebKit","Edge","138.0.0.0","Windows","10.0","https://app.prolific.com/","en-US,en;q=0.9,en-ZA;q=0.8","66952367721687887540318f","68764874ac79eee8c1d4cb03","687782fb090c9548bc1cd52e","2","0","66952367721687887540318f","2","0","2025-07-16T11:13:22.692Z","","","","","","","","","","","StressQ","","50","","","","","","","","","","","","","","","","","","","","","","","","","","","","",""
"3604","","<div style=""width:500px;"">
  <p>What best describes how you currently feel?</p>
  </div>","50","html-slider-response","63","1351995","0.0-5.0-4.10","104","1","2025-07-16 10:50:06","1f75c3e559b7213887762d5229550c2b","102.128.184.38","Mozilla/5.0 (Windows NT 10.0; Win64; x64) AppleWebKit/537.36 (KHTML, like Gecko) Chrome/138.0.0.0 Safari/537.36 Edg/138.0.0.0","WebKit","Edge","138.0.0.0","Windows","10.0","https://app.prolific.com/","en-US,en;q=0.9,en-ZA;q=0.8","66952367721687887540318f","68764874ac79eee8c1d4cb03","687782fb090c9548bc1cd52e","2","0","66952367721687887540318f","2","0","2025-07-16T11:13:26.302Z","","","","","","","","","","","MotivationQ","","50","","","","","","","","","","","","","","","","","","","","","","","","","","","","",""
"","","","","ctl-task-cpt","64","1463451","0.0-5.0-0.11","104","1","2025-07-16 10:50:06","1f75c3e559b7213887762d5229550c2b","102.128.184.38","Mozilla/5.0 (Windows NT 10.0; Win64; x64) AppleWebKit/537.36 (KHTML, like Gecko) Chrome/138.0.0.0 Safari/537.36 Edg/138.0.0.0","WebKit","Edge","138.0.0.0","Windows","10.0","https://app.prolific.com/","en-US,en;q=0.9,en-ZA;q=0.8","66952367721687887540318f","68764874ac79eee8c1d4cb03","687782fb090c9548bc1cd52e","2","0","66952367721687887540318f","2","0","2025-07-16T11:15:17.758Z","","","","","","","","","","","","","","win-only","0","g1:NW,g2:SE","0.6","12","0","1397706.8","57241.5","62266.8","108404.9","1","4","8","6","2","8","8","39","31","0.29545454545454547","1724.1","3000","1575","[""down"",""right""]","{""num_key_presses"":12,""num_perfect"":8,""num_errors"":0,""num_randdir"":4,""num_randdir_good_moves"":1,""num_whilered"":0,""num_whileblue"":0,""num_blue"":1,""num_good_moves"":9}","[298.22232142857143,304.12857142857143,4.6,298.22232142857143,304.12857142857143,122.8,298.22232142857143,304.12857142857143,232.4,298.22232142857143,304.12857142857143,340.4,298.22232142857143,304.12857142857143,446.4,298.22232142857143,304.12857142857143,549.6,298.22232142857143,304.12857142857143,650.6,298.22232142857143,304.12857142857143,763.1,307.22232142857143,312.12857142857143,886.9,412.22232142857143,422.12857142857143,992.1,436.22232142857143,473.12857142857143,1100.7,464.22232142857143,503.12857142857143,1231.9,495.22232142857143,517.1285714285714,1335.1,516.2223214285714,518.1285714285714,1441,524.2223214285714,519.1285714285714,1563.2,524.2223214285714,519.1285714285714,1691.2,524.2223214285714,519.1285714285714,1794.2,524.2223214285714,519.1285714285714,1900,524.2223214285714,519.1285714285714,2005.8,524.2223214285714,519.1285714285714,2125.9,524.2223214285714,519.1285714285714,2234.5,533.2223214285714,521.1285714285714,2345.8,734.2223214285714,420.12857142857143,2479.3,754.2223214285714,412.12857142857143,2603.8,758.2223214285714,411.12857142857143,2725.5,758.2223214285714,411.12857142857143,2830.7,758.2223214285714,411.12857142857143,2952.2,758.2223214285714,411.12857142857143,3054.2,758.2223214285714,411.12857142857143,3172.7,758.2223214285714,411.12857142857143,3286.5,758.2223214285714,411.12857142857143,3391.9,758.2223214285714,411.12857142857143,3529.3,758.2223214285714,411.12857142857143,3652.1,758.2223214285714,411.12857142857143,3756.6,758.2223214285714,411.12857142857143,3879.5,758.2223214285714,411.12857142857143,3995.2,758.2223214285714,411.12857142857143,4102.3,758.2223214285714,411.12857142857143,4221.1,758.2223214285714,411.12857142857143,4328.6,758.2223214285714,411.12857142857143,4449.4,758.2223214285714,411.12857142857143,4568.4,758.2223214285714,411.12857142857143,4686,758.2223214285714,411.12857142857143,4803.7,758.2223214285714,411.12857142857143,4908]","[1637.5,1637.5,1000,0,637.5,""smooth"",""down"",""down"",""good_move"",4287.4,2646.1,1772.6,1641.5,873.4,""smooth"",""down"",""down"",""good_move"",6782.6,2493.1,1848,4289.5,645.1,""oops"",""down"",""down"",""good_move"",10200.1,3415.6,2819,6784.6,596.5,""smooth"",""right"",""right"",""good_move"",13168.4,2965.7,2373.2,10202.7,592.5,""oops"",""right"",""up"",""bad_move"",17964.1,4792.5,1872.5,13171.7,2920.1,""oops"",""right"",""left"",""bad_move"",27329,9363.2,2866.3,23931.3,531.4,""smooth"",""right"",""right"",""good_move"",30478.1,3145.8,2320.3,27332.4,825.4,""smooth"",""right"",""right"",""good_move"",34153.5,3674.6,3123.7,30479,550.9,""smooth"",""right"",""right"",""good_move"",37056.7,2901.6,2392.1,34155.2,509.4,""oops"",""down"",""up"",""bad_move"",42168.5,5110.2,2345.2,37058.4,2765,""smooth"",""down"",""down"",""good_move"",45667.3,3497.2,3004.7,42170.2,492.4,""smooth"",""down"",""down"",""good_move""]","",""
"4570","","<div style=""width:500px;"">
  <p>What determined the result of this run?</p>
  </div>","100","html-slider-response","65","1468031","0.0-5.0-1.11","104","1","2025-07-16 10:50:06","1f75c3e559b7213887762d5229550c2b","102.128.184.38","Mozilla/5.0 (Windows NT 10.0; Win64; x64) AppleWebKit/537.36 (KHTML, like Gecko) Chrome/138.0.0.0 Safari/537.36 Edg/138.0.0.0","WebKit","Edge","138.0.0.0","Windows","10.0","https://app.prolific.com/","en-US,en;q=0.9,en-ZA;q=0.8","66952367721687887540318f","68764874ac79eee8c1d4cb03","687782fb090c9548bc1cd52e","2","0","66952367721687887540318f","2","0","2025-07-16T11:15:22.338Z","","","","","","","","","","","AttribQ","","50","","","","","","","","","","","","","","","","","","","","","","","","","","","","",""
"2963","","<div style=""width:500px;"">
  <p>How much control did you have over the ball?</p>
  </div>","100","html-slider-response","66","1471000","0.0-5.0-2.11","104","1","2025-07-16 10:50:06","1f75c3e559b7213887762d5229550c2b","102.128.184.38","Mozilla/5.0 (Windows NT 10.0; Win64; x64) AppleWebKit/537.36 (KHTML, like Gecko) Chrome/138.0.0.0 Safari/537.36 Edg/138.0.0.0","WebKit","Edge","138.0.0.0","Windows","10.0","https://app.prolific.com/","en-US,en;q=0.9,en-ZA;q=0.8","66952367721687887540318f","68764874ac79eee8c1d4cb03","687782fb090c9548bc1cd52e","2","0","66952367721687887540318f","2","0","2025-07-16T11:15:25.307Z","","","","","","","","","","","ControlQ","","50","","","","","","","","","","","","","","","","","","","","","","","","","","","","",""
"3769","","<div style=""width:500px;"">
  <p>How would you describe your current emotional state?</p>
  </div>","10","html-slider-response","67","1474774","0.0-5.0-3.11","104","1","2025-07-16 10:50:06","1f75c3e559b7213887762d5229550c2b","102.128.184.38","Mozilla/5.0 (Windows NT 10.0; Win64; x64) AppleWebKit/537.36 (KHTML, like Gecko) Chrome/138.0.0.0 Safari/537.36 Edg/138.0.0.0","WebKit","Edge","138.0.0.0","Windows","10.0","https://app.prolific.com/","en-US,en;q=0.9,en-ZA;q=0.8","66952367721687887540318f","68764874ac79eee8c1d4cb03","687782fb090c9548bc1cd52e","2","0","66952367721687887540318f","2","0","2025-07-16T11:15:29.081Z","","","","","","","","","","","StressQ","","50","","","","","","","","","","","","","","","","","","","","","","","","","","","","",""
"3770","","<div style=""width:500px;"">
  <p>What best describes how you currently feel?</p>
  </div>","100","html-slider-response","68","1478549","0.0-5.0-4.11","104","1","2025-07-16 10:50:06","1f75c3e559b7213887762d5229550c2b","102.128.184.38","Mozilla/5.0 (Windows NT 10.0; Win64; x64) AppleWebKit/537.36 (KHTML, like Gecko) Chrome/138.0.0.0 Safari/537.36 Edg/138.0.0.0","WebKit","Edge","138.0.0.0","Windows","10.0","https://app.prolific.com/","en-US,en;q=0.9,en-ZA;q=0.8","66952367721687887540318f","68764874ac79eee8c1d4cb03","687782fb090c9548bc1cd52e","2","0","66952367721687887540318f","2","0","2025-07-16T11:15:32.855Z","","","","","","","","","","","MotivationQ","","50","","","","","","","","","","","","","","","","","","","","","","","","","","","","",""
"","","","","ctl-task-cpt","69","1553565","0.0-5.0-0.12","104","1","2025-07-16 10:50:06","1f75c3e559b7213887762d5229550c2b","102.128.184.38","Mozilla/5.0 (Windows NT 10.0; Win64; x64) AppleWebKit/537.36 (KHTML, like Gecko) Chrome/138.0.0.0 Safari/537.36 Edg/138.0.0.0","WebKit","Edge","138.0.0.0","Windows","10.0","https://app.prolific.com/","en-US,en;q=0.9,en-ZA;q=0.8","66952367721687887540318f","68764874ac79eee8c1d4cb03","687782fb090c9548bc1cd52e","2","0","66952367721687887540318f","2","0","2025-07-16T11:16:47.872Z","","","","","","","","","","","","","","win-only","2","g1:SE,g2:NW","0.7","13","0","1524257.6","11590.1","16607.3","71971.6","1","4","8","6","2","8","8","47","39","0.3560606060606061","1555.5","3000","1740","[""left"",""up""]","{""num_key_presses"":10,""num_perfect"":7,""num_errors"":0,""num_randdir"":3,""num_randdir_good_moves"":1,""num_whilered"":0,""num_whileblue"":0,""num_blue"":3,""num_good_moves"":8}","[292.22232142857143,303.12857142857143,2.1,292.22232142857143,303.12857142857143,117.7,292.22232142857143,303.12857142857143,244.3,292.22232142857143,303.12857142857143,356.3,292.22232142857143,303.12857142857143,462.4,292.22232142857143,303.12857142857143,585.2,292.22232142857143,303.12857142857143,700.8,275.22232142857143,295.12857142857143,817.9,170.22232142857143,214.12857142857143,935.5,81.22232142857143,127.12857142857143,1041.8,57.222321428571426,93.12857142857143,1173.3,46.222321428571426,75.12857142857143,1279.9,46.222321428571426,75.12857142857143,1393.9,46.222321428571426,75.12857142857143,1496.9,46.222321428571426,75.12857142857143,1609.9,46.222321428571426,75.12857142857143,1710,46.222321428571426,75.12857142857143,1819.4,43.222321428571426,76.12857142857143,1925.1,-315.77767857142857,347.12857142857143,2047,-375.77767857142857,404.12857142857143,2147,-375.77767857142857,404.12857142857143,2254.4,-375.77767857142857,404.12857142857143,2358.8,-375.77767857142857,404.12857142857143,2473.5,-375.77767857142857,404.12857142857143,2579.1,-375.77767857142857,404.12857142857143,2679.8,-375.77767857142857,404.12857142857143,2785.4,-375.77767857142857,404.12857142857143,2894,-375.77767857142857,404.12857142857143,3017.3,-375.77767857142857,404.12857142857143,3137.4,-375.77767857142857,404.12857142857143,3249.8,-375.77767857142857,404.12857142857143,3362.6,-375.77767857142857,404.12857142857143,3477,-375.77767857142857,404.12857142857143,3590.5,-375.77767857142857,404.12857142857143,3704.2,-375.77767857142857,404.12857142857143,3823,-375.77767857142857,404.12857142857143,3935.2,-375.77767857142857,404.12857142857143,4056.8,-375.77767857142857,404.12857142857143,4172.8,-375.77767857142857,404.12857142857143,4289.2,-375.77767857142857,404.12857142857143,4416.7,-375.77767857142857,404.12857142857143,4531.4,-375.77767857142857,404.12857142857143,4649,-375.77767857142857,404.12857142857143,4767.2,-375.77767857142857,404.12857142857143,4887.4,-375.77767857142857,404.12857142857143,4989.1]","[1624.7,1624.7,1000,0,624.7,""smooth"",""left"",""left"",""good_move"",6809.8,5183,2326.5,1626.8,2856.5,""smooth"",""left"",""left"",""good_move"",11903.7,5092.8,2800.6,6810.9,2292.2,""oops"",""left"",""right"",""bad_move"",15648.5,3739.9,2927.5,11908.6,812.4,""oops"",""left"",""up"",""good_move"",20933,5282.6,3210.7,15650.5,2071.9,""smooth"",""left"",""left"",""good_move"",32675.5,11740.9,2605.8,29418,651.7,""oops"",""left"",""right"",""bad_move"",35919.8,3242.8,2243.9,32677,998.9,""smooth"",""left"",""left"",""good_move"",41192.7,5267.2,3481.2,35925.5,1786,""smooth"",""left"",""left"",""good_move"",46173.4,4979,2728.2,41194.4,2250.8,""smooth"",""up"",""up"",""good_move"",54907.3,8731.5,2669.2,51621.5,616.6,""smooth"",""up"",""up"",""good_move""]","",""
"13359","","<div style=""width:500px;"">
  <p>What determined the result of this run?</p>
  </div>","100","html-slider-response","70","1566933","0.0-5.0-1.12","104","1","2025-07-16 10:50:06","1f75c3e559b7213887762d5229550c2b","102.128.184.38","Mozilla/5.0 (Windows NT 10.0; Win64; x64) AppleWebKit/537.36 (KHTML, like Gecko) Chrome/138.0.0.0 Safari/537.36 Edg/138.0.0.0","WebKit","Edge","138.0.0.0","Windows","10.0","https://app.prolific.com/","en-US,en;q=0.9,en-ZA;q=0.8","66952367721687887540318f","68764874ac79eee8c1d4cb03","687782fb090c9548bc1cd52e","2","0","66952367721687887540318f","2","0","2025-07-16T11:17:01.239Z","","","","","","","","","","","AttribQ","","50","","","","","","","","","","","","","","","","","","","","","","","","","","","","",""
"3530","","<div style=""width:500px;"">
  <p>How much control did you have over the ball?</p>
  </div>","100","html-slider-response","71","1570467","0.0-5.0-2.12","104","1","2025-07-16 10:50:06","1f75c3e559b7213887762d5229550c2b","102.128.184.38","Mozilla/5.0 (Windows NT 10.0; Win64; x64) AppleWebKit/537.36 (KHTML, like Gecko) Chrome/138.0.0.0 Safari/537.36 Edg/138.0.0.0","WebKit","Edge","138.0.0.0","Windows","10.0","https://app.prolific.com/","en-US,en;q=0.9,en-ZA;q=0.8","66952367721687887540318f","68764874ac79eee8c1d4cb03","687782fb090c9548bc1cd52e","2","0","66952367721687887540318f","2","0","2025-07-16T11:17:04.774Z","","","","","","","","","","","ControlQ","","50","","","","","","","","","","","","","","","","","","","","","","","","","","","","",""
"6038","","<div style=""width:500px;"">
  <p>How would you describe your current emotional state?</p>
  </div>","0","html-slider-response","72","1576513","0.0-5.0-3.12","104","1","2025-07-16 10:50:06","1f75c3e559b7213887762d5229550c2b","102.128.184.38","Mozilla/5.0 (Windows NT 10.0; Win64; x64) AppleWebKit/537.36 (KHTML, like Gecko) Chrome/138.0.0.0 Safari/537.36 Edg/138.0.0.0","WebKit","Edge","138.0.0.0","Windows","10.0","https://app.prolific.com/","en-US,en;q=0.9,en-ZA;q=0.8","66952367721687887540318f","68764874ac79eee8c1d4cb03","687782fb090c9548bc1cd52e","2","0","66952367721687887540318f","2","0","2025-07-16T11:17:10.819Z","","","","","","","","","","","StressQ","","50","","","","","","","","","","","","","","","","","","","","","","","","","","","","",""
"19462","","<div style=""width:500px;"">
  <p>What best describes how you currently feel?</p>
