"rt","response_timestamp","stimulus","response","trial_type","trial_index","time_elapsed","internal_node_id","run_id","condition","recorded_at","source_code_version","ip","user_agent","device","browser","browser_version","platform","platform_version","referer","accept_language","PROLIFIC_PID","STUDY_ID","SESSION_ID","WEEK","prolific_id","week","realtime","success","responses","item_order","radio_event_ids","radio_event_times","key_event_times","mouse_event_times","straightlining","zigzagging","honeypot","eventType","view_history","slider_start","which_type","canvas_config","goals_layout","control_level","trial_number","tutorial_trial_number","trial_start_time","phase1_start_time","phase2_start_time","phase3_start_time","goal_1_value","goal_1_distance","goal_2_value","goal_2_distance","goal_selected","outcome","outcome_total","participant_final_score","participant_initial_score","participant_final_score_prop","goal_choice_rt","allocated_time","allocated_time_remaining","goal_direction","counts","mouse_movements","key_presses","question_order","question_id"
"2405","1752050331214","<p style='font-size:40px;line-height:1.25'><strong>Welcome to the experiment!</strong></p><p style='font-size:1.1em;line-height:1.25'>Thank you for participanting in our experiment again! You will be asked to play the Dysfunctional Ball Game again. We will briefly recap the rules before we start.</p><p style='font-size:1.1em;line-height:1.25'>Press <strong>Next</strong> to continue.</p>","0","custom-html-button-response","0","2407","0.0-0.0","4","1","2025-07-09 08:38:47","01610cd0009c79a99da7d0a3353eb402","94.134.108.166","Mozilla/5.0 (Windows NT 10.0; Win64; x64) AppleWebKit/537.36 (KHTML, like Gecko) Chrome/138.0.0.0 Safari/537.36","WebKit","Chrome","138.0.0.0","Windows","10.0","https://app.prolific.com/","de-DE,de;q=0.9,en-DE;q=0.8,en;q=0.7,es-ES;q=0.6,es;q=0.5,en-US;q=0.4","646219bb0b91a6f3327e39fb","683db7602f5db6a34d12d064","686e2a929983191f4d2a7875","1","646219bb0b91a6f3327e39fb","1","2025-07-09T08:38:51.215Z","","","","","","","","","","","","","","","","","","","","","","","","","","","","","","","","","","","","","","","","","",""
"4869","","","","fullscreen","1","8280","0.0-1.0","4","1","2025-07-09 08:38:47","01610cd0009c79a99da7d0a3353eb402","94.134.108.166","Mozilla/5.0 (Windows NT 10.0; Win64; x64) AppleWebKit/537.36 (KHTML, like Gecko) Chrome/138.0.0.0 Safari/537.36","WebKit","Chrome","138.0.0.0","Windows","10.0","https://app.prolific.com/","de-DE,de;q=0.9,en-DE;q=0.8,en;q=0.7,es-ES;q=0.6,es;q=0.5,en-US;q=0.4","646219bb0b91a6f3327e39fb","683db7602f5db6a34d12d064","686e2a929983191f4d2a7875","1","646219bb0b91a6f3327e39fb","1","","true","","","","","","","","","","","","","","","","","","","","","","","","","","","","","","","","","","","","","","","","",""
"1715","1752050338803","<p style='font-size:1.1em;line-height:1.25'>In the following, we will ask you a few questions relating to your feelings in the last 24 hours.<br></p><p style='font-size:1.1em;line-height:1.25'>Press the <strong>Next</strong> button to continue.</p>","0","custom-html-button-response","2","9996","0.0-2.0-0.0","4","1","2025-07-09 08:38:47","01610cd0009c79a99da7d0a3353eb402","94.134.108.166","Mozilla/5.0 (Windows NT 10.0; Win64; x64) AppleWebKit/537.36 (KHTML, like Gecko) Chrome/138.0.0.0 Safari/537.36","WebKit","Chrome","138.0.0.0","Windows","10.0","https://app.prolific.com/","de-DE,de;q=0.9,en-DE;q=0.8,en;q=0.7,es-ES;q=0.6,es;q=0.5,en-US;q=0.4","646219bb0b91a6f3327e39fb","683db7602f5db6a34d12d064","686e2a929983191f4d2a7875","1","646219bb0b91a6f3327e39fb","1","2025-07-09T08:38:58.804Z","","","","","","","","","","","","","","","","","","","","","","","","","","","","","","","","","","","","","","","","","",""
"47544.200000047684","","","","survey-template","3","57543","0.0-2.0-1.0","4","1","2025-07-09 08:38:47","01610cd0009c79a99da7d0a3353eb402","94.134.108.166","Mozilla/5.0 (Windows NT 10.0; Win64; x64) AppleWebKit/537.36 (KHTML, like Gecko) Chrome/138.0.0.0 Safari/537.36","WebKit","Chrome","138.0.0.0","Windows","10.0","https://app.prolific.com/","de-DE,de;q=0.9,en-DE;q=0.8,en;q=0.7,es-ES;q=0.6,es;q=0.5,en-US;q=0.4","646219bb0b91a6f3327e39fb","683db7602f5db6a34d12d064","686e2a929983191f4d2a7875","1","646219bb0b91a6f3327e39fb","1","2025-07-09T08:39:46.351Z","","{""Q01"":""1"",""Q02"":""1"",""Q03"":""0"",""Q04"":""2"",""Q05"":""3"",""Q06"":""0"",""Q07"":""2"",""Q08"":""1"",""Q09"":""3"",""Q10"":""3"",""Q11"":""3"",""Q12"":""0"",""Q13"":""5"",""Q14"":""0"",""Q15"":""2"",""Q16"":""3"",""Q17"":""1"",""Q18"":""1"",""Q19"":""3"",""Q20"":""3"",""Q21"":""3"",""Q22"":""1""}","[0,1,2,3,4,5,6,7,8,9,10,11,12,13,14,15,16,17,18,19,20,21]","[""Q01"",""Q02"",""Q03"",""Q04"",""Q05"",""Q06"",""Q07"",""Q08"",""Q09"",""Q10"",""Q11"",""Q12"",""Q13"",""Q14"",""Q15"",""Q16"",""Q16"",""Q17"",""Q18"",""Q19"",""Q19"",""Q20"",""Q21"",""Q22""]","[2445,3450.5,4508.600000023842,6173.799999952316,8367.700000047684,9980.899999976158,11426.5,15317.5,16970.200000047684,18274.299999952316,19676.100000023842,23278.600000023842,24448.600000023842,26350.200000047684,29706.200000047684,31101.899999976158,32478.399999976158,34780.89999997616,35618.200000047684,37580.799999952316,41074.89999997616,42107.5,44935,46887.89999997616]","[]","[0.10000002384185791,2445,3450.5,4508.600000023842,6173.799999952316,8367.700000047684,9980.899999976158,11426.5,13736,15317.5,16970.200000047684,18274.299999952316,19676.100000023842,22891.5,23278.600000023842,24448.600000023842,26350.200000047684,29706.200000047684,31101.899999976158,32094.399999976158,32478.399999976158,34780.89999997616,35618.200000047684,37580.799999952316,39368.799999952316,41074.89999997616,42107.5,44935,46887.89999997616,47540.799999952316]","0.36363636363636365","0.2857142857142857","0","drsp","","","","","","","","","","","","","","","","","","","","","","","","","","","","","","",""
"9086.200000047684","","","","survey-template","4","66630","0.0-2.0-2.0","4","1","2025-07-09 08:38:47","01610cd0009c79a99da7d0a3353eb402","94.134.108.166","Mozilla/5.0 (Windows NT 10.0; Win64; x64) AppleWebKit/537.36 (KHTML, like Gecko) Chrome/138.0.0.0 Safari/537.36","WebKit","Chrome","138.0.0.0","Windows","10.0","https://app.prolific.com/","de-DE,de;q=0.9,en-DE;q=0.8,en;q=0.7,es-ES;q=0.6,es;q=0.5,en-US;q=0.4","646219bb0b91a6f3327e39fb","683db7602f5db6a34d12d064","686e2a929983191f4d2a7875","1","646219bb0b91a6f3327e39fb","1","2025-07-09T08:39:55.439Z","","{""Q01"":""3"",""Q02"":""4"",""Q03"":""0""}","[0,1,2]","[""Q01"",""Q02"",""Q03""]","[4704.899999976158,6393.399999976158,8301.5]","[]","[3489.7000000476837,4255.600000023842,4704.899999976158,6393.399999976158,7993.899999976158,8301.5,9085.5]","0.3333333333333333","0.5","0","stress","","","","","","","","","","","","","","","","","","","","","","","","","","","","","","",""
"20391","","","","instructions","5","87022","0.0-3.0-0.0","4","1","2025-07-09 08:38:47","01610cd0009c79a99da7d0a3353eb402","94.134.108.166","Mozilla/5.0 (Windows NT 10.0; Win64; x64) AppleWebKit/537.36 (KHTML, like Gecko) Chrome/138.0.0.0 Safari/537.36","WebKit","Chrome","138.0.0.0","Windows","10.0","https://app.prolific.com/","de-DE,de;q=0.9,en-DE;q=0.8,en;q=0.7,es-ES;q=0.6,es;q=0.5,en-US;q=0.4","646219bb0b91a6f3327e39fb","683db7602f5db6a34d12d064","686e2a929983191f4d2a7875","1","646219bb0b91a6f3327e39fb","1","","","","","","","","","","","","","[{""page_index"":0,""viewing_time"":20391}]","","","","","","","","","","","","","","","","","","","","","","","","","","","","","",""
"3525","","<p>Before you start with this game please answer the following three questions yourself. </p>
  <p>Through this game, we measure several aspects of your cognitive performance, such as reaction times, multi-tasking capabilities </p>
  <p>and the ability to assess the situation you are in.</p>
  <p></p>
  <p><b>How good do you usually are in such tasks?</b></p>","61","html-slider-response","6","90549","0.0-4.0-0.0","4","1","2025-07-09 08:38:47","01610cd0009c79a99da7d0a3353eb402","94.134.108.166","Mozilla/5.0 (Windows NT 10.0; Win64; x64) AppleWebKit/537.36 (KHTML, like Gecko) Chrome/138.0.0.0 Safari/537.36","WebKit","Chrome","138.0.0.0","Windows","10.0","https://app.prolific.com/","de-DE,de;q=0.9,en-DE;q=0.8,en;q=0.7,es-ES;q=0.6,es;q=0.5,en-US;q=0.4","646219bb0b91a6f3327e39fb","683db7602f5db6a34d12d064","686e2a929983191f4d2a7875","1","646219bb0b91a6f3327e39fb","1","2025-07-09T08:40:19.358Z","","","","","","","","","","","PreSkillQ","","50","","","","","","","","","","","","","","","","","","","","","","","","","","","","",""
"2699","","<div style=""width:500px;"">
  <p>How well do you think you will perform in this task compared to other participants?</p>
  </div>","38","html-slider-response","7","93249","0.0-4.0-1.0","4","1","2025-07-09 08:38:47","01610cd0009c79a99da7d0a3353eb402","94.134.108.166","Mozilla/5.0 (Windows NT 10.0; Win64; x64) AppleWebKit/537.36 (KHTML, like Gecko) Chrome/138.0.0.0 Safari/537.36","WebKit","Chrome","138.0.0.0","Windows","10.0","https://app.prolific.com/","de-DE,de;q=0.9,en-DE;q=0.8,en;q=0.7,es-ES;q=0.6,es;q=0.5,en-US;q=0.4","646219bb0b91a6f3327e39fb","683db7602f5db6a34d12d064","686e2a929983191f4d2a7875","1","646219bb0b91a6f3327e39fb","1","2025-07-09T08:40:22.058Z","","","","","","","","","","","PrePerfQ","","50","","","","","","","","","","","","","","","","","","","","","","","","","","","","",""
"2176","","<div style=""width:500px;"">
  <p>What best describes how you currently feel?</p>
  </div>","34","html-slider-response","8","95426","0.0-4.0-2.0","4","1","2025-07-09 08:38:47","01610cd0009c79a99da7d0a3353eb402","94.134.108.166","Mozilla/5.0 (Windows NT 10.0; Win64; x64) AppleWebKit/537.36 (KHTML, like Gecko) Chrome/138.0.0.0 Safari/537.36","WebKit","Chrome","138.0.0.0","Windows","10.0","https://app.prolific.com/","de-DE,de;q=0.9,en-DE;q=0.8,en;q=0.7,es-ES;q=0.6,es;q=0.5,en-US;q=0.4","646219bb0b91a6f3327e39fb","683db7602f5db6a34d12d064","686e2a929983191f4d2a7875","1","646219bb0b91a6f3327e39fb","1","2025-07-09T08:40:24.234Z","","","","","","","","","","","PreMotivationQ","","50","","","","","","","","","","","","","","","","","","","","","","","","","","","","",""
"","","","","ctl-task-cpt","9","119927","0.0-5.0-0.0","4","1","2025-07-09 08:38:47","01610cd0009c79a99da7d0a3353eb402","94.134.108.166","Mozilla/5.0 (Windows NT 10.0; Win64; x64) AppleWebKit/537.36 (KHTML, like Gecko) Chrome/138.0.0.0 Safari/537.36","WebKit","Chrome","138.0.0.0","Windows","10.0","https://app.prolific.com/","de-DE,de;q=0.9,en-DE;q=0.8,en;q=0.7,es-ES;q=0.6,es;q=0.5,en-US;q=0.4","646219bb0b91a6f3327e39fb","683db7602f5db6a34d12d064","686e2a929983191f4d2a7875","1","646219bb0b91a6f3327e39fb","1","2025-07-09T08:40:48.735Z","","","","","","","","","","","","","","win-only","1","g1:NE,g2:SW","1","1","0","98042","1063.8","6066.5","21492.5","1","4","4","6","2","4","4","4","0","0.030303030303030304","1050.2","3000","1220","[""down"",""left""]","{""num_key_presses"":6,""num_perfect"":6,""num_errors"":0,""num_randdir"":0,""num_randdir_good_moves"":0,""num_whilered"":0,""num_whileblue"":0,""num_blue"":0,""num_good_moves"":6}","[552.4285714285714,550.3348214285714,0.1,552.4285714285714,550.3348214285714,109.1,552.4285714285714,550.3348214285714,212,552.4285714285714,550.3348214285714,317.5,552.4285714285714,550.3348214285714,421.8,555.4285714285714,561.3348214285714,522.8,564.4285714285714,462.33482142857144,627,335.42857142857144,637.3348214285714,731.7,216.42857142857144,850.3348214285714,832,151.42857142857144,919.3348214285714,937,114.42857142857143,1009.3348214285714,1037.3,114.42857142857143,1013.3348214285714,1143.4,115.42857142857143,1011.3348214285714,1247.5,146.42857142857144,1012.3348214285714,1347.9,180.42857142857144,1023.3348214285714,1451,180.42857142857144,1023.3348214285714,1553.8,180.42857142857144,1023.3348214285714,1657.6,180.42857142857144,1023.3348214285714,1757.7,180.42857142857144,1023.3348214285714,1861.8,180.42857142857144,1023.3348214285714,1962.5,180.42857142857144,1023.3348214285714,2068.7,180.42857142857144,1023.3348214285714,2171.7,180.42857142857144,1023.3348214285714,2272.1,180.42857142857144,1023.3348214285714,2377.1,180.42857142857144,1023.3348214285714,2482.3,180.42857142857144,1023.3348214285714,2582.6,180.42857142857144,1023.3348214285714,2682.6,180.42857142857144,1023.3348214285714,2782.8,180.42857142857144,1023.3348214285714,2883.5,180.42857142857144,1023.3348214285714,2987.5,180.42857142857144,1023.3348214285714,3087.8,180.42857142857144,1023.3348214285714,3191.5,180.42857142857144,1023.3348214285714,3291.8,180.42857142857144,1023.3348214285714,3397.1,180.42857142857144,1023.3348214285714,3497.5,180.42857142857144,1023.3348214285714,3598,180.42857142857144,1023.3348214285714,3702.8,180.42857142857144,1023.3348214285714,3807,180.42857142857144,1023.3348214285714,3907.4,180.42857142857144,1023.3348214285714,4012.4,180.42857142857144,1023.3348214285714,4117.3,180.42857142857144,1023.3348214285714,4217.5,180.42857142857144,1023.3348214285714,4321.9,180.42857142857144,1023.3348214285714,4422.7,180.42857142857144,1023.3348214285714,4523.1,180.42857142857144,1023.3348214285714,4626.8,180.42857142857144,1023.3348214285714,4726.8,180.42857142857144,1023.3348214285714,4833,180.42857142857144,1023.3348214285714,4937.5]","[1325.6,1325.5,1000,0.1,325.5,""smooth"",""down"",""down"",""good_move"",4155.3,2829.4,2511.9,1325.9,317.5,""smooth"",""down"",""down"",""good_move"",7327.4,3171.9,2849.2,4155.5,322.7,""smooth"",""left"",""left"",""good_move"",10169.8,2842,2532.6,7327.8,309.4,""smooth"",""left"",""left"",""good_move"",12928.4,2758.3,2452.9,10170.1,305.4,""smooth"",""left"",""left"",""good_move"",15335.4,2406.7,2132.9,12928.7,273.8,""smooth"",""down"",""down"",""good_move""]","",""
"2850","","<div style=""width:500px;"">
  <p>What determined the result of this run?</p>
  </div>","100","html-slider-response","10","122778","0.0-5.0-1.0","4","1","2025-07-09 08:38:47","01610cd0009c79a99da7d0a3353eb402","94.134.108.166","Mozilla/5.0 (Windows NT 10.0; Win64; x64) AppleWebKit/537.36 (KHTML, like Gecko) Chrome/138.0.0.0 Safari/537.36","WebKit","Chrome","138.0.0.0","Windows","10.0","https://app.prolific.com/","de-DE,de;q=0.9,en-DE;q=0.8,en;q=0.7,es-ES;q=0.6,es;q=0.5,en-US;q=0.4","646219bb0b91a6f3327e39fb","683db7602f5db6a34d12d064","686e2a929983191f4d2a7875","1","646219bb0b91a6f3327e39fb","1","2025-07-09T08:40:51.586Z","","","","","","","","","","","AttribQ","","50","","","","","","","","","","","","","","","","","","","","","","","","","","","","",""
"1880","","<div style=""width:500px;"">
  <p>How much control did you have over the ball?</p>
  </div>","100","html-slider-response","11","124659","0.0-5.0-2.0","4","1","2025-07-09 08:38:47","01610cd0009c79a99da7d0a3353eb402","94.134.108.166","Mozilla/5.0 (Windows NT 10.0; Win64; x64) AppleWebKit/537.36 (KHTML, like Gecko) Chrome/138.0.0.0 Safari/537.36","WebKit","Chrome","138.0.0.0","Windows","10.0","https://app.prolific.com/","de-DE,de;q=0.9,en-DE;q=0.8,en;q=0.7,es-ES;q=0.6,es;q=0.5,en-US;q=0.4","646219bb0b91a6f3327e39fb","683db7602f5db6a34d12d064","686e2a929983191f4d2a7875","1","646219bb0b91a6f3327e39fb","1","2025-07-09T08:40:53.467Z","","","","","","","","","","","ControlQ","","50","","","","","","","","","","","","","","","","","","","","","","","","","","","","",""
"3723","","<div style=""width:500px;"">
  <p>How would you describe your current emotional state?</p>
  </div>","55","html-slider-response","12","128383","0.0-5.0-3.0","4","1","2025-07-09 08:38:47","01610cd0009c79a99da7d0a3353eb402","94.134.108.166","Mozilla/5.0 (Windows NT 10.0; Win64; x64) AppleWebKit/537.36 (KHTML, like Gecko) Chrome/138.0.0.0 Safari/537.36","WebKit","Chrome","138.0.0.0","Windows","10.0","https://app.prolific.com/","de-DE,de;q=0.9,en-DE;q=0.8,en;q=0.7,es-ES;q=0.6,es;q=0.5,en-US;q=0.4","646219bb0b91a6f3327e39fb","683db7602f5db6a34d12d064","686e2a929983191f4d2a7875","1","646219bb0b91a6f3327e39fb","1","2025-07-09T08:40:57.191Z","","","","","","","","","","","StressQ","","50","","","","","","","","","","","","","","","","","","","","","","","","","","","","",""
"3043","","<div style=""width:500px;"">
  <p>What best describes how you currently feel?</p>
  </div>","56","html-slider-response","13","131427","0.0-5.0-4.0","4","1","2025-07-09 08:38:47","01610cd0009c79a99da7d0a3353eb402","94.134.108.166","Mozilla/5.0 (Windows NT 10.0; Win64; x64) AppleWebKit/537.36 (KHTML, like Gecko) Chrome/138.0.0.0 Safari/537.36","WebKit","Chrome","138.0.0.0","Windows","10.0","https://app.prolific.com/","de-DE,de;q=0.9,en-DE;q=0.8,en;q=0.7,es-ES;q=0.6,es;q=0.5,en-US;q=0.4","646219bb0b91a6f3327e39fb","683db7602f5db6a34d12d064","686e2a929983191f4d2a7875","1","646219bb0b91a6f3327e39fb","1","2025-07-09T08:41:00.235Z","","","","","","","","","","","MotivationQ","","50","","","","","","","","","","","","","","","","","","","","","","","","","","","","",""
"","","","","ctl-task-cpt","14","151624","0.0-5.0-0.1","4","1","2025-07-09 08:38:47","01610cd0009c79a99da7d0a3353eb402","94.134.108.166","Mozilla/5.0 (Windows NT 10.0; Win64; x64) AppleWebKit/537.36 (KHTML, like Gecko) Chrome/138.0.0.0 Safari/537.36","WebKit","Chrome","138.0.0.0","Windows","10.0","https://app.prolific.com/","de-DE,de;q=0.9,en-DE;q=0.8,en;q=0.7,es-ES;q=0.6,es;q=0.5,en-US;q=0.4","646219bb0b91a6f3327e39fb","683db7602f5db6a34d12d064","686e2a929983191f4d2a7875","1","646219bb0b91a6f3327e39fb","1","2025-07-09T08:41:20.432Z","","","","","","","","","","","","","","win-only","1","g1:NE,g2:SW","0.9","2","0","134042.1","1928.8","6931.3","17191","1","4","8","6","1","1","1","5","4","0.03787878787878788","2220.4","3000","2000","[""up"",""right""]","{""num_key_presses"":4,""num_perfect"":4,""num_errors"":0,""num_randdir"":0,""num_randdir_good_moves"":0,""num_whilered"":0,""num_whileblue"":0,""num_blue"":0,""num_good_moves"":4}","[560.4285714285714,557.3348214285714,0.3,560.4285714285714,557.3348214285714,112.3,558.4285714285714,559.3348214285714,212.4,558.4285714285714,559.3348214285714,317.8,539.4285714285714,570.3348214285714,422.5,485.42857142857144,633.3348214285714,523,434.42857142857144,720.3348214285714,626.5,390.42857142857144,766.3348214285714,728,331.42857142857144,827.3348214285714,832.3,294.42857142857144,890.3348214285714,938,278.42857142857144,922.3348214285714,1042.1,249.42857142857144,945.3348214285714,1142.7,206.42857142857144,976.3348214285714,1247.4,224.42857142857144,959.3348214285714,1352.8,434.42857142857144,748.3348214285714,1457.1,395.42857142857144,762.3348214285714,1557.6,289.42857142857144,865.3348214285714,1657.8,275.42857142857144,887.3348214285714,1758,500.42857142857144,673.3348214285714,1861.7,898.4285714285714,275.33482142857144,1961.7,967.4285714285714,196.33482142857144,2061.8,1011.4285714285714,124.33482142857143,2161.8,1019.4285714285714,103.33482142857143,2262.2,1019.4285714285714,103.33482142857143,2367.2,1018.4285714285714,113.33482142857143,2468,1165.4285714285713,367.33482142857144,2572.3,1428.4285714285713,626.3348214285714,2673.3,1454.4285714285713,655.3348214285714,2776.8,1454.4285714285713,655.3348214285714,2878.5,1454.4285714285713,655.3348214285714,2983.6,1454.4285714285713,655.3348214285714,3087.5,1454.4285714285713,655.3348214285714,3192.2,1454.4285714285713,655.3348214285714,3296.8,1454.4285714285713,655.3348214285714,3396.9,1454.4285714285713,655.3348214285714,3497.6,1454.4285714285713,655.3348214285714,3602.2,1454.4285714285713,655.3348214285714,3702.7,1454.4285714285713,655.3348214285714,3807.5,1454.4285714285713,655.3348214285714,3907.6,1454.4285714285713,655.3348214285714,4012,1454.4285714285713,655.3348214285714,4111.9,1454.4285714285713,655.3348214285714,4218.1,1454.4285714285713,655.3348214285714,4323.4,1454.4285714285713,655.3348214285714,4427.8,1454.4285714285713,655.3348214285714,4527.9,1454.4285714285713,655.3348214285714,4628,1454.4285714285713,655.3348214285714,4732.6,1454.4285714285713,655.3348214285714,4832.8,1454.4285714285713,655.3348214285714,4938.4]","[1285.6,1285.6,1000,0,285.6,""smooth"",""up"",""up"",""good_move"",4537.9,3251.9,2958.9,1286,293,""smooth"",""up"",""up"",""good_move"",7301.8,2763.7,2533.7,4538.1,230,""smooth"",""right"",""right"",""good_move"",10174.7,2872.6,2653.7,7302.1,218.9,""smooth"",""right"",""right"",""good_move""]","",""
"2531","","<div style=""width:500px;"">
  <p>What determined the result of this run?</p>
  </div>","100","html-slider-response","15","154156","0.0-5.0-1.1","4","1","2025-07-09 08:38:47","01610cd0009c79a99da7d0a3353eb402","94.134.108.166","Mozilla/5.0 (Windows NT 10.0; Win64; x64) AppleWebKit/537.36 (KHTML, like Gecko) Chrome/138.0.0.0 Safari/537.36","WebKit","Chrome","138.0.0.0","Windows","10.0","https://app.prolific.com/","de-DE,de;q=0.9,en-DE;q=0.8,en;q=0.7,es-ES;q=0.6,es;q=0.5,en-US;q=0.4","646219bb0b91a6f3327e39fb","683db7602f5db6a34d12d064","686e2a929983191f4d2a7875","1","646219bb0b91a6f3327e39fb","1","2025-07-09T08:41:22.964Z","","","","","","","","","","","AttribQ","","50","","","","","","","","","","","","","","","","","","","","","","","","","","","","",""
"1609","","<div style=""width:500px;"">
  <p>How much control did you have over the ball?</p>
  </div>","100","html-slider-response","16","155765","0.0-5.0-2.1","4","1","2025-07-09 08:38:47","01610cd0009c79a99da7d0a3353eb402","94.134.108.166","Mozilla/5.0 (Windows NT 10.0; Win64; x64) AppleWebKit/537.36 (KHTML, like Gecko) Chrome/138.0.0.0 Safari/537.36","WebKit","Chrome","138.0.0.0","Windows","10.0","https://app.prolific.com/","de-DE,de;q=0.9,en-DE;q=0.8,en;q=0.7,es-ES;q=0.6,es;q=0.5,en-US;q=0.4","646219bb0b91a6f3327e39fb","683db7602f5db6a34d12d064","686e2a929983191f4d2a7875","1","646219bb0b91a6f3327e39fb","1","2025-07-09T08:41:24.573Z","","","","","","","","","","","ControlQ","","50","","","","","","","","","","","","","","","","","","","","","","","","","","","","",""
"1835","","<div style=""width:500px;"">
  <p>How would you describe your current emotional state?</p>
  </div>","55","html-slider-response","17","157601","0.0-5.0-3.1","4","1","2025-07-09 08:38:47","01610cd0009c79a99da7d0a3353eb402","94.134.108.166","Mozilla/5.0 (Windows NT 10.0; Win64; x64) AppleWebKit/537.36 (KHTML, like Gecko) Chrome/138.0.0.0 Safari/537.36","WebKit","Chrome","138.0.0.0","Windows","10.0","https://app.prolific.com/","de-DE,de;q=0.9,en-DE;q=0.8,en;q=0.7,es-ES;q=0.6,es;q=0.5,en-US;q=0.4","646219bb0b91a6f3327e39fb","683db7602f5db6a34d12d064","686e2a929983191f4d2a7875","1","646219bb0b91a6f3327e39fb","1","2025-07-09T08:41:26.409Z","","","","","","","","","","","StressQ","","50","","","","","","","","","","","","","","","","","","","","","","","","","","","","",""
"2893","","<div style=""width:500px;"">
  <p>What best describes how you currently feel?</p>
  </div>","53","html-slider-response","18","160495","0.0-5.0-4.1","4","1","2025-07-09 08:38:47","01610cd0009c79a99da7d0a3353eb402","94.134.108.166","Mozilla/5.0 (Windows NT 10.0; Win64; x64) AppleWebKit/537.36 (KHTML, like Gecko) Chrome/138.0.0.0 Safari/537.36","WebKit","Chrome","138.0.0.0","Windows","10.0","https://app.prolific.com/","de-DE,de;q=0.9,en-DE;q=0.8,en;q=0.7,es-ES;q=0.6,es;q=0.5,en-US;q=0.4","646219bb0b91a6f3327e39fb","683db7602f5db6a34d12d064","686e2a929983191f4d2a7875","1","646219bb0b91a6f3327e39fb","1","2025-07-09T08:41:29.303Z","","","","","","","","","","","MotivationQ","","50","","","","","","","","","","","","","","","","","","","","","","","","","","","","",""
"","","","","ctl-task-cpt","19","183044","0.0-5.0-0.2","4","1","2025-07-09 08:38:47","01610cd0009c79a99da7d0a3353eb402","94.134.108.166","Mozilla/5.0 (Windows NT 10.0; Win64; x64) AppleWebKit/537.36 (KHTML, like Gecko) Chrome/138.0.0.0 Safari/537.36","WebKit","Chrome","138.0.0.0","Windows","10.0","https://app.prolific.com/","de-DE,de;q=0.9,en-DE;q=0.8,en;q=0.7,es-ES;q=0.6,es;q=0.5,en-US;q=0.4","646219bb0b91a6f3327e39fb","683db7602f5db6a34d12d064","686e2a929983191f4d2a7875","1","646219bb0b91a6f3327e39fb","1","2025-07-09T08:41:51.852Z","","","","","","","","","","","","","","win-only","2","g1:SE,g2:NW","0.8","3","0","163110.7","917","5920.8","19541.9","1","4","4","6","1","1","1","6","5","0.045454545454545456","1181.4","3000","1935","[""down"",""right""]","{""num_key_presses"":4,""num_perfect"":3,""num_errors"":0,""num_randdir"":1,""num_randdir_good_moves"":1,""num_whilered"":0,""num_whileblue"":0,""num_blue"":1,""num_good_moves"":4}","[560.4285714285714,553.3348214285714,0.1,560.4285714285714,553.3348214285714,109.1,560.4285714285714,553.3348214285714,209.5,560.4285714285714,553.3348214285714,313.3,582.4285714285714,594.3348214285714,414,566.4285714285714,599.3348214285714,519.5,607.4285714285714,664.3348214285714,624,917.4285714285714,947.3348214285714,728.3,947.4285714285714,970.3348214285714,828.7,995.4285714285714,1006.3348214285714,935.1,1024.4285714285713,1024.3348214285713,1038.8,1024.4285714285713,1024.3348214285713,1139.2,1024.4285714285713,1024.3348214285713,1240.1,1024.4285714285713,1024.3348214285713,1344.1,1017.4285714285714,1022.3348214285714,1444.4,1010.4285714285714,1018.3348214285714,1544.8,1051.4285714285713,953.3348214285714,1649.1,1277.4285714285713,823.3348214285714,1749.1,1346.4285714285713,808.3348214285714,1850.3,1347.4285714285713,808.3348214285714,1955.5,1347.4285714285713,808.3348214285714,2058.5,1347.4285714285713,808.3348214285714,2158.5,1347.4285714285713,808.3348214285714,2259.3,1347.4285714285713,808.3348214285714,2363.9,1347.4285714285713,808.3348214285714,2469.3,1347.4285714285713,808.3348214285714,2569.5,1347.4285714285713,808.3348214285714,2670.3,1347.4285714285713,808.3348214285714,2773.5,1347.4285714285713,808.3348214285714,2874.1,1347.4285714285713,808.3348214285714,2978.9,1347.4285714285713,808.3348214285714,3079.6,1347.4285714285713,808.3348214285714,3183.8,1347.4285714285713,808.3348214285714,3284.1,1347.4285714285713,808.3348214285714,3384.4,1347.4285714285713,808.3348214285714,3485.2,1347.4285714285713,808.3348214285714,3589.3,1347.4285714285713,808.3348214285714,3690,1347.4285714285713,808.3348214285714,3794.1,1347.4285714285713,808.3348214285714,3894.2,1347.4285714285713,808.3348214285714,3999.8,1347.4285714285713,808.3348214285714,4103.8,1347.4285714285713,808.3348214285714,4205.3,1347.4285714285713,808.3348214285714,4308.4,1347.4285714285713,808.3348214285714,4413.8,1347.4285714285713,808.3348214285714,4514.2,1347.4285714285713,808.3348214285714,4619.5,1347.4285714285713,808.3348214285714,4719.9,1347.4285714285713,808.3348214285714,4823.7,1347.4285714285713,808.3348214285714,4924.3]","[1274.2,1274.2,1000,0,274.2,""smooth"",""down"",""down"",""good_move"",4547.8,3273.3,2990.4,1274.6,282.8,""oops"",""right"",""down"",""good_move"",7422.5,2874.6,2629.4,4547.9,245.2,""smooth"",""right"",""right"",""good_move"",13528.9,6106.1,2325.3,10921.3,282.3,""smooth"",""right"",""right"",""good_move""]","",""
"2719","","<div style=""width:500px;"">
  <p>What determined the result of this run?</p>
  </div>","92","html-slider-response","20","185764","0.0-5.0-1.2","4","1","2025-07-09 08:38:47","01610cd0009c79a99da7d0a3353eb402","94.134.108.166","Mozilla/5.0 (Windows NT 10.0; Win64; x64) AppleWebKit/537.36 (KHTML, like Gecko) Chrome/138.0.0.0 Safari/537.36","WebKit","Chrome","138.0.0.0","Windows","10.0","https://app.prolific.com/","de-DE,de;q=0.9,en-DE;q=0.8,en;q=0.7,es-ES;q=0.6,es;q=0.5,en-US;q=0.4","646219bb0b91a6f3327e39fb","683db7602f5db6a34d12d064","686e2a929983191f4d2a7875","1","646219bb0b91a6f3327e39fb","1","2025-07-09T08:41:54.572Z","","","","","","","","","","","AttribQ","","50","","","","","","","","","","","","","","","","","","","","","","","","","","","","",""
"1541","","<div style=""width:500px;"">
  <p>How much control did you have over the ball?</p>
  </div>","83","html-slider-response","21","187305","0.0-5.0-2.2","4","1","2025-07-09 08:38:47","01610cd0009c79a99da7d0a3353eb402","94.134.108.166","Mozilla/5.0 (Windows NT 10.0; Win64; x64) AppleWebKit/537.36 (KHTML, like Gecko) Chrome/138.0.0.0 Safari/537.36","WebKit","Chrome","138.0.0.0","Windows","10.0","https://app.prolific.com/","de-DE,de;q=0.9,en-DE;q=0.8,en;q=0.7,es-ES;q=0.6,es;q=0.5,en-US;q=0.4","646219bb0b91a6f3327e39fb","683db7602f5db6a34d12d064","686e2a929983191f4d2a7875","1","646219bb0b91a6f3327e39fb","1","2025-07-09T08:41:56.113Z","","","","","","","","","","","ControlQ","","50","","","","","","","","","","","","","","","","","","","","","","","","","","","","",""
"1854","","<div style=""width:500px;"">
  <p>How would you describe your current emotional state?</p>
  </div>","56","html-slider-response","22","189160","0.0-5.0-3.2","4","1","2025-07-09 08:38:47","01610cd0009c79a99da7d0a3353eb402","94.134.108.166","Mozilla/5.0 (Windows NT 10.0; Win64; x64) AppleWebKit/537.36 (KHTML, like Gecko) Chrome/138.0.0.0 Safari/537.36","WebKit","Chrome","138.0.0.0","Windows","10.0","https://app.prolific.com/","de-DE,de;q=0.9,en-DE;q=0.8,en;q=0.7,es-ES;q=0.6,es;q=0.5,en-US;q=0.4","646219bb0b91a6f3327e39fb","683db7602f5db6a34d12d064","686e2a929983191f4d2a7875","1","646219bb0b91a6f3327e39fb","1","2025-07-09T08:41:57.968Z","","","","","","","","","","","StressQ","","50","","","","","","","","","","","","","","","","","","","","","","","","","","","","",""
"2069","","<div style=""width:500px;"">
  <p>What best describes how you currently feel?</p>
  </div>","55","html-slider-response","23","191230","0.0-5.0-4.2","4","1","2025-07-09 08:38:47","01610cd0009c79a99da7d0a3353eb402","94.134.108.166","Mozilla/5.0 (Windows NT 10.0; Win64; x64) AppleWebKit/537.36 (KHTML, like Gecko) Chrome/138.0.0.0 Safari/537.36","WebKit","Chrome","138.0.0.0","Windows","10.0","https://app.prolific.com/","de-DE,de;q=0.9,en-DE;q=0.8,en;q=0.7,es-ES;q=0.6,es;q=0.5,en-US;q=0.4","646219bb0b91a6f3327e39fb","683db7602f5db6a34d12d064","686e2a929983191f4d2a7875","1","646219bb0b91a6f3327e39fb","1","2025-07-09T08:42:00.038Z","","","","","","","","","","","MotivationQ","","50","","","","","","","","","","","","","","","","","","","","","","","","","","","","",""
"","","","","ctl-task-cpt","24","228137","0.0-5.0-0.3","4","1","2025-07-09 08:38:47","01610cd0009c79a99da7d0a3353eb402","94.134.108.166","Mozilla/5.0 (Windows NT 10.0; Win64; x64) AppleWebKit/537.36 (KHTML, like Gecko) Chrome/138.0.0.0 Safari/537.36","WebKit","Chrome","138.0.0.0","Windows","10.0","https://app.prolific.com/","de-DE,de;q=0.9,en-DE;q=0.8,en;q=0.7,es-ES;q=0.6,es;q=0.5,en-US;q=0.4","646219bb0b91a6f3327e39fb","683db7602f5db6a34d12d064","686e2a929983191f4d2a7875","1","646219bb0b91a6f3327e39fb","1","2025-07-09T08:42:36.945Z","","","","","","","","","","","","","","win-only","1","g1:NE,g2:SW","0.7","4","0","193845.6","2419.2","7421.7","33895.8","1","4","8","6","2","8","8","14","6","0.10606060606060606","875.7","3000","1320","[""down"",""left""]","{""num_key_presses"":6,""num_perfect"":6,""num_errors"":0,""num_randdir"":0,""num_randdir_good_moves"":0,""num_whilered"":0,""num_whileblue"":0,""num_blue"":3,""num_good_moves"":6}","[564.4285714285714,550.3348214285714,0.2,564.4285714285714,550.3348214285714,102.2,564.4285714285714,550.3348214285714,202.2,564.4285714285714,550.3348214285714,302.6,564.4285714285714,550.3348214285714,407.2,555.4285714285714,556.3348214285714,512,467.42857142857144,643.3348214285714,617.5,237.42857142857144,903.3348214285714,722.1,160.42857142857144,938.3348214285714,826.3,159.42857142857144,940.3348214285714,927.9,151.42857142857144,946.3348214285714,1032,155.42857142857144,946.3348214285714,1136.9,332.42857142857144,1049.3348214285713,1242.1,764.4285714285714,1278.3348214285713,1347.5,1077.4285714285713,1278.3348214285713,1451.6,1138.4285714285713,1264.3348214285713,1556.8,1138.4285714285713,1264.3348214285713,1657.1,1138.4285714285713,1264.3348214285713,1757.5,1138.4285714285713,1264.3348214285713,1861.3,1138.4285714285713,1264.3348214285713,1967.1,1138.4285714285713,1264.3348214285713,2072.1,1138.4285714285713,1264.3348214285713,2177.3,1138.4285714285713,1264.3348214285713,2277.5,1138.4285714285713,1264.3348214285713,2382.2,1138.4285714285713,1264.3348214285713,2487,1138.4285714285713,1264.3348214285713,2588.1,1138.4285714285713,1264.3348214285713,2692,1138.4285714285713,1264.3348214285713,2792.1,1138.4285714285713,1264.3348214285713,2897.4,1138.4285714285713,1264.3348214285713,3002.5,1138.4285714285713,1264.3348214285713,3106.4,1138.4285714285713,1264.3348214285713,3207.9,1138.4285714285713,1264.3348214285713,3312.1,1138.4285714285713,1264.3348214285713,3412.9,1138.4285714285713,1264.3348214285713,3517.1,1138.4285714285713,1264.3348214285713,3618.4,1138.4285714285713,1264.3348214285713,3722.2,1138.4285714285713,1264.3348214285713,3826.2,1138.4285714285713,1264.3348214285713,3926.2,1138.4285714285713,1264.3348214285713,4026.3,1138.4285714285713,1264.3348214285713,4126.5,1138.4285714285713,1264.3348214285713,4232,1138.4285714285713,1264.3348214285713,4332.2,1138.4285714285713,1264.3348214285713,4437,1138.4285714285713,1264.3348214285713,4541.7,1138.4285714285713,1264.3348214285713,4647.9,1138.4285714285713,1264.3348214285713,4751.6,1138.4285714285713,1264.3348214285713,4852.1,1138.4285714285713,1264.3348214285713,4952.1]","[4938.2,4938.2,2628,2004.9,305.3,""smooth"",""down"",""down"",""good_move"",12136.6,7197.9,2782.9,9078.8,274.9,""smooth"",""left"",""left"",""good_move"",18019.9,5882.9,2329,15429.2,261.7,""smooth"",""left"",""left"",""good_move"",21119.7,3099.6,2745.4,18020.1,354.2,""smooth"",""down"",""down"",""good_move"",23763.8,2643.9,2372.7,21119.9,271.2,""smooth"",""left"",""left"",""good_move"",26388.8,2624.8,2379.8,23764,245,""smooth"",""down"",""down"",""good_move""]","",""
"4501","","<div style=""width:500px;"">
  <p>What determined the result of this run?</p>
  </div>","100","html-slider-response","25","232639","0.0-5.0-1.3","4","1","2025-07-09 08:38:47","01610cd0009c79a99da7d0a3353eb402","94.134.108.166","Mozilla/5.0 (Windows NT 10.0; Win64; x64) AppleWebKit/537.36 (KHTML, like Gecko) Chrome/138.0.0.0 Safari/537.36","WebKit","Chrome","138.0.0.0","Windows","10.0","https://app.prolific.com/","de-DE,de;q=0.9,en-DE;q=0.8,en;q=0.7,es-ES;q=0.6,es;q=0.5,en-US;q=0.4","646219bb0b91a6f3327e39fb","683db7602f5db6a34d12d064","686e2a929983191f4d2a7875","1","646219bb0b91a6f3327e39fb","1","2025-07-09T08:42:41.447Z","","","","","","","","","","","AttribQ","","50","","","","","","","","","","","","","","","","","","","","","","","","","","","","",""
"2278","","<div style=""width:500px;"">
  <p>How much control did you have over the ball?</p>
  </div>","100","html-slider-response","26","234918","0.0-5.0-2.3","4","1","2025-07-09 08:38:47","01610cd0009c79a99da7d0a3353eb402","94.134.108.166","Mozilla/5.0 (Windows NT 10.0; Win64; x64) AppleWebKit/537.36 (KHTML, like Gecko) Chrome/138.0.0.0 Safari/537.36","WebKit","Chrome","138.0.0.0","Windows","10.0","https://app.prolific.com/","de-DE,de;q=0.9,en-DE;q=0.8,en;q=0.7,es-ES;q=0.6,es;q=0.5,en-US;q=0.4","646219bb0b91a6f3327e39fb","683db7602f5db6a34d12d064","686e2a929983191f4d2a7875","1","646219bb0b91a6f3327e39fb","1","2025-07-09T08:42:43.726Z","","","","","","","","","","","ControlQ","","50","","","","","","","","","","","","","","","","","","","","","","","","","","","","",""
"3041","","<div style=""width:500px;"">
  <p>How would you describe your current emotional state?</p>
  </div>","46","html-slider-response","27","237960","0.0-5.0-3.3","4","1","2025-07-09 08:38:47","01610cd0009c79a99da7d0a3353eb402","94.134.108.166","Mozilla/5.0 (Windows NT 10.0; Win64; x64) AppleWebKit/537.36 (KHTML, like Gecko) Chrome/138.0.0.0 Safari/537.36","WebKit","Chrome","138.0.0.0","Windows","10.0","https://app.prolific.com/","de-DE,de;q=0.9,en-DE;q=0.8,en;q=0.7,es-ES;q=0.6,es;q=0.5,en-US;q=0.4","646219bb0b91a6f3327e39fb","683db7602f5db6a34d12d064","686e2a929983191f4d2a7875","1","646219bb0b91a6f3327e39fb","1","2025-07-09T08:42:46.769Z","","","","","","","","","","","StressQ","","50","","","","","","","","","","","","","","","","","","","","","","","","","","","","",""
"2263","","<div style=""width:500px;"">
  <p>What best describes how you currently feel?</p>
  </div>","54","html-slider-response","28","240227","0.0-5.0-4.3","4","1","2025-07-09 08:38:47","01610cd0009c79a99da7d0a3353eb402","94.134.108.166","Mozilla/5.0 (Windows NT 10.0; Win64; x64) AppleWebKit/537.36 (KHTML, like Gecko) Chrome/138.0.0.0 Safari/537.36","WebKit","Chrome","138.0.0.0","Windows","10.0","https://app.prolific.com/","de-DE,de;q=0.9,en-DE;q=0.8,en;q=0.7,es-ES;q=0.6,es;q=0.5,en-US;q=0.4","646219bb0b91a6f3327e39fb","683db7602f5db6a34d12d064","686e2a929983191f4d2a7875","1","646219bb0b91a6f3327e39fb","1","2025-07-09T08:42:49.035Z","","","","","","","","","","","MotivationQ","","50","","","","","","","","","","","","","","","","","","","","","","","","","","","","",""
"","","","","ctl-task-cpt","29","278822","0.0-5.0-0.4","4","1","2025-07-09 08:38:47","01610cd0009c79a99da7d0a3353eb402","94.134.108.166","Mozilla/5.0 (Windows NT 10.0; Win64; x64) AppleWebKit/537.36 (KHTML, like Gecko) Chrome/138.0.0.0 Safari/537.36","WebKit","Chrome","138.0.0.0","Windows","10.0","https://app.prolific.com/","de-DE,de;q=0.9,en-DE;q=0.8,en;q=0.7,es-ES;q=0.6,es;q=0.5,en-US;q=0.4","646219bb0b91a6f3327e39fb","683db7602f5db6a34d12d064","686e2a929983191f4d2a7875","1","646219bb0b91a6f3327e39fb","1","2025-07-09T08:43:27.630Z","","","","","","","","","","","","","","win-only","0","g1:NW,g2:SE","0.6","5","0","242843","1000.1","6001.4","35576.1","1","4","4","6","2","4","3","17","14","0.12878787878787878","1258.5","3000","775","[""down"",""right""]","{""num_key_presses"":8,""num_perfect"":4,""num_errors"":1,""num_randdir"":3,""num_randdir_good_moves"":2,""num_whilered"":0,""num_whileblue"":1,""num_blue"":3,""num_good_moves"":7}","[567.4285714285714,555.3348214285714,0.5,567.4285714285714,555.3348214285714,101.7,567.4285714285714,555.3348214285714,205.3,567.4285714285714,555.3348214285714,306.2,567.4285714285714,556.3348214285714,406.7,569.4285714285714,560.3348214285714,508.2,694.4285714285714,693.3348214285714,610.4,873.4285714285714,904.3348214285714,711.1,905.4285714285714,940.3348214285714,811.3,921.4285714285714,959.3348214285714,915.5,939.4285714285714,980.3348214285714,1017.1,968.4285714285714,1003.3348214285714,1122.7,968.4285714285714,1003.3348214285714,1225.6,968.4285714285714,1003.3348214285714,1326.8,968.4285714285714,1003.3348214285714,1430.6,968.4285714285714,1003.3348214285714,1531.2,968.4285714285714,1000.3348214285714,1631.5,1159.4285714285713,826.3348214285714,1738.4,1346.4285714285713,706.3348214285714,1840.6,1388.4285714285713,696.3348214285714,1941.1,1388.4285714285713,696.3348214285714,2041.2,1388.4285714285713,696.3348214285714,2145.9,1388.4285714285713,696.3348214285714,2251.5,1388.4285714285713,696.3348214285714,2356.8,1388.4285714285713,696.3348214285714,2456.9,1388.4285714285713,696.3348214285714,2558.1,1388.4285714285713,696.3348214285714,2661.3,1388.4285714285713,696.3348214285714,2761.3,1388.4285714285713,696.3348214285714,2865.4,1388.4285714285713,696.3348214285714,2965.8,1388.4285714285713,696.3348214285714,3072.2,1388.4285714285713,696.3348214285714,3172.9,1388.4285714285713,696.3348214285714,3275.1,1388.4285714285713,696.3348214285714,3375.2,1388.4285714285713,696.3348214285714,3476.5,1388.4285714285713,696.3348214285714,3580.3,1388.4285714285713,696.3348214285714,3681.8,1388.4285714285713,696.3348214285714,3785.1,1388.4285714285713,696.3348214285714,3885.2,1388.4285714285713,696.3348214285714,3986.3,1388.4285714285713,696.3348214285714,4090.6,1388.4285714285713,696.3348214285714,4190.9,1388.4285714285713,696.3348214285714,4295.8,1388.4285714285713,696.3348214285714,4402,1388.4285714285713,696.3348214285714,4506.7,1388.4285714285713,696.3348214285714,4610.6,1388.4285714285713,696.3348214285714,4710.9,1388.4285714285713,696.3348214285714,4815.5,1388.4285714285713,696.3348214285714,4915.5]","[1393.2,1393.2,1000,0,393.2,""oops"",""down"",""up"",""bad_move"",4772.1,3378.6,3130.7,1393.5,247.9,""smooth"",""right"",""right"",""good_move"",8134.8,3362.4,3102.6,4772.4,259.8,""while_blue"",""right"",""down"",""good_move"",15089.8,6954.5,2831.6,11940,318.2,""smooth"",""right"",""right"",""good_move"",18087.6,2997.7,2671,15089.9,326.7,""smooth"",""down"",""down"",""good_move"",24288,6200.2,2508.3,21450.7,329,""smooth"",""down"",""down"",""good_move"",26529.1,2240.9,1889.4,24288.2,351.5,""oops"",""right"",""right"",""good_move"",29478.7,2949.4,2655.9,26529.3,293.5,""oops"",""down"",""down"",""good_move""]","",""
"3735","","<div style=""width:500px;"">
  <p>What determined the result of this run?</p>
  </div>","83","html-slider-response","30","282559","0.0-5.0-1.4","4","1","2025-07-09 08:38:47","01610cd0009c79a99da7d0a3353eb402","94.134.108.166","Mozilla/5.0 (Windows NT 10.0; Win64; x64) AppleWebKit/537.36 (KHTML, like Gecko) Chrome/138.0.0.0 Safari/537.36","WebKit","Chrome","138.0.0.0","Windows","10.0","https://app.prolific.com/","de-DE,de;q=0.9,en-DE;q=0.8,en;q=0.7,es-ES;q=0.6,es;q=0.5,en-US;q=0.4","646219bb0b91a6f3327e39fb","683db7602f5db6a34d12d064","686e2a929983191f4d2a7875","1","646219bb0b91a6f3327e39fb","1","2025-07-09T08:43:31.367Z","","","","","","","","","","","AttribQ","","50","","","","","","","","","","","","","","","","","","","","","","","","","","","","",""
"1897","","<div style=""width:500px;"">
  <p>How much control did you have over the ball?</p>
  </div>","92","html-slider-response","31","284456","0.0-5.0-2.4","4","1","2025-07-09 08:38:47","01610cd0009c79a99da7d0a3353eb402","94.134.108.166","Mozilla/5.0 (Windows NT 10.0; Win64; x64) AppleWebKit/537.36 (KHTML, like Gecko) Chrome/138.0.0.0 Safari/537.36","WebKit","Chrome","138.0.0.0","Windows","10.0","https://app.prolific.com/","de-DE,de;q=0.9,en-DE;q=0.8,en;q=0.7,es-ES;q=0.6,es;q=0.5,en-US;q=0.4","646219bb0b91a6f3327e39fb","683db7602f5db6a34d12d064","686e2a929983191f4d2a7875","1","646219bb0b91a6f3327e39fb","1","2025-07-09T08:43:33.265Z","","","","","","","","","","","ControlQ","","50","","","","","","","","","","","","","","","","","","","","","","","","","","","","",""
"3511","","<div style=""width:500px;"">
  <p>How would you describe your current emotional state?</p>
  </div>","66","html-slider-response","32","287968","0.0-5.0-3.4","4","1","2025-07-09 08:38:47","01610cd0009c79a99da7d0a3353eb402","94.134.108.166","Mozilla/5.0 (Windows NT 10.0; Win64; x64) AppleWebKit/537.36 (KHTML, like Gecko) Chrome/138.0.0.0 Safari/537.36","WebKit","Chrome","138.0.0.0","Windows","10.0","https://app.prolific.com/","de-DE,de;q=0.9,en-DE;q=0.8,en;q=0.7,es-ES;q=0.6,es;q=0.5,en-US;q=0.4","646219bb0b91a6f3327e39fb","683db7602f5db6a34d12d064","686e2a929983191f4d2a7875","1","646219bb0b91a6f3327e39fb","1","2025-07-09T08:43:36.777Z","","","","","","","","","","","StressQ","","50","","","","","","","","","","","","","","","","","","","","","","","","","","","","",""
"2732","","<div style=""width:500px;"">
  <p>What best describes how you currently feel?</p>
  </div>","55","html-slider-response","33","290702","0.0-5.0-4.4","4","1","2025-07-09 08:38:47","01610cd0009c79a99da7d0a3353eb402","94.134.108.166","Mozilla/5.0 (Windows NT 10.0; Win64; x64) AppleWebKit/537.36 (KHTML, like Gecko) Chrome/138.0.0.0 Safari/537.36","WebKit","Chrome","138.0.0.0","Windows","10.0","https://app.prolific.com/","de-DE,de;q=0.9,en-DE;q=0.8,en;q=0.7,es-ES;q=0.6,es;q=0.5,en-US;q=0.4","646219bb0b91a6f3327e39fb","683db7602f5db6a34d12d064","686e2a929983191f4d2a7875","1","646219bb0b91a6f3327e39fb","1","2025-07-09T08:43:39.510Z","","","","","","","","","","","MotivationQ","","50","","","","","","","","","","","","","","","","","","","","","","","","","","","","",""
"","","","","ctl-task-cpt","34","314881","0.0-5.0-0.5","4","1","2025-07-09 08:38:47","01610cd0009c79a99da7d0a3353eb402","94.134.108.166","Mozilla/5.0 (Windows NT 10.0; Win64; x64) AppleWebKit/537.36 (KHTML, like Gecko) Chrome/138.0.0.0 Safari/537.36","WebKit","Chrome","138.0.0.0","Windows","10.0","https://app.prolific.com/","de-DE,de;q=0.9,en-DE;q=0.8,en;q=0.7,es-ES;q=0.6,es;q=0.5,en-US;q=0.4","646219bb0b91a6f3327e39fb","683db7602f5db6a34d12d064","686e2a929983191f4d2a7875","1","646219bb0b91a6f3327e39fb","1","2025-07-09T08:44:03.689Z","","","","","","","","","","","","","","win-only","1","g1:NE,g2:SW","0.5","6","0","293318","970","5970.3","21172","1","4","8","6","2","8","8","25","17","0.1893939393939394","2767.9","3000","1385","[""down"",""left""]","{""num_key_presses"":6,""num_perfect"":3,""num_errors"":0,""num_randdir"":3,""num_randdir_good_moves"":3,""num_whilered"":0,""num_whileblue"":0,""num_blue"":0,""num_good_moves"":6}","[563.4285714285714,548.3348214285714,0.2,563.4285714285714,548.3348214285714,100.7,563.4285714285714,548.3348214285714,200.8,563.4285714285714,548.3348214285714,301,563.4285714285714,548.3348214285714,406.1,563.4285714285714,556.3348214285714,510.4,564.4285714285714,559.3348214285714,613.8,566.4285714285714,560.3348214285714,715.6,566.4285714285714,561.3348214285714,820.8,566.4285714285714,561.3348214285714,926.1,572.4285714285714,565.3348214285714,1028.4,572.4285714285714,566.3348214285714,1130.3,542.4285714285714,587.3348214285714,1231.4,349.42857142857144,765.3348214285714,1335.6,226.42857142857144,931.3348214285714,1440.7,214.42857142857144,950.3348214285714,1540.9,283.42857142857144,886.3348214285714,1642.5,449.42857142857144,706.3348214285714,1746,451.42857142857144,704.3348214285714,1846.2,469.42857142857144,688.3348214285714,1947.9,608.4285714285714,531.3348214285714,2050.3,800.4285714285714,376.33482142857144,2150.7,820.4285714285714,357.33482142857144,2250.8,624.4285714285714,578.3348214285714,2356.6,247.42857142857144,955.3348214285714,2457,230.42857142857144,953.3348214285714,2561.3,154.42857142857144,996.3348214285714,2661.5,143.42857142857144,1002.3348214285714,2765.9,143.42857142857144,1002.3348214285714,2866.6,156.42857142857144,998.3348214285714,2970.9,604.4285714285714,1182.3348214285713,3078,959.4285714285714,1278.3348214285713,3178.3,967.4285714285714,1278.3348214285713,3280.9,967.4285714285714,1278.3348214285713,3381.4,967.4285714285714,1278.3348214285713,3485.4,967.4285714285714,1278.3348214285713,3586.3,967.4285714285714,1278.3348214285713,3690.8,967.4285714285714,1278.3348214285713,3792.2,967.4285714285714,1278.3348214285713,3892.7,967.4285714285714,1278.3348214285713,3995.9,967.4285714285714,1278.3348214285713,4098.3,967.4285714285714,1278.3348214285713,4201.1,967.4285714285714,1278.3348214285713,4307.6,967.4285714285714,1278.3348214285713,4413.9,967.4285714285714,1278.3348214285713,4515.8,967.4285714285714,1278.3348214285713,4620.2,967.4285714285714,1278.3348214285713,4721.1,967.4285714285714,1278.3348214285713,4821.4,967.4285714285714,1278.3348214285713,4925.3]","[1257.8,1257.8,1000,0,257.8,""smooth"",""down"",""down"",""good_move"",4759.7,3501.6,3247.7,1258.1,253.9,""smooth"",""left"",""left"",""good_move"",7409.2,2648.5,2329.1,4760.7,319.4,""oops"",""down"",""left"",""good_move"",9543.4,2134.1,1831.9,7409.3,302.2,""oops"",""down"",""down"",""good_move"",12675.1,3131.5,2868.5,9543.6,263,""smooth"",""left"",""left"",""good_move"",15106.2,2430.8,2157.7,12675.4,273.1,""oops"",""down"",""down"",""good_move""]","",""
"2978","","<div style=""width:500px;"">
  <p>What determined the result of this run?</p>
  </div>","84","html-slider-response","35","317860","0.0-5.0-1.5","4","1","2025-07-09 08:38:47","01610cd0009c79a99da7d0a3353eb402","94.134.108.166","Mozilla/5.0 (Windows NT 10.0; Win64; x64) AppleWebKit/537.36 (KHTML, like Gecko) Chrome/138.0.0.0 Safari/537.36","WebKit","Chrome","138.0.0.0","Windows","10.0","https://app.prolific.com/","de-DE,de;q=0.9,en-DE;q=0.8,en;q=0.7,es-ES;q=0.6,es;q=0.5,en-US;q=0.4","646219bb0b91a6f3327e39fb","683db7602f5db6a34d12d064","686e2a929983191f4d2a7875","1","646219bb0b91a6f3327e39fb","1","2025-07-09T08:44:06.668Z","","","","","","","","","","","AttribQ","","50","","","","","","","","","","","","","","","","","","","","","","","","","","","","",""
"2541","","<div style=""width:500px;"">
  <p>How much control did you have over the ball?</p>
  </div>","84","html-slider-response","36","320402","0.0-5.0-2.5","4","1","2025-07-09 08:38:47","01610cd0009c79a99da7d0a3353eb402","94.134.108.166","Mozilla/5.0 (Windows NT 10.0; Win64; x64) AppleWebKit/537.36 (KHTML, like Gecko) Chrome/138.0.0.0 Safari/537.36","WebKit","Chrome","138.0.0.0","Windows","10.0","https://app.prolific.com/","de-DE,de;q=0.9,en-DE;q=0.8,en;q=0.7,es-ES;q=0.6,es;q=0.5,en-US;q=0.4","646219bb0b91a6f3327e39fb","683db7602f5db6a34d12d064","686e2a929983191f4d2a7875","1","646219bb0b91a6f3327e39fb","1","2025-07-09T08:44:09.210Z","","","","","","","","","","","ControlQ","","50","","","","","","","","","","","","","","","","","","","","","","","","","","","","",""
"3455","","<div style=""width:500px;"">
  <p>How would you describe your current emotional state?</p>
  </div>","58","html-slider-response","37","323859","0.0-5.0-3.5","4","1","2025-07-09 08:38:47","01610cd0009c79a99da7d0a3353eb402","94.134.108.166","Mozilla/5.0 (Windows NT 10.0; Win64; x64) AppleWebKit/537.36 (KHTML, like Gecko) Chrome/138.0.0.0 Safari/537.36","WebKit","Chrome","138.0.0.0","Windows","10.0","https://app.prolific.com/","de-DE,de;q=0.9,en-DE;q=0.8,en;q=0.7,es-ES;q=0.6,es;q=0.5,en-US;q=0.4","646219bb0b91a6f3327e39fb","683db7602f5db6a34d12d064","686e2a929983191f4d2a7875","1","646219bb0b91a6f3327e39fb","1","2025-07-09T08:44:12.667Z","","","","","","","","","","","StressQ","","50","","","","","","","","","","","","","","","","","","","","","","","","","","","","",""
"2171","","<div style=""width:500px;"">
  <p>What best describes how you currently feel?</p>
  </div>","58","html-slider-response","38","326033","0.0-5.0-4.5","4","1","2025-07-09 08:38:47","01610cd0009c79a99da7d0a3353eb402","94.134.108.166","Mozilla/5.0 (Windows NT 10.0; Win64; x64) AppleWebKit/537.36 (KHTML, like Gecko) Chrome/138.0.0.0 Safari/537.36","WebKit","Chrome","138.0.0.0","Windows","10.0","https://app.prolific.com/","de-DE,de;q=0.9,en-DE;q=0.8,en;q=0.7,es-ES;q=0.6,es;q=0.5,en-US;q=0.4","646219bb0b91a6f3327e39fb","683db7602f5db6a34d12d064","686e2a929983191f4d2a7875","1","646219bb0b91a6f3327e39fb","1","2025-07-09T08:44:14.841Z","","","","","","","","","","","MotivationQ","","50","","","","","","","","","","","","","","","","","","","","","","","","","","","","",""
"","","","","ctl-task-cpt","39","363429","0.0-5.0-0.6","4","1","2025-07-09 08:38:47","01610cd0009c79a99da7d0a3353eb402","94.134.108.166","Mozilla/5.0 (Windows NT 10.0; Win64; x64) AppleWebKit/537.36 (KHTML, like Gecko) Chrome/138.0.0.0 Safari/537.36","WebKit","Chrome","138.0.0.0","Windows","10.0","https://app.prolific.com/","de-DE,de;q=0.9,en-DE;q=0.8,en;q=0.7,es-ES;q=0.6,es;q=0.5,en-US;q=0.4","646219bb0b91a6f3327e39fb","683db7602f5db6a34d12d064","686e2a929983191f4d2a7875","1","646219bb0b91a6f3327e39fb","1","2025-07-09T08:44:52.238Z","","","","","","","","","","","","","","win-only","1","g1:NE,g2:SW","0.4","7","0","328651.5","996.9","6002.6","34376.1","1","4","4","6","2","-4","-5","20","25","0.15151515151515152","1174.5","3000","-2980","[""down"",""left""]","{""num_key_presses"":11,""num_perfect"":4,""num_errors"":1,""num_randdir"":6,""num_randdir_good_moves"":3,""num_whilered"":0,""num_whileblue"":0,""num_blue"":0,""num_good_moves"":7}","[562.4285714285714,557.3348214285714,0.2,562.4285714285714,557.3348214285714,103.4,562.4285714285714,557.3348214285714,204.6,560.4285714285714,557.3348214285714,309.5,557.4285714285714,560.3348214285714,411.7,529.4285714285714,596.3348214285714,516.2,510.42857142857144,619.3348214285714,620.2,497.42857142857144,629.3348214285714,726.7,456.42857142857144,657.3348214285714,831.5,289.42857142857144,851.3348214285714,934.2,166.42857142857144,952.3348214285714,1038.8,128.42857142857144,968.3348214285714,1139,128.42857142857144,968.3348214285714,1240.1,128.42857142857144,969.3348214285714,1343.5,263.42857142857144,1067.3348214285713,1445.9,862.4285714285714,1278.3348214285713,1548.6,1086.4285714285713,1245.3348214285713,1649.3,1242.4285714285713,1202.3348214285713,1750.2,1273.4285714285713,1196.3348214285713,1854.6,1273.4285714285713,1196.3348214285713,1954.9,1273.4285714285713,1196.3348214285713,2059.4,1273.4285714285713,1196.3348214285713,2161.4,1273.4285714285713,1196.3348214285713,2261.4,1273.4285714285713,1196.3348214285713,2365.1,1273.4285714285713,1196.3348214285713,2469.4,1273.4285714285713,1196.3348214285713,2569.6,1273.4285714285713,1196.3348214285713,2669.6,1273.4285714285713,1196.3348214285713,2775.7,1273.4285714285713,1196.3348214285713,2876.6,1273.4285714285713,1196.3348214285713,2980.4,1273.4285714285713,1196.3348214285713,3081.7,1273.4285714285713,1196.3348214285713,3183.9,1273.4285714285713,1196.3348214285713,3284.1,1273.4285714285713,1196.3348214285713,3384.5,1273.4285714285713,1196.3348214285713,3488.5,1273.4285714285713,1196.3348214285713,3589.2,1273.4285714285713,1196.3348214285713,3694.7,1273.4285714285713,1196.3348214285713,3796.1,1273.4285714285713,1196.3348214285713,3899.7,1273.4285714285713,1196.3348214285713,4003.7,1273.4285714285713,1196.3348214285713,4108.7,1273.4285714285713,1196.3348214285713,4211.2,1273.4285714285713,1196.3348214285713,4311.2,1273.4285714285713,1196.3348214285713,4413.8,1273.4285714285713,1196.3348214285713,4519.4,1273.4285714285713,1196.3348214285713,4624.4,1273.4285714285713,1196.3348214285713,4726.2,1273.4285714285713,1196.3348214285713,4827.1,1273.4285714285713,1196.3348214285713,4931]","[1245.3,1245.3,1000,0,245.3,""smooth"",""left"",""left"",""good_move"",2769,1523.2,1222.9,1245.9,300.2,""smooth"",""left"",""left"",""good_move"",4885.9,2116.8,1821.9,2769.1,294.9,""smooth"",""down"",""down"",""good_move"",7815.8,2929.6,2504.2,4886.2,425.4,""oops"",""down"",""up"",""bad_move"",10030,2213.8,1944.7,7816.2,269.1,""oops"",""down"",""left"",""good_move"",12697.1,2667,2403.1,10030.2,263.8,""smooth"",""down"",""down"",""good_move"",15189.3,2492,2140.9,12697.3,351.1,""oops"",""down"",""right"",""bad_move"",18589.3,3399.7,3146.1,15189.6,253.6,""oops"",""down"",""down"",""good_move"",21376.5,2787,2528.1,18589.5,258.9,""oops"",""down"",""right"",""bad_move"",23166.9,1790.2,1479.2,21376.7,311,""oops"",""down"",""left"",""good_move"",24784.9,1617.7,2617.2,23167.2,-999.5,""error"",""-"",""-"",""no_move""]","",""
"2807","","<div style=""width:500px;"">
  <p>What determined the result of this run?</p>
  </div>","0","html-slider-response","40","366238","0.0-5.0-1.6","4","1","2025-07-09 08:38:47","01610cd0009c79a99da7d0a3353eb402","94.134.108.166","Mozilla/5.0 (Windows NT 10.0; Win64; x64) AppleWebKit/537.36 (KHTML, like Gecko) Chrome/138.0.0.0 Safari/537.36","WebKit","Chrome","138.0.0.0","Windows","10.0","https://app.prolific.com/","de-DE,de;q=0.9,en-DE;q=0.8,en;q=0.7,es-ES;q=0.6,es;q=0.5,en-US;q=0.4","646219bb0b91a6f3327e39fb","683db7602f5db6a34d12d064","686e2a929983191f4d2a7875","1","646219bb0b91a6f3327e39fb","1","2025-07-09T08:44:55.046Z","","","","","","","","","","","AttribQ","","50","","","","","","","","","","","","","","","","","","","","","","","","","","","","",""
"2665","","<div style=""width:500px;"">
  <p>How much control did you have over the ball?</p>
  </div>","16","html-slider-response","41","368907","0.0-5.0-2.6","4","1","2025-07-09 08:38:47","01610cd0009c79a99da7d0a3353eb402","94.134.108.166","Mozilla/5.0 (Windows NT 10.0; Win64; x64) AppleWebKit/537.36 (KHTML, like Gecko) Chrome/138.0.0.0 Safari/537.36","WebKit","Chrome","138.0.0.0","Windows","10.0","https://app.prolific.com/","de-DE,de;q=0.9,en-DE;q=0.8,en;q=0.7,es-ES;q=0.6,es;q=0.5,en-US;q=0.4","646219bb0b91a6f3327e39fb","683db7602f5db6a34d12d064","686e2a929983191f4d2a7875","1","646219bb0b91a6f3327e39fb","1","2025-07-09T08:44:57.715Z","","","","","","","","","","","ControlQ","","50","","","","","","","","","","","","","","","","","","","","","","","","","","","","",""
"3330","","<div style=""width:500px;"">
  <p>How would you describe your current emotional state?</p>
  </div>","85","html-slider-response","42","372239","0.0-5.0-3.6","4","1","2025-07-09 08:38:47","01610cd0009c79a99da7d0a3353eb402","94.134.108.166","Mozilla/5.0 (Windows NT 10.0; Win64; x64) AppleWebKit/537.36 (KHTML, like Gecko) Chrome/138.0.0.0 Safari/537.36","WebKit","Chrome","138.0.0.0","Windows","10.0","https://app.prolific.com/","de-DE,de;q=0.9,en-DE;q=0.8,en;q=0.7,es-ES;q=0.6,es;q=0.5,en-US;q=0.4","646219bb0b91a6f3327e39fb","683db7602f5db6a34d12d064","686e2a929983191f4d2a7875","1","646219bb0b91a6f3327e39fb","1","2025-07-09T08:45:01.048Z","","","","","","","","","","","StressQ","","50","","","","","","","","","","","","","","","","","","","","","","","","","","","","",""
"3377","","<div style=""width:500px;"">
  <p>What best describes how you currently feel?</p>
  </div>","43","html-slider-response","43","375619","0.0-5.0-4.6","4","1","2025-07-09 08:38:47","01610cd0009c79a99da7d0a3353eb402","94.134.108.166","Mozilla/5.0 (Windows NT 10.0; Win64; x64) AppleWebKit/537.36 (KHTML, like Gecko) Chrome/138.0.0.0 Safari/537.36","WebKit","Chrome","138.0.0.0","Windows","10.0","https://app.prolific.com/","de-DE,de;q=0.9,en-DE;q=0.8,en;q=0.7,es-ES;q=0.6,es;q=0.5,en-US;q=0.4","646219bb0b91a6f3327e39fb","683db7602f5db6a34d12d064","686e2a929983191f4d2a7875","1","646219bb0b91a6f3327e39fb","1","2025-07-09T08:45:04.427Z","","","","","","","","","","","MotivationQ","","50","","","","","","","","","","","","","","","","","","","","","","","","","","","","",""
"","","","","ctl-task-cpt","44","423639","0.0-5.0-0.7","4","1","2025-07-09 08:38:47","01610cd0009c79a99da7d0a3353eb402","94.134.108.166","Mozilla/5.0 (Windows NT 10.0; Win64; x64) AppleWebKit/537.36 (KHTML, like Gecko) Chrome/138.0.0.0 Safari/537.36","WebKit","Chrome","138.0.0.0","Windows","10.0","https://app.prolific.com/","de-DE,de;q=0.9,en-DE;q=0.8,en;q=0.7,es-ES;q=0.6,es;q=0.5,en-US;q=0.4","646219bb0b91a6f3327e39fb","683db7602f5db6a34d12d064","686e2a929983191f4d2a7875","1","646219bb0b91a6f3327e39fb","1","2025-07-09T08:45:52.447Z","","","","","","","","","","","","","","win-only","2","g1:SE,g2:NW","0.3","8","0","378237.5","1142.6","6145.7","44997.7","1","4","8","6","1","-1","-2","18","20","0.13636363636363635","1551.9","3000","-2835","[""down"",""right""]","{""num_key_presses"":12,""num_perfect"":4,""num_errors"":1,""num_randdir"":7,""num_randdir_good_moves"":2,""num_whilered"":0,""num_whileblue"":1,""num_blue"":3,""num_good_moves"":7}","[542.4285714285714,553.3348214285714,0.3,542.4285714285714,553.3348214285714,103.6,542.4285714285714,553.3348214285714,203.7,542.4285714285714,553.3348214285714,304.5,542.4285714285714,553.3348214285714,409.2,531.4285714285714,558.3348214285714,510.4,527.4285714285714,569.3348214285714,610.6,560.4285714285714,592.3348214285714,711.2,571.4285714285714,598.3348214285714,811.6,753.4285714285714,782.3348214285714,911.8,936.4285714285714,938.3348214285714,1013.5,986.4285714285714,954.3348214285714,1118,996.4285714285714,959.3348214285714,1223,1001.4285714285714,970.3348214285714,1323.4,1005.4285714285714,984.3348214285714,1423.7,1006.4285714285714,989.3348214285714,1526.6,1006.4285714285714,990.3348214285714,1630.2,1006.4285714285714,990.3348214285714,1733.5,1124.4285714285713,997.3348214285714,1837.8,1325.4285714285713,1010.3348214285714,1946.6,1331.4285714285713,1006.3348214285714,2048.3,1331.4285714285713,1006.3348214285714,2148.5,1331.4285714285713,1006.3348214285714,2255.5,1331.4285714285713,1006.3348214285714,2359.1,1331.4285714285713,1006.3348214285714,2459.1,1331.4285714285713,1006.3348214285714,2562.3,1331.4285714285713,1006.3348214285714,2668.5,1331.4285714285713,1006.3348214285714,2772.7,1331.4285714285713,1006.3348214285714,2882,1331.4285714285713,1006.3348214285714,2983.5,1331.4285714285713,1006.3348214285714,3087.6,1331.4285714285713,1006.3348214285714,3188.5,1331.4285714285713,1006.3348214285714,3288.7,1331.4285714285713,1006.3348214285714,3388.7,1331.4285714285713,1006.3348214285714,3495.6,1331.4285714285713,1006.3348214285714,3598.2,1331.4285714285713,1006.3348214285714,3702.9,1331.4285714285713,1006.3348214285714,3803.4,1331.4285714285713,1006.3348214285714,3903.9,1331.4285714285713,1006.3348214285714,4008.1,1331.4285714285713,1006.3348214285714,4112.8,1331.4285714285713,1006.3348214285714,4219.1,1331.4285714285713,1006.3348214285714,4324.7,1331.4285714285713,1006.3348214285714,4425,1331.4285714285713,1006.3348214285714,4528.8,1331.4285714285713,1006.3348214285714,4630.4,1331.4285714285713,1006.3348214285714,4732.5,1331.4285714285713,1006.3348214285714,4833.2,1331.4285714285713,1006.3348214285714,4933.3]","[7927.4,7927.4,2452.2,5116,359.2,""oops"",""down"",""up"",""bad_move"",10748.4,2820.7,2509.8,7927.7,310.9,""oops"",""right"",""up"",""bad_move"",13194.3,2445.7,2098,10748.7,347.7,""smooth"",""down"",""down"",""good_move"",16173.2,2978.5,2716.5,13194.7,262,""smooth"",""down"",""down"",""good_move"",19186.1,3012.9,2737,16173.3,275.9,""smooth"",""down"",""down"",""good_move"",21709.1,2522.7,2286.2,19186.5,236.4,""oops"",""right"",""up"",""bad_move"",24161.8,2452.4,2204.3,21709.5,248,""oops"",""right"",""down"",""good_move"",25936.9,1774.9,1476.2,24162,298.7,""oops"",""right"",""left"",""bad_move"",28720.4,2783.3,2524.3,25937.2,258.9,""oops"",""right"",""down"",""good_move"",31967.4,3246.7,2987.1,28720.7,259.6,""oops"",""right"",""left"",""bad_move"",34621.4,2653.9,2408.1,31967.5,245.8,""smooth"",""right"",""right"",""good_move"",36883.4,2261.6,2060,34621.8,201.6,""while_blue"",""right"",""right"",""good_move""]","",""
"2757","","<div style=""width:500px;"">
  <p>What determined the result of this run?</p>
  </div>","0","html-slider-response","45","426399","0.0-5.0-1.7","4","1","2025-07-09 08:38:47","01610cd0009c79a99da7d0a3353eb402","94.134.108.166","Mozilla/5.0 (Windows NT 10.0; Win64; x64) AppleWebKit/537.36 (KHTML, like Gecko) Chrome/138.0.0.0 Safari/537.36","WebKit","Chrome","138.0.0.0","Windows","10.0","https://app.prolific.com/","de-DE,de;q=0.9,en-DE;q=0.8,en;q=0.7,es-ES;q=0.6,es;q=0.5,en-US;q=0.4","646219bb0b91a6f3327e39fb","683db7602f5db6a34d12d064","686e2a929983191f4d2a7875","1","646219bb0b91a6f3327e39fb","1","2025-07-09T08:45:55.207Z","","","","","","","","","","","AttribQ","","50","","","","","","","","","","","","","","","","","","","","","","","","","","","","",""
"2214","","<div style=""width:500px;"">
  <p>How much control did you have over the ball?</p>
  </div>","3","html-slider-response","46","428616","0.0-5.0-2.7","4","1","2025-07-09 08:38:47","01610cd0009c79a99da7d0a3353eb402","94.134.108.166","Mozilla/5.0 (Windows NT 10.0; Win64; x64) AppleWebKit/537.36 (KHTML, like Gecko) Chrome/138.0.0.0 Safari/537.36","WebKit","Chrome","138.0.0.0","Windows","10.0","https://app.prolific.com/","de-DE,de;q=0.9,en-DE;q=0.8,en;q=0.7,es-ES;q=0.6,es;q=0.5,en-US;q=0.4","646219bb0b91a6f3327e39fb","683db7602f5db6a34d12d064","686e2a929983191f4d2a7875","1","646219bb0b91a6f3327e39fb","1","2025-07-09T08:45:57.424Z","","","","","","","","","","","ControlQ","","50","","","","","","","","","","","","","","","","","","","","","","","","","","","","",""
"3037","","<div style=""width:500px;"">
  <p>How would you describe your current emotional state?</p>
  </div>","100","html-slider-response","47","431655","0.0-5.0-3.7","4","1","2025-07-09 08:38:47","01610cd0009c79a99da7d0a3353eb402","94.134.108.166","Mozilla/5.0 (Windows NT 10.0; Win64; x64) AppleWebKit/537.36 (KHTML, like Gecko) Chrome/138.0.0.0 Safari/537.36","WebKit","Chrome","138.0.0.0","Windows","10.0","https://app.prolific.com/","de-DE,de;q=0.9,en-DE;q=0.8,en;q=0.7,es-ES;q=0.6,es;q=0.5,en-US;q=0.4","646219bb0b91a6f3327e39fb","683db7602f5db6a34d12d064","686e2a929983191f4d2a7875","1","646219bb0b91a6f3327e39fb","1","2025-07-09T08:46:00.463Z","","","","","","","","","","","StressQ","","50","","","","","","","","","","","","","","","","","","","","","","","","","","","","",""
"4063","","<div style=""width:500px;"">
  <p>What best describes how you currently feel?</p>
  </div>","36","html-slider-response","48","435719","0.0-5.0-4.7","4","1","2025-07-09 08:38:47","01610cd0009c79a99da7d0a3353eb402","94.134.108.166","Mozilla/5.0 (Windows NT 10.0; Win64; x64) AppleWebKit/537.36 (KHTML, like Gecko) Chrome/138.0.0.0 Safari/537.36","WebKit","Chrome","138.0.0.0","Windows","10.0","https://app.prolific.com/","de-DE,de;q=0.9,en-DE;q=0.8,en;q=0.7,es-ES;q=0.6,es;q=0.5,en-US;q=0.4","646219bb0b91a6f3327e39fb","683db7602f5db6a34d12d064","686e2a929983191f4d2a7875","1","646219bb0b91a6f3327e39fb","1","2025-07-09T08:46:04.527Z","","","","","","","","","","","MotivationQ","","50","","","","","","","","","","","","","","","","","","","","","","","","","","","","",""
"","","","","ctl-task-cpt","49","497705","0.0-5.0-0.8","4","1","2025-07-09 08:38:47","01610cd0009c79a99da7d0a3353eb402","94.134.108.166","Mozilla/5.0 (Windows NT 10.0; Win64; x64) AppleWebKit/537.36 (KHTML, like Gecko) Chrome/138.0.0.0 Safari/537.36","WebKit","Chrome","138.0.0.0","Windows","10.0","https://app.prolific.com/","de-DE,de;q=0.9,en-DE;q=0.8,en;q=0.7,es-ES;q=0.6,es;q=0.5,en-US;q=0.4","646219bb0b91a6f3327e39fb","683db7602f5db6a34d12d064","686e2a929983191f4d2a7875","1","646219bb0b91a6f3327e39fb","1","2025-07-09T08:47:06.513Z","","","","","","","","","","","","","","win-only","1","g1:NE,g2:SW","0.2","9","0","438337.3","886.1","5896.5","58961.3","1","4","4","6","2","-4","-5","13","18","0.09848484848484848","1167.9","3000","-2860","[""down"",""left""]","{""num_key_presses"":12,""num_perfect"":3,""num_errors"":1,""num_randdir"":8,""num_randdir_good_moves"":3,""num_whilered"":0,""num_whileblue"":1,""num_blue"":6,""num_good_moves"":7}","[558.4285714285714,550.3348214285714,0.5,558.4285714285714,550.3348214285714,102.2,558.4285714285714,550.3348214285714,205.3,558.4285714285714,550.3348214285714,308.7,548.4285714285714,559.3348214285714,411.4,470.42857142857144,690.3348214285714,514.7,405.42857142857144,838.3348214285714,620.3,304.42857142857144,922.3348214285714,727.6,266.42857142857144,943.3348214285714,829.9,219.42857142857144,957.3348214285714,930.9,148.42857142857144,1003.3348214285714,1031.2,105.42857142857143,1037.3348214285713,1140.1,104.42857142857143,1037.3348214285713,1254.6,106.42857142857143,1034.3348214285713,1358,259.42857142857144,1040.3348214285713,1459.5,894.4285714285714,1155.3348214285713,1564.7,1125.4285714285713,1187.3348214285713,1674.1,1133.4285714285713,1185.3348214285713,1774.1,1133.4285714285713,1185.3348214285713,1875.3,1133.4285714285713,1185.3348214285713,1980.7,1133.4285714285713,1185.3348214285713,2084.3,1133.4285714285713,1185.3348214285713,2189.3,1133.4285714285713,1185.3348214285713,2289.6,1133.4285714285713,1185.3348214285713,2391.5,1133.4285714285713,1185.3348214285713,2493.9,1133.4285714285713,1185.3348214285713,2594.2,1133.4285714285713,1185.3348214285713,2694.9,1133.4285714285713,1185.3348214285713,2800.6,1133.4285714285713,1185.3348214285713,2902.6,1133.4285714285713,1185.3348214285713,3004.4,1133.4285714285713,1185.3348214285713,3105.8,1133.4285714285713,1185.3348214285713,3209.6,1133.4285714285713,1185.3348214285713,3309.7,1133.4285714285713,1185.3348214285713,3415.5,1133.4285714285713,1185.3348214285713,3519.8,1133.4285714285713,1185.3348214285713,3621,1133.4285714285713,1185.3348214285713,3726,1133.4285714285713,1185.3348214285713,3826.1,1133.4285714285713,1185.3348214285713,3929.2,1133.4285714285713,1185.3348214285713,4030,1133.4285714285713,1185.3348214285713,4130.6,1133.4285714285713,1185.3348214285713,4231.7,1133.4285714285713,1185.3348214285713,4334.3,1133.4285714285713,1185.3348214285713,4438.9,1133.4285714285713,1185.3348214285713,4544.6,1133.4285714285713,1185.3348214285713,4645.6,1133.4285714285713,1185.3348214285713,4750.7,1133.4285714285713,1185.3348214285713,4854.5,1133.4285714285713,1185.3348214285713,4959.1]","[1295,1295,1000,0,295,""oops"",""down"",""right"",""bad_move"",4471.8,3176.4,2908.4,1295.4,268,""while_blue"",""down"",""left"",""good_move"",7564.6,3092.5,2783,4472.1,309.5,""oops"",""down"",""right"",""bad_move"",10127.5,2562.6,2251.7,7564.9,310.9,""oops"",""left"",""up"",""bad_move"",13545.6,3417.9,3144.7,10127.7,273.2,""smooth"",""left"",""left"",""good_move"",19868.5,6322.6,2344.3,17227.6,296.6,""oops"",""left"",""down"",""good_move"",25356.8,5488,2293.7,22814.8,248.3,""smooth"",""left"",""left"",""good_move"",28388.4,3031.4,2741.6,25357,289.8,""oops"",""left"",""right"",""bad_move"",37775.6,9386.9,1811,35710.1,254.5,""oops"",""left"",""right"",""bad_move"",40341.2,2565.3,2298.8,37775.9,266.5,""oops"",""left"",""down"",""good_move"",47378.1,7036.4,3082.7,44020.4,275,""oops"",""left"",""left"",""good_move"",50181.6,2803.3,2538.5,47378.3,264.8,""smooth"",""left"",""left"",""good_move""]","",""
"3155","","<div style=""width:500px;"">
  <p>What determined the result of this run?</p>
  </div>","0","html-slider-response","50","500863","0.0-5.0-1.8","4","1","2025-07-09 08:38:47","01610cd0009c79a99da7d0a3353eb402","94.134.108.166","Mozilla/5.0 (Windows NT 10.0; Win64; x64) AppleWebKit/537.36 (KHTML, like Gecko) Chrome/138.0.0.0 Safari/537.36","WebKit","Chrome","138.0.0.0","Windows","10.0","https://app.prolific.com/","de-DE,de;q=0.9,en-DE;q=0.8,en;q=0.7,es-ES;q=0.6,es;q=0.5,en-US;q=0.4","646219bb0b91a6f3327e39fb","683db7602f5db6a34d12d064","686e2a929983191f4d2a7875","1","646219bb0b91a6f3327e39fb","1","2025-07-09T08:47:09.671Z","","","","","","","","","","","AttribQ","","50","","","","","","","","","","","","","","","","","","","","","","","","","","","","",""
"2399","","<div style=""width:500px;"">
  <p>How much control did you have over the ball?</p>
  </div>","0","html-slider-response","51","503266","0.0-5.0-2.8","4","1","2025-07-09 08:38:47","01610cd0009c79a99da7d0a3353eb402","94.134.108.166","Mozilla/5.0 (Windows NT 10.0; Win64; x64) AppleWebKit/537.36 (KHTML, like Gecko) Chrome/138.0.0.0 Safari/537.36","WebKit","Chrome","138.0.0.0","Windows","10.0","https://app.prolific.com/","de-DE,de;q=0.9,en-DE;q=0.8,en;q=0.7,es-ES;q=0.6,es;q=0.5,en-US;q=0.4","646219bb0b91a6f3327e39fb","683db7602f5db6a34d12d064","686e2a929983191f4d2a7875","1","646219bb0b91a6f3327e39fb","1","2025-07-09T08:47:12.074Z","","","","","","","","","","","ControlQ","","50","","","","","","","","","","","","","","","","","","","","","","","","","","","","",""
"2445","","<div style=""width:500px;"">
  <p>How would you describe your current emotional state?</p>
  </div>","100","html-slider-response","52","505713","0.0-5.0-3.8","4","1","2025-07-09 08:38:47","01610cd0009c79a99da7d0a3353eb402","94.134.108.166","Mozilla/5.0 (Windows NT 10.0; Win64; x64) AppleWebKit/537.36 (KHTML, like Gecko) Chrome/138.0.0.0 Safari/537.36","WebKit","Chrome","138.0.0.0","Windows","10.0","https://app.prolific.com/","de-DE,de;q=0.9,en-DE;q=0.8,en;q=0.7,es-ES;q=0.6,es;q=0.5,en-US;q=0.4","646219bb0b91a6f3327e39fb","683db7602f5db6a34d12d064","686e2a929983191f4d2a7875","1","646219bb0b91a6f3327e39fb","1","2025-07-09T08:47:14.521Z","","","","","","","","","","","StressQ","","50","","","","","","","","","","","","","","","","","","","","","","","","","","","","",""
"2292","","<div style=""width:500px;"">
  <p>What best describes how you currently feel?</p>
  </div>","24","html-slider-response","53","508007","0.0-5.0-4.8","4","1","2025-07-09 08:38:47","01610cd0009c79a99da7d0a3353eb402","94.134.108.166","Mozilla/5.0 (Windows NT 10.0; Win64; x64) AppleWebKit/537.36 (KHTML, like Gecko) Chrome/138.0.0.0 Safari/537.36","WebKit","Chrome","138.0.0.0","Windows","10.0","https://app.prolific.com/","de-DE,de;q=0.9,en-DE;q=0.8,en;q=0.7,es-ES;q=0.6,es;q=0.5,en-US;q=0.4","646219bb0b91a6f3327e39fb","683db7602f5db6a34d12d064","686e2a929983191f4d2a7875","1","646219bb0b91a6f3327e39fb","1","2025-07-09T08:47:16.815Z","","","","","","","","","","","MotivationQ","","50","","","","","","","","","","","","","","","","","","","","","","","","","","","","",""
"","","","","ctl-task-cpt","54","546849","0.0-5.0-0.9","4","1","2025-07-09 08:38:47","01610cd0009c79a99da7d0a3353eb402","94.134.108.166","Mozilla/5.0 (Windows NT 10.0; Win64; x64) AppleWebKit/537.36 (KHTML, like Gecko) Chrome/138.0.0.0 Safari/537.36","WebKit","Chrome","138.0.0.0","Windows","10.0","https://app.prolific.com/","de-DE,de;q=0.9,en-DE;q=0.8,en;q=0.7,es-ES;q=0.6,es;q=0.5,en-US;q=0.4","646219bb0b91a6f3327e39fb","683db7602f5db6a34d12d064","686e2a929983191f4d2a7875","1","646219bb0b91a6f3327e39fb","1","2025-07-09T08:47:55.657Z","","","","","","","","","","","","","","win-only","0","g1:NW,g2:SE","0.4","10","0","510625.7","917","5922.7","35821","1","4","8","6","2","8","8","21","13","0.1590909090909091","1748.8","3000","1395","[""down"",""right""]","{""num_key_presses"":6,""num_perfect"":3,""num_errors"":0,""num_randdir"":3,""num_randdir_good_moves"":3,""num_whilered"":0,""num_whileblue"":0,""num_blue"":4,""num_good_moves"":6}","[549.4285714285714,560.3348214285714,0,549.4285714285714,560.3348214285714,105.6,549.4285714285714,560.3348214285714,211.2,549.4285714285714,560.3348214285714,315.2,549.4285714285714,560.3348214285714,419.3,555.4285714285714,574.3348214285714,523.9,581.4285714285714,624.3348214285714,625.5,647.4285714285714,731.3348214285714,726.2,679.4285714285714,772.3348214285714,828.9,685.4285714285714,781.3348214285714,929.6,580.4285714285714,693.3348214285714,1030,253.42857142857144,369.33482142857144,1131.7,244.42857142857144,332.33482142857144,1236.1,257.42857142857144,333.33482142857144,1339.6,480.42857142857144,569.3348214285714,1440,949.4285714285714,953.3348214285714,1540.5,1042.4285714285713,995.3348214285714,1642.2,1057.4285714285713,1001.3348214285714,1746.1,1057.4285714285713,1002.3348214285714,1849,1057.4285714285713,1002.3348214285714,1951.4,1211.4285714285713,986.3348214285714,2051.7,1565.4285714285713,981.3348214285714,2153.9,1586.4285714285713,980.3348214285714,2256.4,1586.4285714285713,980.3348214285714,2359.6,1587.4285714285713,980.3348214285714,2461.1,1587.4285714285713,980.3348214285714,2565.9,1587.4285714285713,980.3348214285714,2671.4,1587.4285714285713,980.3348214285714,2775.3,1587.4285714285713,980.3348214285714,2880.1,1587.4285714285713,980.3348214285714,2986,1587.4285714285713,980.3348214285714,3088.7,1587.4285714285713,980.3348214285714,3189.6,1587.4285714285713,980.3348214285714,3289.8,1587.4285714285713,980.3348214285714,3390.2,1587.4285714285713,980.3348214285714,3493.9,1587.4285714285713,980.3348214285714,3594.9,1587.4285714285713,980.3348214285714,3701,1587.4285714285713,980.3348214285714,3803.2,1587.4285714285713,980.3348214285714,3905.2,1587.4285714285713,980.3348214285714,4009.3,1587.4285714285713,980.3348214285714,4110.2,1587.4285714285713,980.3348214285714,4216.5,1587.4285714285713,980.3348214285714,4317.6,1587.4285714285713,980.3348214285714,4421.4,1587.4285714285713,980.3348214285714,4524.7,1587.4285714285713,980.3348214285714,4629.5,1587.4285714285713,980.3348214285714,4731.8,1587.4285714285713,980.3348214285714,4834.7,1587.4285714285713,980.3348214285714,4940.3]","[1299.8,1299.8,1000,0,299.8,""oops"",""right"",""down"",""good_move"",4342.6,3042.6,2751.9,1300,290.7,""smooth"",""right"",""right"",""good_move"",6546.2,2202.9,1911.5,4343.3,291.4,""oops"",""right"",""right"",""good_move"",20386.2,13839.8,2174,17919.2,293,""smooth"",""down"",""down"",""good_move"",23255.1,2868.7,2588.9,20386.4,279.8,""smooth"",""right"",""right"",""good_move"",29797.3,6542.1,2522.3,26940.9,334.1,""oops"",""down"",""down"",""good_move""]","",""
"3628","","<div style=""width:500px;"">
  <p>What determined the result of this run?</p>
  </div>","80","html-slider-response","55","550478","0.0-5.0-1.9","4","1","2025-07-09 08:38:47","01610cd0009c79a99da7d0a3353eb402","94.134.108.166","Mozilla/5.0 (Windows NT 10.0; Win64; x64) AppleWebKit/537.36 (KHTML, like Gecko) Chrome/138.0.0.0 Safari/537.36","WebKit","Chrome","138.0.0.0","Windows","10.0","https://app.prolific.com/","de-DE,de;q=0.9,en-DE;q=0.8,en;q=0.7,es-ES;q=0.6,es;q=0.5,en-US;q=0.4","646219bb0b91a6f3327e39fb","683db7602f5db6a34d12d064","686e2a929983191f4d2a7875","1","646219bb0b91a6f3327e39fb","1","2025-07-09T08:47:59.286Z","","","","","","","","","","","AttribQ","","50","","","","","","","","","","","","","","","","","","","","","","","","","","","","",""
"3149","","<div style=""width:500px;"">
  <p>How much control did you have over the ball?</p>
  </div>","83","html-slider-response","56","553629","0.0-5.0-2.9","4","1","2025-07-09 08:38:47","01610cd0009c79a99da7d0a3353eb402","94.134.108.166","Mozilla/5.0 (Windows NT 10.0; Win64; x64) AppleWebKit/537.36 (KHTML, like Gecko) Chrome/138.0.0.0 Safari/537.36","WebKit","Chrome","138.0.0.0","Windows","10.0","https://app.prolific.com/","de-DE,de;q=0.9,en-DE;q=0.8,en;q=0.7,es-ES;q=0.6,es;q=0.5,en-US;q=0.4","646219bb0b91a6f3327e39fb","683db7602f5db6a34d12d064","686e2a929983191f4d2a7875","1","646219bb0b91a6f3327e39fb","1","2025-07-09T08:48:02.437Z","","","","","","","","","","","ControlQ","","50","","","","","","","","","","","","","","","","","","","","","","","","","","","","",""
"3197","","<div style=""width:500px;"">
  <p>How would you describe your current emotional state?</p>
  </div>","93","html-slider-response","57","556828","0.0-5.0-3.9","4","1","2025-07-09 08:38:47","01610cd0009c79a99da7d0a3353eb402","94.134.108.166","Mozilla/5.0 (Windows NT 10.0; Win64; x64) AppleWebKit/537.36 (KHTML, like Gecko) Chrome/138.0.0.0 Safari/537.36","WebKit","Chrome","138.0.0.0","Windows","10.0","https://app.prolific.com/","de-DE,de;q=0.9,en-DE;q=0.8,en;q=0.7,es-ES;q=0.6,es;q=0.5,en-US;q=0.4","646219bb0b91a6f3327e39fb","683db7602f5db6a34d12d064","686e2a929983191f4d2a7875","1","646219bb0b91a6f3327e39fb","1","2025-07-09T08:48:05.637Z","","","","","","","","","","","StressQ","","50","","","","","","","","","","","","","","","","","","","","","","","","","","","","",""
"2395","","<div style=""width:500px;"">
  <p>What best describes how you currently feel?</p>
  </div>","38","html-slider-response","58","559227","0.0-5.0-4.9","4","1","2025-07-09 08:38:47","01610cd0009c79a99da7d0a3353eb402","94.134.108.166","Mozilla/5.0 (Windows NT 10.0; Win64; x64) AppleWebKit/537.36 (KHTML, like Gecko) Chrome/138.0.0.0 Safari/537.36","WebKit","Chrome","138.0.0.0","Windows","10.0","https://app.prolific.com/","de-DE,de;q=0.9,en-DE;q=0.8,en;q=0.7,es-ES;q=0.6,es;q=0.5,en-US;q=0.4","646219bb0b91a6f3327e39fb","683db7602f5db6a34d12d064","686e2a929983191f4d2a7875","1","646219bb0b91a6f3327e39fb","1","2025-07-09T08:48:08.035Z","","","","","","","","","","","MotivationQ","","50","","","","","","","","","","","","","","","","","","","","","","","","","","","","",""
"","","","","ctl-task-cpt","59","614964","0.0-5.0-0.10","4","1","2025-07-09 08:38:47","01610cd0009c79a99da7d0a3353eb402","94.134.108.166","Mozilla/5.0 (Windows NT 10.0; Win64; x64) AppleWebKit/537.36 (KHTML, like Gecko) Chrome/138.0.0.0 Safari/537.36","WebKit","Chrome","138.0.0.0","Windows","10.0","https://app.prolific.com/","de-DE,de;q=0.9,en-DE;q=0.8,en;q=0.7,es-ES;q=0.6,es;q=0.5,en-US;q=0.4","646219bb0b91a6f3327e39fb","683db7602f5db6a34d12d064","686e2a929983191f4d2a7875","1","646219bb0b91a6f3327e39fb","1","2025-07-09T08:49:03.772Z","","","","","","","","","","","","","","win-only","3","g1:SW,g2:NE","0.5","11","0","561845.8","913.4","5915.7","52714.4","1","4","8","6","1","-1","-2","19","21","0.14393939393939395","2733.3","3000","-2510","[""down"",""left""]","{""num_key_presses"":13,""num_perfect"":6,""num_errors"":1,""num_randdir"":6,""num_randdir_good_moves"":1,""num_whilered"":0,""num_whileblue"":0,""num_blue"":3,""num_good_moves"":7}","[560.4285714285714,556.3348214285714,0.2,561.4285714285714,556.3348214285714,102.2,560.4285714285714,556.3348214285714,204.7,560.4285714285714,556.3348214285714,310,529.4285714285714,573.3348214285714,413.8,526.4285714285714,593.3348214285714,516.8,703.4285714285714,486.33482142857144,618.4,843.4285714285714,336.33482142857144,719.1,872.4285714285714,295.33482142857144,821.9,814.4285714285714,295.33482142857144,925.1,612.4285714285714,465.33482142857144,1030.1,405.42857142857144,713.3348214285714,1130.5,377.42857142857144,816.3348214285714,1232.8,351.42857142857144,841.3348214285714,1333.3,193.42857142857144,984.3348214285714,1441,120.42857142857143,1028.3348214285713,1544.4,109.42857142857143,1030.3348214285713,1644.4,109.42857142857143,1030.3348214285713,1745.3,109.42857142857143,1030.3348214285713,1848.6,165.42857142857144,991.3348214285714,1949,718.4285714285714,451.33482142857144,2053.3,921.4285714285714,199.33482142857144,2153.8,931.4285714285714,170.33482142857144,2260.5,891.4285714285714,193.33482142857144,2364.4,161.42857142857144,827.3348214285714,2467.3,101.42857142857143,968.3348214285714,2569.4,161.42857142857144,927.3348214285714,2673.8,159.42857142857144,935.3348214285714,2781.6,149.42857142857144,947.3348214285714,2883.3,148.42857142857144,948.3348214285714,2983.5,166.42857142857144,948.3348214285714,3089.4,654.4285714285714,1012.3348214285714,3189.6,1366.4285714285713,1119.3348214285713,3297.3,1388.4285714285713,1119.3348214285713,3398,1388.4285714285713,1119.3348214285713,3499.4,1388.4285714285713,1119.3348214285713,3603.4,1388.4285714285713,1119.3348214285713,3703.7,1388.4285714285713,1119.3348214285713,3803.7,1388.4285714285713,1119.3348214285713,3908.9,1388.4285714285713,1119.3348214285713,4012,1388.4285714285713,1119.3348214285713,4113.7,1388.4285714285713,1119.3348214285713,4214.2,1388.4285714285713,1119.3348214285713,4318.1,1388.4285714285713,1119.3348214285713,4419.5,1388.4285714285713,1119.3348214285713,4524.1,1388.4285714285713,1119.3348214285713,4628.3,1388.4285714285713,1119.3348214285713,4733.6,1388.4285714285713,1119.3348214285713,4839.6,1388.4285714285713,1119.3348214285713,4944]","[1283.2,1283.2,1000,0,283.2,""smooth"",""down"",""down"",""good_move"",4706.4,3422.9,3142.6,1283.5,280.3,""smooth"",""left"",""left"",""good_move"",7343.6,2636.9,2349.5,4706.7,287.4,""smooth"",""left"",""left"",""good_move"",9707.3,2363.5,2107.6,7343.9,255.9,""oops"",""down"",""right"",""bad_move"",11996.3,2288.8,1988,9707.5,300.8,""oops"",""down"",""up"",""bad_move"",13486,1489.4,2961.4,11996.6,-1472,""error"",""-"",""-"",""no_move"",16828.6,3342.1,2032.8,14487.6,308.2,""smooth"",""left"",""left"",""good_move"",23083.9,6255,2512.2,20245.9,325.8,""smooth"",""down"",""down"",""good_move"",29923.3,6839.1,2687,26960.2,276.1,""oops"",""down"",""up"",""bad_move"",32411.1,2487.6,2170.2,29923.5,317.4,""oops"",""down"",""up"",""bad_move"",34519.8,2108.5,1846.9,32411.3,261.6,""oops"",""down"",""down"",""good_move"",37082,2561.5,2317.5,34520.5,244,""smooth"",""down"",""down"",""good_move"",44038.6,6956.3,2675.5,41122.7,240.5,""oops"",""down"",""up"",""bad_move""]","",""
"3478","","<div style=""width:500px;"">
  <p>What determined the result of this run?</p>
  </div>","0","html-slider-response","60","618443","0.0-5.0-1.10","4","1","2025-07-09 08:38:47","01610cd0009c79a99da7d0a3353eb402","94.134.108.166","Mozilla/5.0 (Windows NT 10.0; Win64; x64) AppleWebKit/537.36 (KHTML, like Gecko) Chrome/138.0.0.0 Safari/537.36","WebKit","Chrome","138.0.0.0","Windows","10.0","https://app.prolific.com/","de-DE,de;q=0.9,en-DE;q=0.8,en;q=0.7,es-ES;q=0.6,es;q=0.5,en-US;q=0.4","646219bb0b91a6f3327e39fb","683db7602f5db6a34d12d064","686e2a929983191f4d2a7875","1","646219bb0b91a6f3327e39fb","1","2025-07-09T08:49:07.251Z","","","","","","","","","","","AttribQ","","50","","","","","","","","","","","","","","","","","","","","","","","","","","","","",""
"2952","","<div style=""width:500px;"">
  <p>How much control did you have over the ball?</p>
  </div>","4","html-slider-response","61","621397","0.0-5.0-2.10","4","1","2025-07-09 08:38:47","01610cd0009c79a99da7d0a3353eb402","94.134.108.166","Mozilla/5.0 (Windows NT 10.0; Win64; x64) AppleWebKit/537.36 (KHTML, like Gecko) Chrome/138.0.0.0 Safari/537.36","WebKit","Chrome","138.0.0.0","Windows","10.0","https://app.prolific.com/","de-DE,de;q=0.9,en-DE;q=0.8,en;q=0.7,es-ES;q=0.6,es;q=0.5,en-US;q=0.4","646219bb0b91a6f3327e39fb","683db7602f5db6a34d12d064","686e2a929983191f4d2a7875","1","646219bb0b91a6f3327e39fb","1","2025-07-09T08:49:10.206Z","","","","","","","","","","","ControlQ","","50","","","","","","","","","","","","","","","","","","","","","","","","","","","","",""
"2624","","<div style=""width:500px;"">
  <p>How would you describe your current emotional state?</p>
  </div>","100","html-slider-response","62","624025","0.0-5.0-3.10","4","1","2025-07-09 08:38:47","01610cd0009c79a99da7d0a3353eb402","94.134.108.166","Mozilla/5.0 (Windows NT 10.0; Win64; x64) AppleWebKit/537.36 (KHTML, like Gecko) Chrome/138.0.0.0 Safari/537.36","WebKit","Chrome","138.0.0.0","Windows","10.0","https://app.prolific.com/","de-DE,de;q=0.9,en-DE;q=0.8,en;q=0.7,es-ES;q=0.6,es;q=0.5,en-US;q=0.4","646219bb0b91a6f3327e39fb","683db7602f5db6a34d12d064","686e2a929983191f4d2a7875","1","646219bb0b91a6f3327e39fb","1","2025-07-09T08:49:12.833Z","","","","","","","","","","","StressQ","","50","","","","","","","","","","","","","","","","","","","","","","","","","","","","",""
"3440","","<div style=""width:500px;"">
  <p>What best describes how you currently feel?</p>
  </div>","10","html-slider-response","63","627467","0.0-5.0-4.10","4","1","2025-07-09 08:38:47","01610cd0009c79a99da7d0a3353eb402","94.134.108.166","Mozilla/5.0 (Windows NT 10.0; Win64; x64) AppleWebKit/537.36 (KHTML, like Gecko) Chrome/138.0.0.0 Safari/537.36","WebKit","Chrome","138.0.0.0","Windows","10.0","https://app.prolific.com/","de-DE,de;q=0.9,en-DE;q=0.8,en;q=0.7,es-ES;q=0.6,es;q=0.5,en-US;q=0.4","646219bb0b91a6f3327e39fb","683db7602f5db6a34d12d064","686e2a929983191f4d2a7875","1","646219bb0b91a6f3327e39fb","1","2025-07-09T08:49:16.276Z","","","","","","","","","","","MotivationQ","","50","","","","","","","","","","","","","","","","","","","","","","","","","","","","",""
"","","","","ctl-task-cpt","64","671640","0.0-5.0-0.11","4","1","2025-07-09 08:38:47","01610cd0009c79a99da7d0a3353eb402","94.134.108.166","Mozilla/5.0 (Windows NT 10.0; Win64; x64) AppleWebKit/537.36 (KHTML, like Gecko) Chrome/138.0.0.0 Safari/537.36","WebKit","Chrome","138.0.0.0","Windows","10.0","https://app.prolific.com/","de-DE,de;q=0.9,en-DE;q=0.8,en;q=0.7,es-ES;q=0.6,es;q=0.5,en-US;q=0.4","646219bb0b91a6f3327e39fb","683db7602f5db6a34d12d064","686e2a929983191f4d2a7875","1","646219bb0b91a6f3327e39fb","1","2025-07-09T08:50:00.448Z","","","","","","","","","","","","","","win-only","2","g1:SE,g2:NW","0.6","12","0","630085.8","1052.1","6053.6","41150.8","1","4","4","6","2","4","3","22","19","0.16666666666666666","1023.5","3000","460","[""left"",""up""]","{""num_key_presses"":11,""num_perfect"":6,""num_errors"":1,""num_randdir"":4,""num_randdir_good_moves"":2,""num_whilered"":0,""num_whileblue"":0,""num_blue"":2,""num_good_moves"":8}","[545.4285714285714,558.3348214285714,0.2,545.4285714285714,558.3348214285714,100.6,544.4285714285714,558.3348214285714,203.8,544.4285714285714,558.3348214285714,307.3,544.4285714285714,558.3348214285714,410.1,546.4285714285714,569.3348214285714,518.2,374.42857142857144,461.33482142857144,621.4,174.42857142857144,266.33482142857144,724,134.42857142857144,196.33482142857144,830.2,119.42857142857143,162.33482142857144,935.2,116.42857142857143,140.33482142857144,1040.7,116.42857142857143,136.33482142857144,1150.4,131.42857142857144,163.33482142857144,1256.5,413.42857142857144,448.33482142857144,1359.3,831.4285714285714,810.3348214285714,1461.6,1190.4285714285713,910.3348214285714,1563.9,1358.4285714285713,921.3348214285714,1664,1371.4285714285713,924.3348214285714,1765.9,1371.4285714285713,924.3348214285714,1870.9,1371.4285714285713,924.3348214285714,1971,1371.4285714285713,924.3348214285714,2071.2,1371.4285714285713,924.3348214285714,2171.3,1371.4285714285713,924.3348214285714,2273.8,1371.4285714285713,924.3348214285714,2374.5,1371.4285714285713,924.3348214285714,2474.8,1371.4285714285713,924.3348214285714,2580.2,1371.4285714285713,924.3348214285714,2681.5,1371.4285714285713,924.3348214285714,2785.4,1371.4285714285713,924.3348214285714,2885.5,1371.4285714285713,924.3348214285714,2989.8,1371.4285714285713,924.3348214285714,3090.1,1371.4285714285713,924.3348214285714,3195.3,1371.4285714285713,924.3348214285714,3298.8,1371.4285714285713,924.3348214285714,3401.9,1371.4285714285713,924.3348214285714,3504.3,1371.4285714285713,924.3348214285714,3605.8,1371.4285714285713,924.3348214285714,3711.2,1371.4285714285713,924.3348214285714,3814.8,1371.4285714285713,924.3348214285714,3920.6,1371.4285714285713,924.3348214285714,4022.2,1371.4285714285713,924.3348214285714,4124.3,1371.4285714285713,924.3348214285714,4230,1371.4285714285713,924.3348214285714,4336.3,1371.4285714285713,924.3348214285714,4439.1,1371.4285714285713,924.3348214285714,4541.8,1371.4285714285713,924.3348214285714,4651.6,1371.4285714285713,924.3348214285714,4755.9,1371.4285714285713,924.3348214285714,4860.8,1371.4285714285713,924.3348214285714,4969.6]","[1267.5,1267.6,1000,0,267.6,""smooth"",""left"",""left"",""good_move"",4246.3,2978,2705.4,1268.3,272.6,""smooth"",""left"",""left"",""good_move"",7070.4,2823.9,2534.5,4246.5,289.4,""oops"",""up"",""right"",""bad_move"",9732.5,2661.5,2410.7,7071,250.8,""smooth"",""up"",""up"",""good_move"",18120.5,8387.5,1846.7,15990.2,283.6,""oops"",""up"",""down"",""bad_move"",18880.2,759.4,2912.3,18120.8,-2152.9,""error"",""-"",""-"",""no_move"",22646.5,3766.2,2395,19882.5,369.1,""smooth"",""up"",""up"",""good_move"",26182.8,3535.8,3235.2,22647,300.6,""oops"",""up"",""left"",""good_move"",29624.3,3441.3,3106.1,26183,335.2,""smooth"",""up"",""up"",""good_move"",32339.8,2715,2425.1,29624.8,289.9,""oops"",""up"",""up"",""good_move"",34990.1,2650,2364,32340.1,286,""smooth"",""left"",""left"",""good_move""]","",""
"3367","","<div style=""width:500px;"">
  <p>What determined the result of this run?</p>
  </div>","25","html-slider-response","65","675008","0.0-5.0-1.11","4","1","2025-07-09 08:38:47","01610cd0009c79a99da7d0a3353eb402","94.134.108.166","Mozilla/5.0 (Windows NT 10.0; Win64; x64) AppleWebKit/537.36 (KHTML, like Gecko) Chrome/138.0.0.0 Safari/537.36","WebKit","Chrome","138.0.0.0","Windows","10.0","https://app.prolific.com/","de-DE,de;q=0.9,en-DE;q=0.8,en;q=0.7,es-ES;q=0.6,es;q=0.5,en-US;q=0.4","646219bb0b91a6f3327e39fb","683db7602f5db6a34d12d064","686e2a929983191f4d2a7875","1","646219bb0b91a6f3327e39fb","1","2025-07-09T08:50:03.817Z","","","","","","","","","","","AttribQ","","50","","","","","","","","","","","","","","","","","","","","","","","","","","","","",""
"5243","","<div style=""width:500px;"">
  <p>How much control did you have over the ball?</p>
  </div>","25","html-slider-response","66","680254","0.0-5.0-2.11","4","1","2025-07-09 08:38:47","01610cd0009c79a99da7d0a3353eb402","94.134.108.166","Mozilla/5.0 (Windows NT 10.0; Win64; x64) AppleWebKit/537.36 (KHTML, like Gecko) Chrome/138.0.0.0 Safari/537.36","WebKit","Chrome","138.0.0.0","Windows","10.0","https://app.prolific.com/","de-DE,de;q=0.9,en-DE;q=0.8,en;q=0.7,es-ES;q=0.6,es;q=0.5,en-US;q=0.4","646219bb0b91a6f3327e39fb","683db7602f5db6a34d12d064","686e2a929983191f4d2a7875","1","646219bb0b91a6f3327e39fb","1","2025-07-09T08:50:09.062Z","","","","","","","","","","","ControlQ","","50","","","","","","","","","","","","","","","","","","","","","","","","","","","","",""
"4429","","<div style=""width:500px;"">
  <p>How would you describe your current emotional state?</p>
  </div>","89","html-slider-response","67","684686","0.0-5.0-3.11","4","1","2025-07-09 08:38:47","01610cd0009c79a99da7d0a3353eb402","94.134.108.166","Mozilla/5.0 (Windows NT 10.0; Win64; x64) AppleWebKit/537.36 (KHTML, like Gecko) Chrome/138.0.0.0 Safari/537.36","WebKit","Chrome","138.0.0.0","Windows","10.0","https://app.prolific.com/","de-DE,de;q=0.9,en-DE;q=0.8,en;q=0.7,es-ES;q=0.6,es;q=0.5,en-US;q=0.4","646219bb0b91a6f3327e39fb","683db7602f5db6a34d12d064","686e2a929983191f4d2a7875","1","646219bb0b91a6f3327e39fb","1","2025-07-09T08:50:13.494Z","","","","","","","","","","","StressQ","","50","","","","","","","","","","","","","","","","","","","","","","","","","","","","",""
"2382","","<div style=""width:500px;"">
  <p>What best describes how you currently feel?</p>
  </div>","8","html-slider-response","68","687071","0.0-5.0-4.11","4","1","2025-07-09 08:38:47","01610cd0009c79a99da7d0a3353eb402","94.134.108.166","Mozilla/5.0 (Windows NT 10.0; Win64; x64) AppleWebKit/537.36 (KHTML, like Gecko) Chrome/138.0.0.0 Safari/537.36","WebKit","Chrome","138.0.0.0","Windows","10.0","https://app.prolific.com/","de-DE,de;q=0.9,en-DE;q=0.8,en;q=0.7,es-ES;q=0.6,es;q=0.5,en-US;q=0.4","646219bb0b91a6f3327e39fb","683db7602f5db6a34d12d064","686e2a929983191f4d2a7875","1","646219bb0b91a6f3327e39fb","1","2025-07-09T08:50:15.879Z","","","","","","","","","","","MotivationQ","","50","","","","","","","","","","","","","","","","","","","","","","","","","","","","",""
"","","","","ctl-task-cpt","69","722088","0.0-5.0-0.12","4","1","2025-07-09 08:38:47","01610cd0009c79a99da7d0a3353eb402","94.134.108.166","Mozilla/5.0 (Windows NT 10.0; Win64; x64) AppleWebKit/537.36 (KHTML, like Gecko) Chrome/138.0.0.0 Safari/537.36","WebKit","Chrome","138.0.0.0","Windows","10.0","https://app.prolific.com/","de-DE,de;q=0.9,en-DE;q=0.8,en;q=0.7,es-ES;q=0.6,es;q=0.5,en-US;q=0.4","646219bb0b91a6f3327e39fb","683db7602f5db6a34d12d064","686e2a929983191f4d2a7875","1","646219bb0b91a6f3327e39fb","1","2025-07-09T08:50:50.896Z","","","","","","","","","","","","","","win-only","3","g1:SW,g2:NE","0.7","13","0","689689.3","1074.4","6075.8","31996.6","1","4","4","6","1","1","1","23","22","0.17424242424242425","1613.8","3000","1065","[""down"",""left""]","{""num_key_presses"":8,""num_perfect"":6,""num_errors"":0,""num_randdir"":2,""num_randdir_good_moves"":0,""num_whilered"":0,""num_whileblue"":0,""num_blue"":1,""num_good_moves"":6}","[554.4285714285714,553.3348214285714,0.3,554.4285714285714,553.3348214285714,109,554.4285714285714,553.3348214285714,212.2,554.4285714285714,553.3348214285714,316.9,547.4285714285714,561.3348214285714,417.4,536.4285714285714,572.3348214285714,522.2,536.4285714285714,573.3348214285714,629.2,530.4285714285714,581.3348214285714,730.8,511.42857142857144,596.3348214285714,831.2,502.42857142857144,602.3348214285714,931.2,501.42857142857144,602.3348214285714,1032.8,481.42857142857144,605.3348214285714,1143.7,409.42857142857144,710.3348214285714,1248.6,260.42857142857144,877.3348214285714,1351.2,181.42857142857144,912.3348214285714,1452.5,106.42857142857143,1018.3348214285714,1561,101.42857142857143,1026.3348214285713,1663.1,102.42857142857143,1024.3348214285713,1765.4,199.42857142857144,1020.3348214285714,1868.6,580.4285714285714,1083.3348214285713,1971.7,831.4285714285714,1075.3348214285713,2080.3,895.4285714285714,1030.3348214285713,2180.3,895.4285714285714,1030.3348214285713,2281.3,895.4285714285714,1030.3348214285713,2387.8,895.4285714285714,1030.3348214285713,2489.4,895.4285714285714,1030.3348214285713,2597,895.4285714285714,1030.3348214285713,2702.2,895.4285714285714,1030.3348214285713,2808.7,895.4285714285714,1030.3348214285713,2912.3,895.4285714285714,1030.3348214285713,3012.8,895.4285714285714,1030.3348214285713,3116.9,895.4285714285714,1030.3348214285713,3218,895.4285714285714,1030.3348214285713,3322,895.4285714285714,1030.3348214285713,3428.2,895.4285714285714,1030.3348214285713,3531.5,895.4285714285714,1030.3348214285713,3635.9,895.4285714285714,1030.3348214285713,3745.4,895.4285714285714,1030.3348214285713,3846.5,895.4285714285714,1030.3348214285713,3946.5,895.4285714285714,1030.3348214285713,4049.8,895.4285714285714,1030.3348214285713,4160.6,895.4285714285714,1030.3348214285713,4262.4,895.4285714285714,1030.3348214285713,4363.3,895.4285714285714,1030.3348214285713,4465.8,895.4285714285714,1030.3348214285713,4566,895.4285714285714,1030.3348214285713,4666.6,895.4285714285714,1030.3348214285713,4775.1,895.4285714285714,1030.3348214285713,4876.9,895.4285714285714,1030.3348214285713,4977.7]","[1265.7,1265.7,1000,0,265.7,""oops"",""down"",""right"",""bad_move"",8622.9,7356.9,3181.7,5120.8,320.4,""smooth"",""down"",""down"",""good_move"",11395.2,2771.7,2468.3,8623.5,303.4,""smooth"",""left"",""left"",""good_move"",14095.3,2699.8,2357.9,11395.5,341.9,""smooth"",""left"",""left"",""good_move"",17073.2,2977.7,2679.5,14095.6,298.2,""oops"",""left"",""right"",""bad_move"",19502.8,2429.2,2102.9,17073.6,326.3,""smooth"",""down"",""down"",""good_move"",22783.8,3280.5,2980.1,19503.3,300.4,""smooth"",""left"",""left"",""good_move"",25816.4,3032.4,2771.4,22784,261,""smooth"",""left"",""left"",""good_move""]","",""
"4630","","<div style=""width:500px;"">
  <p>What determined the result of this run?</p>
  </div>","36","html-slider-response","70","726719","0.0-5.0-1.12","4","1","2025-07-09 08:38:47","01610cd0009c79a99da7d0a3353eb402","94.134.108.166","Mozilla/5.0 (Windows NT 10.0; Win64; x64) AppleWebKit/537.36 (KHTML, like Gecko) Chrome/138.0.0.0 Safari/537.36","WebKit","Chrome","138.0.0.0","Windows","10.0","https://app.prolific.com/","de-DE,de;q=0.9,en-DE;q=0.8,en;q=0.7,es-ES;q=0.6,es;q=0.5,en-US;q=0.4","646219bb0b91a6f3327e39fb","683db7602f5db6a34d12d064","686e2a929983191f4d2a7875","1","646219bb0b91a6f3327e39fb","1","2025-07-09T08:50:55.527Z","","","","","","","","","","","AttribQ","","50","","","","","","","","","","","","","","","","","","","","","","","","","","","","",""
"4215","","<div style=""width:500px;"">
  <p>How much control did you have over the ball?</p>
  </div>","36","html-slider-response","71","730937","0.0-5.0-2.12","4","1","2025-07-09 08:38:47","01610cd0009c79a99da7d0a3353eb402","94.134.108.166","Mozilla/5.0 (Windows NT 10.0; Win64; x64) AppleWebKit/537.36 (KHTML, like Gecko) Chrome/138.0.0.0 Safari/537.36","WebKit","Chrome","138.0.0.0","Windows","10.0","https://app.prolific.com/","de-DE,de;q=0.9,en-DE;q=0.8,en;q=0.7,es-ES;q=0.6,es;q=0.5,en-US;q=0.4","646219bb0b91a6f3327e39fb","683db7602f5db6a34d12d064","686e2a929983191f4d2a7875","1","646219bb0b91a6f3327e39fb","1","2025-07-09T08:50:59.745Z","","","","","","","","","","","ControlQ","","50","","","","","","","","","","","","","","","","","","","","","","","","","","","","",""
"3407","","<div style=""width:500px;"">
  <p>How would you describe your current emotional state?</p>
  </div>","84","html-slider-response","72","734348","0.0-5.0-3.12","4","1","2025-07-09 08:38:47","01610cd0009c79a99da7d0a3353eb402","94.134.108.166","Mozilla/5.0 (Windows NT 10.0; Win64; x64) AppleWebKit/537.36 (KHTML, like Gecko) Chrome/138.0.0.0 Safari/537.36","WebKit","Chrome","138.0.0.0","Windows","10.0","https://app.prolific.com/","de-DE,de;q=0.9,en-DE;q=0.8,en;q=0.7,es-ES;q=0.6,es;q=0.5,en-US;q=0.4","646219bb0b91a6f3327e39fb","683db7602f5db6a34d12d064","686e2a929983191f4d2a7875","1","646219bb0b91a6f3327e39fb","1","2025-07-09T08:51:03.156Z","","","","","","","","","","","StressQ","","50","","","","","","","","","","","","","","","","","","","","","","","","","","","","",""
"2550","","<div style=""width:500px;"">
  <p>What best describes how you currently feel?</p>
  </div>","8","html-slider-response","73","736902","0.0-5.0-4.12","4","1","2025-07-09 08:38:47","01610cd0009c79a99da7d0a3353eb402","94.134.108.166","Mozilla/5.0 (Windows NT 10.0; Win64; x64) AppleWebKit/537.36 (KHTML, like Gecko) Chrome/138.0.0.0 Safari/537.36","WebKit","Chrome","138.0.0.0","Windows","10.0","https://app.prolific.com/","de-DE,de;q=0.9,en-DE;q=0.8,en;q=0.7,es-ES;q=0.6,es;q=0.5,en-US;q=0.4","646219bb0b91a6f3327e39fb","683db7602f5db6a34d12d064","686e2a929983191f4d2a7875","1","646219bb0b91a6f3327e39fb","1","2025-07-09T08:51:05.710Z","","","","","","","","","","","MotivationQ","","50","","","","","","","","","","","","","","","","","","","","","","","","","","","","",""
