"rt","response_timestamp","stimulus","response","trial_type","trial_index","time_elapsed","internal_node_id","run_id","condition","recorded_at","source_code_version","ip","user_agent","device","browser","browser_version","platform","platform_version","referer","accept_language","PROLIFIC_PID","STUDY_ID","SESSION_ID","WEEK","BATCH","prolific_id","week","batch","realtime","success","responses","item_order","radio_event_ids","radio_event_times","key_event_times","mouse_event_times","straightlining","zigzagging","honeypot","eventType","view_history","slider_start","which_type","canvas_config","goals_layout","control_level","trial_number","tutorial_trial_number","trial_start_time","phase1_start_time","phase2_start_time","phase3_start_time","goal_1_value","goal_1_distance","goal_2_value","goal_2_distance","goal_selected","outcome","outcome_total","participant_final_score","participant_initial_score","participant_final_score_prop","goal_choice_rt","allocated_time","allocated_time_remaining","goal_direction","counts","mouse_movements","key_presses","question_order","question_id"
"8288","1752737974665","<p style='font-size:40px;line-height:1.25'><strong>Welcome to the experiment!</strong></p><p style='font-size:1.1em;line-height:1.25'>Thank you for participanting in our experiment again! You will be asked to play the Dysfunctional Ball Game again. We will briefly recap the rules before we start.</p><p style='font-size:1.1em;line-height:1.25'>Press <strong>Next</strong> to continue.</p>","0","custom-html-button-response","0","8293","0.0-0.0","129","1","2025-07-17 07:39:24","1f75c3e559b7213887762d5229550c2b","37.6.6.6","Mozilla/5.0 (Windows NT 10.0; Win64; x64; rv:140.0) Gecko/20100101 Firefox/140.0","","Firefox","140.0","Windows","10.0","https://app.prolific.com/","en-US,en;q=0.5","56e4b2e044b184000b894159","686e379bc37a29ffa5cdc956","6878a899119320ff35061966","1","1","56e4b2e044b184000b894159","1","1","2025-07-17T07:39:34.665Z","","","","","","","","","","","","","","","","","","","","","","","","","","","","","","","","","","","","","","","","","",""
"7402","","","","fullscreen","1","16712","0.0-1.0","129","1","2025-07-17 07:39:24","1f75c3e559b7213887762d5229550c2b","37.6.6.6","Mozilla/5.0 (Windows NT 10.0; Win64; x64; rv:140.0) Gecko/20100101 Firefox/140.0","","Firefox","140.0","Windows","10.0","https://app.prolific.com/","en-US,en;q=0.5","56e4b2e044b184000b894159","686e379bc37a29ffa5cdc956","6878a899119320ff35061966","1","1","56e4b2e044b184000b894159","1","1","","true","","","","","","","","","","","","","","","","","","","","","","","","","","","","","","","","","","","","","","","","",""
"6520","1752737989608","<p style='font-size:1.1em;line-height:1.25'>In the following, we will ask you a few questions relating to your feelings in the last 24 hours.<br></p><p style='font-size:1.1em;line-height:1.25'>Press the <strong>Next</strong> button to continue.</p>","0","custom-html-button-response","2","23236","0.0-2.0-0.0","129","1","2025-07-17 07:39:24","1f75c3e559b7213887762d5229550c2b","37.6.6.6","Mozilla/5.0 (Windows NT 10.0; Win64; x64; rv:140.0) Gecko/20100101 Firefox/140.0","","Firefox","140.0","Windows","10.0","https://app.prolific.com/","en-US,en;q=0.5","56e4b2e044b184000b894159","686e379bc37a29ffa5cdc956","6878a899119320ff35061966","1","1","56e4b2e044b184000b894159","1","1","2025-07-17T07:39:49.608Z","","","","","","","","","","","","","","","","","","","","","","","","","","","","","","","","","","","","","","","","","",""
"105096","","","","survey-template","3","128337","0.0-2.0-1.0","129","1","2025-07-17 07:39:24","1f75c3e559b7213887762d5229550c2b","37.6.6.6","Mozilla/5.0 (Windows NT 10.0; Win64; x64; rv:140.0) Gecko/20100101 Firefox/140.0","","Firefox","140.0","Windows","10.0","https://app.prolific.com/","en-US,en;q=0.5","56e4b2e044b184000b894159","686e379bc37a29ffa5cdc956","6878a899119320ff35061966","1","1","56e4b2e044b184000b894159","1","1","2025-07-17T07:41:34.709Z","","{""Q01"":""1"",""Q02"":""0"",""Q03"":""0"",""Q04"":""1"",""Q05"":""1"",""Q06"":""1"",""Q07"":""1"",""Q08"":""0"",""Q09"":""2"",""Q10"":""0"",""Q11"":""2"",""Q12"":""3"",""Q13"":""5"",""Q14"":""3"",""Q15"":""0"",""Q16"":""3"",""Q17"":""0"",""Q18"":""0"",""Q19"":""3"",""Q20"":""0"",""Q21"":""1"",""Q22"":""0""}","[0,1,2,3,4,5,6,7,8,9,10,11,12,13,14,15,16,17,18,19,20,21]","[""Q01"",""Q02"",""Q03"",""Q04"",""Q05"",""Q06"",""Q07"",""Q08"",""Q09"",""Q10"",""Q11"",""Q12"",""Q13"",""Q14"",""Q15"",""Q16"",""Q17"",""Q18"",""Q19"",""Q20"",""Q21"",""Q22""]","[5551,7705,9237,11267,14322,16839,20812,22936,32799,35243,39592,42908,47797,51787,54457,61214,65558,70953,78209,94832,98111,103595]","[]","[0,5551,7705,9237,11267,14322,16839,20812,22936,32799,34684,35243,39592,42908,47797,51787,54457,61214,65017,65558,70953,78209,94832,98111,103043,103595,105094]","0.4090909090909091","0.2857142857142857","0","drsp","","","","","","","","","","","","","","","","","","","","","","","","","","","","","","",""
"25007","","","","survey-template","4","153347","0.0-2.0-2.0","129","1","2025-07-17 07:39:24","1f75c3e559b7213887762d5229550c2b","37.6.6.6","Mozilla/5.0 (Windows NT 10.0; Win64; x64; rv:140.0) Gecko/20100101 Firefox/140.0","","Firefox","140.0","Windows","10.0","https://app.prolific.com/","en-US,en;q=0.5","56e4b2e044b184000b894159","686e379bc37a29ffa5cdc956","6878a899119320ff35061966","1","1","56e4b2e044b184000b894159","1","1","2025-07-17T07:41:59.719Z","","{""Q01"":""2"",""Q02"":""2"",""Q03"":""0""}","[0,1,2]","[""Q01"",""Q02"",""Q03""]","[10842,16710,22484]","[]","[10842,16037,16710,22484,25006]","0.3333333333333333","0.5","0","stress","","","","","","","","","","","","","","","","","","","","","","","","","","","","","","",""
"32361","","","","instructions","5","185710","0.0-3.0-0.0","129","1","2025-07-17 07:39:24","1f75c3e559b7213887762d5229550c2b","37.6.6.6","Mozilla/5.0 (Windows NT 10.0; Win64; x64; rv:140.0) Gecko/20100101 Firefox/140.0","","Firefox","140.0","Windows","10.0","https://app.prolific.com/","en-US,en;q=0.5","56e4b2e044b184000b894159","686e379bc37a29ffa5cdc956","6878a899119320ff35061966","1","1","56e4b2e044b184000b894159","1","1","","","","","","","","","","","","","[{""page_index"":0,""viewing_time"":32361}]","","","","","","","","","","","","","","","","","","","","","","","","","","","","","",""
"19489","","<p>Before you start with this game please answer the following three questions yourself. </p>
  <p>Through this game, we measure several aspects of your cognitive performance, such as reaction times, multi-tasking capabilities </p>
  <p>and the ability to assess the situation you are in.</p>
  <p></p>
  <p><b>How good do you usually are in such tasks?</b></p>","88","html-slider-response","6","205200","0.0-4.0-0.0","129","1","2025-07-17 07:39:24","1f75c3e559b7213887762d5229550c2b","37.6.6.6","Mozilla/5.0 (Windows NT 10.0; Win64; x64; rv:140.0) Gecko/20100101 Firefox/140.0","","Firefox","140.0","Windows","10.0","https://app.prolific.com/","en-US,en;q=0.5","56e4b2e044b184000b894159","686e379bc37a29ffa5cdc956","6878a899119320ff35061966","1","1","56e4b2e044b184000b894159","1","1","2025-07-17T07:42:51.572Z","","","","","","","","","","","PreSkillQ","","50","","","","","","","","","","","","","","","","","","","","","","","","","","","","",""
"7760","","<div style=""width:500px;"">
  <p>How well do you think you will perform in this task compared to other participants?</p>
  </div>","61","html-slider-response","7","212962","0.0-4.0-1.0","129","1","2025-07-17 07:39:24","1f75c3e559b7213887762d5229550c2b","37.6.6.6","Mozilla/5.0 (Windows NT 10.0; Win64; x64; rv:140.0) Gecko/20100101 Firefox/140.0","","Firefox","140.0","Windows","10.0","https://app.prolific.com/","en-US,en;q=0.5","56e4b2e044b184000b894159","686e379bc37a29ffa5cdc956","6878a899119320ff35061966","1","1","56e4b2e044b184000b894159","1","1","2025-07-17T07:42:59.334Z","","","","","","","","","","","PrePerfQ","","50","","","","","","","","","","","","","","","","","","","","","","","","","","","","",""
"19088","","<div style=""width:500px;"">
  <p>What best describes how you currently feel?</p>
  </div>","76","html-slider-response","8","232051","0.0-4.0-2.0","129","1","2025-07-17 07:39:24","1f75c3e559b7213887762d5229550c2b","37.6.6.6","Mozilla/5.0 (Windows NT 10.0; Win64; x64; rv:140.0) Gecko/20100101 Firefox/140.0","","Firefox","140.0","Windows","10.0","https://app.prolific.com/","en-US,en;q=0.5","56e4b2e044b184000b894159","686e379bc37a29ffa5cdc956","6878a899119320ff35061966","1","1","56e4b2e044b184000b894159","1","1","2025-07-17T07:43:18.423Z","","","","","","","","","","","PreMotivationQ","","50","","","","","","","","","","","","","","","","","","","","","","","","","","","","",""
"","","","","ctl-task-cpt","9","261229","0.0-5.0-0.0","129","1","2025-07-17 07:39:24","1f75c3e559b7213887762d5229550c2b","37.6.6.6","Mozilla/5.0 (Windows NT 10.0; Win64; x64; rv:140.0) Gecko/20100101 Firefox/140.0","","Firefox","140.0","Windows","10.0","https://app.prolific.com/","en-US,en;q=0.5","56e4b2e044b184000b894159","686e379bc37a29ffa5cdc956","6878a899119320ff35061966","1","1","56e4b2e044b184000b894159","1","1","2025-07-17T07:43:47.601Z","","","","","","","","","","","","","","win-only","1","g1:NE,g2:SW","1","1","0","234523","3641","8643","26167","1","4","4","6","2","4","4","4","0","0.030303030303030304","1230","3000","2130","[""down"",""left""]","{""num_key_presses"":6,""num_perfect"":6,""num_errors"":0,""num_randdir"":0,""num_randdir_good_moves"":0,""num_whilered"":0,""num_whileblue"":0,""num_blue"":0,""num_good_moves"":6}","[415.3214133126395,423.8214362008231,0,415.3214133126395,423.8214362008231,109,415.3214133126395,423.8214362008231,217,415.3214133126395,423.8214362008231,325,415.3214133126395,423.8214362008231,434,415.3214133126395,423.8214362008231,543,415.3214133126395,423.8214362008231,651,326.5714133126395,507.5714362008231,760,159.0714133126395,666.3214362008231,868,147.8214133126395,682.5714362008231,977,132.8214133126395,707.5714362008231,1085,87.8214133126395,765.0714362008231,1195,85.3214133126395,770.0714362008231,1303,91.5714133126395,758.8214362008231,1411,106.5714133126395,746.3214362008231,1520,127.8214133126395,733.8214362008231,1631,156.5714133126395,721.3214362008231,1741,219.0714133126395,690.0714362008231,1851,325.3214133126395,617.5714362008231,1962,359.0714133126395,602.5714362008231,2072,384.0714133126395,588.8214362008231,2178,389.0714133126395,588.8214362008231,2284,416.5714133126395,578.8214362008231,2393,446.5714133126395,570.0714362008231,2502,446.5714133126395,570.0714362008231,2609,446.5714133126395,570.0714362008231,2718,446.5714133126395,570.0714362008231,2827,446.5714133126395,570.0714362008231,2935,446.5714133126395,570.0714362008231,3045,446.5714133126395,570.0714362008231,3153,446.5714133126395,570.0714362008231,3276,446.5714133126395,570.0714362008231,3386,446.5714133126395,570.0714362008231,3498,446.5714133126395,570.0714362008231,3612,446.5714133126395,570.0714362008231,3724,446.5714133126395,570.0714362008231,3835,446.5714133126395,570.0714362008231,3948,446.5714133126395,570.0714362008231,4060,446.5714133126395,570.0714362008231,4171,446.5714133126395,570.0714362008231,4283,446.5714133126395,570.0714362008231,4396,446.5714133126395,570.0714362008231,4505,446.5714133126395,570.0714362008231,4618,446.5714133126395,570.0714362008231,4730,446.5714133126395,570.0714362008231,4843,446.5714133126395,570.0714362008231,4953]","[1572,1572,1000,0,572,""smooth"",""left"",""left"",""good_move"",4774,3202,2551.1,1572,650.9,""smooth"",""left"",""left"",""good_move"",8757,3983,3566.3,4774,416.7,""smooth"",""left"",""left"",""good_move"",11876,3119,2346.7,8757,772.3,""smooth"",""down"",""down"",""good_move"",14514,2638,2225.8,11876,412.2,""smooth"",""down"",""down"",""good_move"",17229,2715,2259.3,14514,455.7,""smooth"",""down"",""down"",""good_move""]","",""
"15868","","<div style=""width:500px;"">
  <p>What determined the result of this run?</p>
  </div>","69","html-slider-response","10","277097","0.0-5.0-1.0","129","1","2025-07-17 07:39:24","1f75c3e559b7213887762d5229550c2b","37.6.6.6","Mozilla/5.0 (Windows NT 10.0; Win64; x64; rv:140.0) Gecko/20100101 Firefox/140.0","","Firefox","140.0","Windows","10.0","https://app.prolific.com/","en-US,en;q=0.5","56e4b2e044b184000b894159","686e379bc37a29ffa5cdc956","6878a899119320ff35061966","1","1","56e4b2e044b184000b894159","1","1","2025-07-17T07:44:03.469Z","","","","","","","","","","","AttribQ","","50","","","","","","","","","","","","","","","","","","","","","","","","","","","","",""
"4769","","<div style=""width:500px;"">
  <p>How much control did you have over the ball?</p>
  </div>","100","html-slider-response","11","281868","0.0-5.0-2.0","129","1","2025-07-17 07:39:24","1f75c3e559b7213887762d5229550c2b","37.6.6.6","Mozilla/5.0 (Windows NT 10.0; Win64; x64; rv:140.0) Gecko/20100101 Firefox/140.0","","Firefox","140.0","Windows","10.0","https://app.prolific.com/","en-US,en;q=0.5","56e4b2e044b184000b894159","686e379bc37a29ffa5cdc956","6878a899119320ff35061966","1","1","56e4b2e044b184000b894159","1","1","2025-07-17T07:44:08.240Z","","","","","","","","","","","ControlQ","","50","","","","","","","","","","","","","","","","","","","","","","","","","","","","",""
"9240","","<div style=""width:500px;"">
  <p>How would you describe your current emotional state?</p>
  </div>","2","html-slider-response","12","291109","0.0-5.0-3.0","129","1","2025-07-17 07:39:24","1f75c3e559b7213887762d5229550c2b","37.6.6.6","Mozilla/5.0 (Windows NT 10.0; Win64; x64; rv:140.0) Gecko/20100101 Firefox/140.0","","Firefox","140.0","Windows","10.0","https://app.prolific.com/","en-US,en;q=0.5","56e4b2e044b184000b894159","686e379bc37a29ffa5cdc956","6878a899119320ff35061966","1","1","56e4b2e044b184000b894159","1","1","2025-07-17T07:44:17.481Z","","","","","","","","","","","StressQ","","50","","","","","","","","","","","","","","","","","","","","","","","","","","","","",""
"11603","","<div style=""width:500px;"">
  <p>What best describes how you currently feel?</p>
  </div>","91","html-slider-response","13","302712","0.0-5.0-4.0","129","1","2025-07-17 07:39:24","1f75c3e559b7213887762d5229550c2b","37.6.6.6","Mozilla/5.0 (Windows NT 10.0; Win64; x64; rv:140.0) Gecko/20100101 Firefox/140.0","","Firefox","140.0","Windows","10.0","https://app.prolific.com/","en-US,en;q=0.5","56e4b2e044b184000b894159","686e379bc37a29ffa5cdc956","6878a899119320ff35061966","1","1","56e4b2e044b184000b894159","1","1","2025-07-17T07:44:29.084Z","","","","","","","","","","","MotivationQ","","50","","","","","","","","","","","","","","","","","","","","","","","","","","","","",""
"","","","","ctl-task-cpt","14","350522","0.0-5.0-0.1","129","1","2025-07-17 07:39:24","1f75c3e559b7213887762d5229550c2b","37.6.6.6","Mozilla/5.0 (Windows NT 10.0; Win64; x64; rv:140.0) Gecko/20100101 Firefox/140.0","","Firefox","140.0","Windows","10.0","https://app.prolific.com/","en-US,en;q=0.5","56e4b2e044b184000b894159","686e379bc37a29ffa5cdc956","6878a899119320ff35061966","1","1","56e4b2e044b184000b894159","1","1","2025-07-17T07:45:16.894Z","","","","","","","","","","","","","","win-only","2","g1:SE,g2:NW","0.9","2","0","305184","1522","6528","44805","1","4","8","6","2","8","8","12","4","0.09090909090909091","868","3000","2145","[""left"",""up""]","{""num_key_presses"":6,""num_perfect"":6,""num_errors"":0,""num_randdir"":0,""num_randdir_good_moves"":0,""num_whilered"":0,""num_whileblue"":0,""num_blue"":6,""num_good_moves"":6}","[414.0714133126395,413.8214362008231,0,414.0714133126395,413.8214362008231,103,414.0714133126395,413.8214362008231,211,414.0714133126395,413.8214362008231,320,404.0714133126395,408.8214362008231,429,241.5714133126395,291.3214362008231,538,162.8214133126395,180.0714362008231,645,101.5714133126395,113.8214362008231,749,89.0714133126395,97.5714362008231,860,89.0714133126395,97.5714362008231,973,96.5714133126395,102.5714362008231,1084,344.0714133126395,176.3214362008231,1196,917.8214133126395,257.5714362008231,1307,1375.3214133126396,352.5714362008231,1418,1375.3214133126396,308.8214362008231,1529,1375.3214133126396,308.8214362008231,1640,1375.3214133126396,308.8214362008231,1751,1375.3214133126396,308.8214362008231,1863,1375.3214133126396,308.8214362008231,1975,1375.3214133126396,308.8214362008231,2085,1375.3214133126396,308.8214362008231,2196,1375.3214133126396,308.8214362008231,2309,1375.3214133126396,308.8214362008231,2420,1375.3214133126396,308.8214362008231,2531,1375.3214133126396,308.8214362008231,2642,1375.3214133126396,308.8214362008231,2754,1375.3214133126396,308.8214362008231,2862,1375.3214133126396,308.8214362008231,2971,1375.3214133126396,308.8214362008231,3078,1375.3214133126396,308.8214362008231,3187,1375.3214133126396,308.8214362008231,3296,1375.3214133126396,308.8214362008231,3406,1375.3214133126396,308.8214362008231,3514,1375.3214133126396,308.8214362008231,3622,1375.3214133126396,308.8214362008231,3730,1375.3214133126396,308.8214362008231,3838,1375.3214133126396,308.8214362008231,3946,1375.3214133126396,308.8214362008231,4054,1375.3214133126396,308.8214362008231,4164,1375.3214133126396,308.8214362008231,4276,1375.3214133126396,308.8214362008231,4385,1375.3214133126396,308.8214362008231,4493,1375.3214133126396,308.8214362008231,4600,1375.3214133126396,308.8214362008231,4710,1375.3214133126396,308.8214362008231,4814,1375.3214133126396,308.8214362008231,4926]","[4382,4382,1926.1,2016,439.9,""smooth"",""left"",""left"",""good_move"",11088,6706,2592.8,8037,458.2,""smooth"",""left"",""left"",""good_move"",14356,3267,2775.4,11089,491.6,""smooth"",""left"",""left"",""good_move"",21256,6900,2776,18032,448,""smooth"",""up"",""up"",""good_move"",27332,6076,1945.5,24909,477.5,""smooth"",""up"",""up"",""good_move"",38003,10671,2864.4,34677,461.6,""smooth"",""up"",""up"",""good_move""]","",""
"6634","","<div style=""width:500px;"">
  <p>What determined the result of this run?</p>
  </div>","72","html-slider-response","15","357157","0.0-5.0-1.1","129","1","2025-07-17 07:39:24","1f75c3e559b7213887762d5229550c2b","37.6.6.6","Mozilla/5.0 (Windows NT 10.0; Win64; x64; rv:140.0) Gecko/20100101 Firefox/140.0","","Firefox","140.0","Windows","10.0","https://app.prolific.com/","en-US,en;q=0.5","56e4b2e044b184000b894159","686e379bc37a29ffa5cdc956","6878a899119320ff35061966","1","1","56e4b2e044b184000b894159","1","1","2025-07-17T07:45:23.529Z","","","","","","","","","","","AttribQ","","50","","","","","","","","","","","","","","","","","","","","","","","","","","","","",""
"3727","","<div style=""width:500px;"">
  <p>How much control did you have over the ball?</p>
  </div>","100","html-slider-response","16","360886","0.0-5.0-2.1","129","1","2025-07-17 07:39:24","1f75c3e559b7213887762d5229550c2b","37.6.6.6","Mozilla/5.0 (Windows NT 10.0; Win64; x64; rv:140.0) Gecko/20100101 Firefox/140.0","","Firefox","140.0","Windows","10.0","https://app.prolific.com/","en-US,en;q=0.5","56e4b2e044b184000b894159","686e379bc37a29ffa5cdc956","6878a899119320ff35061966","1","1","56e4b2e044b184000b894159","1","1","2025-07-17T07:45:27.258Z","","","","","","","","","","","ControlQ","","50","","","","","","","","","","","","","","","","","","","","","","","","","","","","",""
"5808","","<div style=""width:500px;"">
  <p>How would you describe your current emotional state?</p>
  </div>","4","html-slider-response","17","366694","0.0-5.0-3.1","129","1","2025-07-17 07:39:24","1f75c3e559b7213887762d5229550c2b","37.6.6.6","Mozilla/5.0 (Windows NT 10.0; Win64; x64; rv:140.0) Gecko/20100101 Firefox/140.0","","Firefox","140.0","Windows","10.0","https://app.prolific.com/","en-US,en;q=0.5","56e4b2e044b184000b894159","686e379bc37a29ffa5cdc956","6878a899119320ff35061966","1","1","56e4b2e044b184000b894159","1","1","2025-07-17T07:45:33.066Z","","","","","","","","","","","StressQ","","50","","","","","","","","","","","","","","","","","","","","","","","","","","","","",""
"6409","","<div style=""width:500px;"">
  <p>What best describes how you currently feel?</p>
  </div>","93","html-slider-response","18","373104","0.0-5.0-4.1","129","1","2025-07-17 07:39:24","1f75c3e559b7213887762d5229550c2b","37.6.6.6","Mozilla/5.0 (Windows NT 10.0; Win64; x64; rv:140.0) Gecko/20100101 Firefox/140.0","","Firefox","140.0","Windows","10.0","https://app.prolific.com/","en-US,en;q=0.5","56e4b2e044b184000b894159","686e379bc37a29ffa5cdc956","6878a899119320ff35061966","1","1","56e4b2e044b184000b894159","1","1","2025-07-17T07:45:39.476Z","","","","","","","","","","","MotivationQ","","50","","","","","","","","","","","","","","","","","","","","","","","","","","","","",""
"","","","","ctl-task-cpt","19","399626","0.0-5.0-0.2","129","1","2025-07-17 07:39:24","1f75c3e559b7213887762d5229550c2b","37.6.6.6","Mozilla/5.0 (Windows NT 10.0; Win64; x64; rv:140.0) Gecko/20100101 Firefox/140.0","","Firefox","140.0","Windows","10.0","https://app.prolific.com/","en-US,en;q=0.5","56e4b2e044b184000b894159","686e379bc37a29ffa5cdc956","6878a899119320ff35061966","1","1","56e4b2e044b184000b894159","1","1","2025-07-17T07:46:05.998Z","","","","","","","","","","","","","","win-only","0","g1:NW,g2:SE","0.8","3","0","375575","1240","6243","23519","1","4","4","6","2","4","4","16","12","0.12121212121212122","994","3000","2210","[""down"",""right""]","{""num_key_presses"":6,""num_perfect"":6,""num_errors"":0,""num_randdir"":0,""num_randdir_good_moves"":0,""num_whilered"":0,""num_whileblue"":0,""num_blue"":0,""num_good_moves"":6}","[417.8214133126395,410.0714362008231,0,417.8214133126395,410.0714362008231,101,417.8214133126395,410.0714362008231,211,417.8214133126395,410.0714362008231,318,417.8214133126395,410.0714362008231,428,417.8214133126395,410.0714362008231,537,646.5714133126395,703.8214362008231,642,797.8214133126395,826.3214362008231,752,804.0714133126395,818.8214362008231,854,774.0714133126395,760.0714362008231,958,770.3214133126395,755.0714362008231,1069,770.3214133126395,756.3214362008231,1182,789.0714133126395,745.0714362008231,1290,899.0714133126395,676.3214362008231,1390,915.3214133126395,666.3214362008231,1499,1026.5714133126396,598.8214362008231,1606,1215.3214133126396,473.8214362008231,1714,1312.8214133126396,308.8214362008231,1819,1312.8214133126396,308.8214362008231,1926,1312.8214133126396,308.8214362008231,2032,1312.8214133126396,308.8214362008231,2135,1312.8214133126396,308.8214362008231,2243,1312.8214133126396,308.8214362008231,2349,1312.8214133126396,308.8214362008231,2459,1312.8214133126396,308.8214362008231,2568,1312.8214133126396,308.8214362008231,2668,1312.8214133126396,308.8214362008231,2772,1312.8214133126396,308.8214362008231,2885,1312.8214133126396,308.8214362008231,2993,1312.8214133126396,308.8214362008231,3093,1312.8214133126396,308.8214362008231,3201,1312.8214133126396,308.8214362008231,3304,1312.8214133126396,308.8214362008231,3410,1312.8214133126396,308.8214362008231,3511,1312.8214133126396,308.8214362008231,3619,1312.8214133126396,308.8214362008231,3735,1312.8214133126396,308.8214362008231,3842,1312.8214133126396,308.8214362008231,3942,1312.8214133126396,308.8214362008231,4044,1312.8214133126396,308.8214362008231,4151,1312.8214133126396,308.8214362008231,4257,1312.8214133126396,308.8214362008231,4367,1312.8214133126396,308.8214362008231,4468,1312.8214133126396,308.8214362008231,4572,1312.8214133126396,308.8214362008231,4680,1312.8214133126396,308.8214362008231,4786,1312.8214133126396,308.8214362008231,4895]","[1418,1418,1000,0,418,""smooth"",""right"",""right"",""good_move"",4805,3387,2985.8,1418,401.2,""smooth"",""right"",""right"",""good_move"",7671,2866,2451.9,4805,414.1,""smooth"",""right"",""right"",""good_move"",11121,3450,3041.6,7671,408.4,""smooth"",""down"",""down"",""good_move"",13892,2771,2292.1,11121,478.9,""smooth"",""down"",""down"",""good_move"",16987,3095,2669.9,13892,425.1,""smooth"",""down"",""down"",""good_move""]","",""
"6857","","<div style=""width:500px;"">
  <p>What determined the result of this run?</p>
  </div>","73","html-slider-response","20","406485","0.0-5.0-1.2","129","1","2025-07-17 07:39:24","1f75c3e559b7213887762d5229550c2b","37.6.6.6","Mozilla/5.0 (Windows NT 10.0; Win64; x64; rv:140.0) Gecko/20100101 Firefox/140.0","","Firefox","140.0","Windows","10.0","https://app.prolific.com/","en-US,en;q=0.5","56e4b2e044b184000b894159","686e379bc37a29ffa5cdc956","6878a899119320ff35061966","1","1","56e4b2e044b184000b894159","1","1","2025-07-17T07:46:12.857Z","","","","","","","","","","","AttribQ","","50","","","","","","","","","","","","","","","","","","","","","","","","","","","","",""
"15336","","<div style=""width:500px;"">
  <p>How much control did you have over the ball?</p>
  </div>","99","html-slider-response","21","421821","0.0-5.0-2.2","129","1","2025-07-17 07:39:24","1f75c3e559b7213887762d5229550c2b","37.6.6.6","Mozilla/5.0 (Windows NT 10.0; Win64; x64; rv:140.0) Gecko/20100101 Firefox/140.0","","Firefox","140.0","Windows","10.0","https://app.prolific.com/","en-US,en;q=0.5","56e4b2e044b184000b894159","686e379bc37a29ffa5cdc956","6878a899119320ff35061966","1","1","56e4b2e044b184000b894159","1","1","2025-07-17T07:46:28.193Z","","","","","","","","","","","ControlQ","","50","","","","","","","","","","","","","","","","","","","","","","","","","","","","",""
"5417","","<div style=""width:500px;"">
  <p>How would you describe your current emotional state?</p>
  </div>","1","html-slider-response","22","427240","0.0-5.0-3.2","129","1","2025-07-17 07:39:24","1f75c3e559b7213887762d5229550c2b","37.6.6.6","Mozilla/5.0 (Windows NT 10.0; Win64; x64; rv:140.0) Gecko/20100101 Firefox/140.0","","Firefox","140.0","Windows","10.0","https://app.prolific.com/","en-US,en;q=0.5","56e4b2e044b184000b894159","686e379bc37a29ffa5cdc956","6878a899119320ff35061966","1","1","56e4b2e044b184000b894159","1","1","2025-07-17T07:46:33.612Z","","","","","","","","","","","StressQ","","50","","","","","","","","","","","","","","","","","","","","","","","","","","","","",""
"6385","","<div style=""width:500px;"">
  <p>What best describes how you currently feel?</p>
  </div>","96","html-slider-response","23","433625","0.0-5.0-4.2","129","1","2025-07-17 07:39:24","1f75c3e559b7213887762d5229550c2b","37.6.6.6","Mozilla/5.0 (Windows NT 10.0; Win64; x64; rv:140.0) Gecko/20100101 Firefox/140.0","","Firefox","140.0","Windows","10.0","https://app.prolific.com/","en-US,en;q=0.5","56e4b2e044b184000b894159","686e379bc37a29ffa5cdc956","6878a899119320ff35061966","1","1","56e4b2e044b184000b894159","1","1","2025-07-17T07:46:39.997Z","","","","","","","","","","","MotivationQ","","50","","","","","","","","","","","","","","","","","","","","","","","","","","","","",""
"","","","","ctl-task-cpt","24","471345","0.0-5.0-0.3","129","1","2025-07-17 07:39:24","1f75c3e559b7213887762d5229550c2b","37.6.6.6","Mozilla/5.0 (Windows NT 10.0; Win64; x64; rv:140.0) Gecko/20100101 Firefox/140.0","","Firefox","140.0","Windows","10.0","https://app.prolific.com/","en-US,en;q=0.5","56e4b2e044b184000b894159","686e379bc37a29ffa5cdc956","6878a899119320ff35061966","1","1","56e4b2e044b184000b894159","1","1","2025-07-17T07:47:17.717Z","","","","","","","","","","","","","","win-only","1","g1:NE,g2:SW","0.7","4","0","436096","1329","6339","34712","1","4","8","6","2","8","8","24","16","0.18181818181818182","918","3000","2065","[""down"",""left""]","{""num_key_presses"":6,""num_perfect"":5,""num_errors"":0,""num_randdir"":1,""num_randdir_good_moves"":1,""num_whilered"":0,""num_whileblue"":0,""num_blue"":3,""num_good_moves"":6}","[426.5714133126395,420.0714362008231,0,425.3214133126395,418.8214362008231,109,425.3214133126395,418.8214362008231,221,425.3214133126395,418.8214362008231,332,450.3214133126395,400.0714362008231,443,234.0714133126395,595.0714362008231,554,149.0714133126395,698.8214362008231,665,124.0714133126395,733.8214362008231,776,111.5714133126395,752.5714362008231,889,111.5714133126395,752.5714362008231,998,147.8214133126395,735.0714362008231,1110,434.0714133126395,580.0714362008231,1222,651.5714133126395,481.3214362008231,1333,664.0714133126395,467.5714362008231,1444,664.0714133126395,467.5714362008231,1556,664.0714133126395,467.5714362008231,1669,664.0714133126395,467.5714362008231,1781,664.0714133126395,467.5714362008231,1893,664.0714133126395,467.5714362008231,2014,664.0714133126395,467.5714362008231,2125,664.0714133126395,467.5714362008231,2236,664.0714133126395,467.5714362008231,2345,664.0714133126395,467.5714362008231,2458,664.0714133126395,467.5714362008231,2569,664.0714133126395,467.5714362008231,2681,664.0714133126395,467.5714362008231,2793,664.0714133126395,467.5714362008231,2905,664.0714133126395,467.5714362008231,3016,664.0714133126395,467.5714362008231,3127,664.0714133126395,467.5714362008231,3241,664.0714133126395,467.5714362008231,3354,664.0714133126395,467.5714362008231,3465,664.0714133126395,467.5714362008231,3576,664.0714133126395,467.5714362008231,3688,664.0714133126395,467.5714362008231,3799,664.0714133126395,467.5714362008231,3910,664.0714133126395,467.5714362008231,4022,664.0714133126395,467.5714362008231,4129,664.0714133126395,467.5714362008231,4239,664.0714133126395,467.5714362008231,4347,664.0714133126395,467.5714362008231,4455,664.0714133126395,467.5714362008231,4563,664.0714133126395,467.5714362008231,4672,664.0714133126395,467.5714362008231,4780,664.0714133126395,467.5714362008231,4888,664.0714133126395,467.5714362008231,4996]","[5566,5566,3163.5,2008,394.5,""smooth"",""down"",""down"",""good_move"",8517,2951,2543.8,5566,407.2,""oops"",""down"",""left"",""good_move"",12062,3545,2124.3,8517,1420.7,""smooth"",""left"",""left"",""good_move"",15169,3107,2676.9,12062,430.1,""smooth"",""down"",""down"",""good_move"",24975,9806,2052.1,22532,390.9,""smooth"",""down"",""down"",""good_move"",28084,3109,2603.1,24975,505.9,""smooth"",""left"",""left"",""good_move""]","",""
"7909","","<div style=""width:500px;"">
  <p>What determined the result of this run?</p>
  </div>","71","html-slider-response","25","479254","0.0-5.0-1.3","129","1","2025-07-17 07:39:24","1f75c3e559b7213887762d5229550c2b","37.6.6.6","Mozilla/5.0 (Windows NT 10.0; Win64; x64; rv:140.0) Gecko/20100101 Firefox/140.0","","Firefox","140.0","Windows","10.0","https://app.prolific.com/","en-US,en;q=0.5","56e4b2e044b184000b894159","686e379bc37a29ffa5cdc956","6878a899119320ff35061966","1","1","56e4b2e044b184000b894159","1","1","2025-07-17T07:47:25.626Z","","","","","","","","","","","AttribQ","","50","","","","","","","","","","","","","","","","","","","","","","","","","","","","",""
"6354","","<div style=""width:500px;"">
  <p>How much control did you have over the ball?</p>
  </div>","92","html-slider-response","26","485609","0.0-5.0-2.3","129","1","2025-07-17 07:39:24","1f75c3e559b7213887762d5229550c2b","37.6.6.6","Mozilla/5.0 (Windows NT 10.0; Win64; x64; rv:140.0) Gecko/20100101 Firefox/140.0","","Firefox","140.0","Windows","10.0","https://app.prolific.com/","en-US,en;q=0.5","56e4b2e044b184000b894159","686e379bc37a29ffa5cdc956","6878a899119320ff35061966","1","1","56e4b2e044b184000b894159","1","1","2025-07-17T07:47:31.981Z","","","","","","","","","","","ControlQ","","50","","","","","","","","","","","","","","","","","","","","","","","","","","","","",""
"4848","","<div style=""width:500px;"">
  <p>How would you describe your current emotional state?</p>
  </div>","3","html-slider-response","27","490459","0.0-5.0-3.3","129","1","2025-07-17 07:39:24","1f75c3e559b7213887762d5229550c2b","37.6.6.6","Mozilla/5.0 (Windows NT 10.0; Win64; x64; rv:140.0) Gecko/20100101 Firefox/140.0","","Firefox","140.0","Windows","10.0","https://app.prolific.com/","en-US,en;q=0.5","56e4b2e044b184000b894159","686e379bc37a29ffa5cdc956","6878a899119320ff35061966","1","1","56e4b2e044b184000b894159","1","1","2025-07-17T07:47:36.831Z","","","","","","","","","","","StressQ","","50","","","","","","","","","","","","","","","","","","","","","","","","","","","","",""
"5073","","<div style=""width:500px;"">
  <p>What best describes how you currently feel?</p>
  </div>","96","html-slider-response","28","495532","0.0-5.0-4.3","129","1","2025-07-17 07:39:24","1f75c3e559b7213887762d5229550c2b","37.6.6.6","Mozilla/5.0 (Windows NT 10.0; Win64; x64; rv:140.0) Gecko/20100101 Firefox/140.0","","Firefox","140.0","Windows","10.0","https://app.prolific.com/","en-US,en;q=0.5","56e4b2e044b184000b894159","686e379bc37a29ffa5cdc956","6878a899119320ff35061966","1","1","56e4b2e044b184000b894159","1","1","2025-07-17T07:47:41.904Z","","","","","","","","","","","MotivationQ","","50","","","","","","","","","","","","","","","","","","","","","","","","","","","","",""
"","","","","ctl-task-cpt","29","525113","0.0-5.0-0.4","129","1","2025-07-17 07:39:24","1f75c3e559b7213887762d5229550c2b","37.6.6.6","Mozilla/5.0 (Windows NT 10.0; Win64; x64; rv:140.0) Gecko/20100101 Firefox/140.0","","Firefox","140.0","Windows","10.0","https://app.prolific.com/","en-US,en;q=0.5","56e4b2e044b184000b894159","686e379bc37a29ffa5cdc956","6878a899119320ff35061966","1","1","56e4b2e044b184000b894159","1","1","2025-07-17T07:48:11.485Z","","","","","","","","","","","","","","win-only","3","g1:SW,g2:NE","0.6","5","0","498004","946","5960","26565","1","4","8","6","2","8","8","32","24","0.24242424242424243","774","3000","2215","[""up"",""right""]","{""num_key_presses"":6,""num_perfect"":5,""num_errors"":0,""num_randdir"":1,""num_randdir_good_moves"":1,""num_whilered"":0,""num_whileblue"":0,""num_blue"":1,""num_good_moves"":6}","[412.8214133126395,417.5714362008231,0,414.0714133126395,416.3214362008231,108,414.0714133126395,416.3214362008231,219,414.0714133126395,416.3214362008231,331,479.0714133126395,371.3214362008231,442,692.8214133126395,173.8214362008231,551,764.0714133126395,78.8214362008231,662,767.8214133126395,68.8214362008231,769,767.8214133126395,68.8214362008231,878,767.8214133126395,68.8214362008231,986,766.5714133126395,76.3214362008231,1095,930.3214133126395,116.3214362008231,1205,1184.0714133126396,122.5714362008231,1315,1355.3214133126396,131.3214362008231,1424,1355.3214133126396,131.3214362008231,1534,1355.3214133126396,131.3214362008231,1642,1355.3214133126396,131.3214362008231,1751,1355.3214133126396,131.3214362008231,1863,1355.3214133126396,131.3214362008231,1968,1355.3214133126396,131.3214362008231,2075,1355.3214133126396,131.3214362008231,2186,1355.3214133126396,131.3214362008231,2296,1355.3214133126396,131.3214362008231,2405,1355.3214133126396,131.3214362008231,2515,1355.3214133126396,131.3214362008231,2622,1355.3214133126396,131.3214362008231,2730,1355.3214133126396,131.3214362008231,2837,1355.3214133126396,131.3214362008231,2947,1355.3214133126396,131.3214362008231,3053,1355.3214133126396,131.3214362008231,3162,1355.3214133126396,131.3214362008231,3270,1355.3214133126396,131.3214362008231,3380,1355.3214133126396,131.3214362008231,3488,1355.3214133126396,131.3214362008231,3596,1355.3214133126396,131.3214362008231,3705,1355.3214133126396,131.3214362008231,3815,1355.3214133126396,131.3214362008231,3923,1355.3214133126396,131.3214362008231,4031,1355.3214133126396,131.3214362008231,4140,1355.3214133126396,131.3214362008231,4248,1355.3214133126396,131.3214362008231,4357,1355.3214133126396,131.3214362008231,4466,1355.3214133126396,131.3214362008231,4569,1355.3214133126396,131.3214362008231,4681,1355.3214133126396,131.3214362008231,4791,1355.3214133126396,131.3214362008231,4902]","[1433,1433,1000,0,433,""smooth"",""right"",""right"",""good_move"",3908,2475,2043.8,1433,431.2,""smooth"",""right"",""right"",""good_move"",11207,7299,2987,7795,425,""smooth"",""right"",""right"",""good_move"",14113,2906,2441,11207,465,""smooth"",""up"",""up"",""good_move"",17224,3111,2265.8,14113,845.2,""smooth"",""up"",""up"",""good_move"",20322,3098,2368.7,17224,729.3,""oops"",""up"",""up"",""good_move""]","",""
"7376","","<div style=""width:500px;"">
  <p>What determined the result of this run?</p>
  </div>","74","html-slider-response","30","532490","0.0-5.0-1.4","129","1","2025-07-17 07:39:24","1f75c3e559b7213887762d5229550c2b","37.6.6.6","Mozilla/5.0 (Windows NT 10.0; Win64; x64; rv:140.0) Gecko/20100101 Firefox/140.0","","Firefox","140.0","Windows","10.0","https://app.prolific.com/","en-US,en;q=0.5","56e4b2e044b184000b894159","686e379bc37a29ffa5cdc956","6878a899119320ff35061966","1","1","56e4b2e044b184000b894159","1","1","2025-07-17T07:48:18.862Z","","","","","","","","","","","AttribQ","","50","","","","","","","","","","","","","","","","","","","","","","","","","","","","",""
"6468","","<div style=""width:500px;"">
  <p>How much control did you have over the ball?</p>
  </div>","89","html-slider-response","31","538959","0.0-5.0-2.4","129","1","2025-07-17 07:39:24","1f75c3e559b7213887762d5229550c2b","37.6.6.6","Mozilla/5.0 (Windows NT 10.0; Win64; x64; rv:140.0) Gecko/20100101 Firefox/140.0","","Firefox","140.0","Windows","10.0","https://app.prolific.com/","en-US,en;q=0.5","56e4b2e044b184000b894159","686e379bc37a29ffa5cdc956","6878a899119320ff35061966","1","1","56e4b2e044b184000b894159","1","1","2025-07-17T07:48:25.331Z","","","","","","","","","","","ControlQ","","50","","","","","","","","","","","","","","","","","","","","","","","","","","","","",""
"4252","","<div style=""width:500px;"">
  <p>How would you describe your current emotional state?</p>
  </div>","3","html-slider-response","32","543212","0.0-5.0-3.4","129","1","2025-07-17 07:39:24","1f75c3e559b7213887762d5229550c2b","37.6.6.6","Mozilla/5.0 (Windows NT 10.0; Win64; x64; rv:140.0) Gecko/20100101 Firefox/140.0","","Firefox","140.0","Windows","10.0","https://app.prolific.com/","en-US,en;q=0.5","56e4b2e044b184000b894159","686e379bc37a29ffa5cdc956","6878a899119320ff35061966","1","1","56e4b2e044b184000b894159","1","1","2025-07-17T07:48:29.584Z","","","","","","","","","","","StressQ","","50","","","","","","","","","","","","","","","","","","","","","","","","","","","","",""
"9088","","<div style=""width:500px;"">
  <p>What best describes how you currently feel?</p>
  </div>","97","html-slider-response","33","552300","0.0-5.0-4.4","129","1","2025-07-17 07:39:24","1f75c3e559b7213887762d5229550c2b","37.6.6.6","Mozilla/5.0 (Windows NT 10.0; Win64; x64; rv:140.0) Gecko/20100101 Firefox/140.0","","Firefox","140.0","Windows","10.0","https://app.prolific.com/","en-US,en;q=0.5","56e4b2e044b184000b894159","686e379bc37a29ffa5cdc956","6878a899119320ff35061966","1","1","56e4b2e044b184000b894159","1","1","2025-07-17T07:48:38.672Z","","","","","","","","","","","MotivationQ","","50","","","","","","","","","","","","","","","","","","","","","","","","","","","","",""
"","","","","ctl-task-cpt","34","620358","0.0-5.0-0.5","129","1","2025-07-17 07:39:24","1f75c3e559b7213887762d5229550c2b","37.6.6.6","Mozilla/5.0 (Windows NT 10.0; Win64; x64; rv:140.0) Gecko/20100101 Firefox/140.0","","Firefox","140.0","Windows","10.0","https://app.prolific.com/","en-US,en;q=0.5","56e4b2e044b184000b894159","686e379bc37a29ffa5cdc956","6878a899119320ff35061966","1","1","56e4b2e044b184000b894159","1","1","2025-07-17T07:49:46.730Z","","","","","","","","","","","","","","win-only","1","g1:NE,g2:SW","0.5","6","0","554772","1662","6669","65048","1","4","4","6","2","4","4","36","32","0.2727272727272727","925","3000","785","[""down"",""left""]","{""num_key_presses"":16,""num_perfect"":9,""num_errors"":0,""num_randdir"":7,""num_randdir_good_moves"":2,""num_whilered"":0,""num_whileblue"":0,""num_blue"":3,""num_good_moves"":11}","[417.8214133126395,423.8214362008231,0,417.8214133126395,423.8214362008231,105,417.8214133126395,423.8214362008231,216,417.8214133126395,423.8214362008231,327,414.0714133126395,426.3214362008231,439,220.3214133126395,567.5714362008231,550,125.3214133126395,658.8214362008231,661,96.5714133126395,705.0714362008231,773,89.0714133126395,758.8214362008231,884,86.5714133126395,760.0714362008231,996,82.8214133126395,753.8214362008231,1106,90.3214133126395,717.5714362008231,1215,-240.9285866873605,616.3214362008231,1326,-317.1785866873605,602.5714362008231,1434,-290.9285866873605,470.0714362008231,1544,-284.6785866873605,468.8214362008231,1654,-284.6785866873605,468.8214362008231,1763,-284.6785866873605,468.8214362008231,1870,-284.6785866873605,468.8214362008231,1978,-284.6785866873605,468.8214362008231,2086,-284.6785866873605,468.8214362008231,2193,-284.6785866873605,468.8214362008231,2300,-127.1785866873605,392.5714362008231,2409,115.3214133126395,283.8214362008231,2519,414.0714133126395,158.8214362008231,2631,495.3214133126395,116.3214362008231,2740,495.3214133126395,116.3214362008231,2847,495.3214133126395,116.3214362008231,2955,495.3214133126395,116.3214362008231,3064,495.3214133126395,116.3214362008231,3172,495.3214133126395,116.3214362008231,3283,495.3214133126395,116.3214362008231,3392,495.3214133126395,116.3214362008231,3499,495.3214133126395,116.3214362008231,3608,495.3214133126395,116.3214362008231,3717,495.3214133126395,116.3214362008231,3825,495.3214133126395,116.3214362008231,3933,495.3214133126395,116.3214362008231,4039,495.3214133126395,116.3214362008231,4147,495.3214133126395,116.3214362008231,4255,495.3214133126395,116.3214362008231,4365,495.3214133126395,116.3214362008231,4471,495.3214133126395,116.3214362008231,4582,495.3214133126395,116.3214362008231,4688,495.3214133126395,116.3214362008231,4796,495.3214133126395,116.3214362008231,4903]","[4500,4500,2035.8,2016,448.2,""smooth"",""left"",""left"",""good_move"",7509,3009,2151.3,4500,857.7,""smooth"",""left"",""left"",""good_move"",10583,3074,2271.7,7509,802.3,""smooth"",""left"",""left"",""good_move"",13676,3093,2415.3,10583,677.7,""smooth"",""down"",""down"",""good_move"",16048,2372,1825.4,13676,546.6,""oops"",""down"",""right"",""bad_move"",18367,2319,1903.9,16048,415.1,""oops"",""down"",""left"",""good_move"",21478,3111,2401.4,18367,709.6,""smooth"",""down"",""down"",""good_move"",24270,2792,2376.1,21478,415.9,""oops"",""down"",""right"",""bad_move"",27653,3383,2981.6,24270,401.4,""oops"",""down"",""right"",""bad_move"",30946,3293,2900.1,27653,392.9,""oops"",""left"",""up"",""bad_move"",33962,3016,2636.1,30946,379.9,""smooth"",""left"",""left"",""good_move"",37002,3040,2584.5,33962,455.5,""oops"",""left"",""down"",""good_move"",48498,11496,2350.1,45587,560.9,""oops"",""left"",""right"",""bad_move"",51244,2746,2310.2,48498,435.8,""smooth"",""left"",""left"",""good_move"",54965,3721,3089.4,51244,631.6,""smooth"",""left"",""left"",""good_move"",58093,3128,2166.3,54965,961.7,""smooth"",""down"",""down"",""good_move""]","",""
"24348","","<div style=""width:500px;"">
  <p>What determined the result of this run?</p>
  </div>","60","html-slider-response","35","644706","0.0-5.0-1.5","129","1","2025-07-17 07:39:24","1f75c3e559b7213887762d5229550c2b","37.6.6.6","Mozilla/5.0 (Windows NT 10.0; Win64; x64; rv:140.0) Gecko/20100101 Firefox/140.0","","Firefox","140.0","Windows","10.0","https://app.prolific.com/","en-US,en;q=0.5","56e4b2e044b184000b894159","686e379bc37a29ffa5cdc956","6878a899119320ff35061966","1","1","56e4b2e044b184000b894159","1","1","2025-07-17T07:50:11.078Z","","","","","","","","","","","AttribQ","","50","","","","","","","","","","","","","","","","","","","","","","","","","","","","",""
"6944","","<div style=""width:500px;"">
  <p>How much control did you have over the ball?</p>
  </div>","66","html-slider-response","36","651651","0.0-5.0-2.5","129","1","2025-07-17 07:39:24","1f75c3e559b7213887762d5229550c2b","37.6.6.6","Mozilla/5.0 (Windows NT 10.0; Win64; x64; rv:140.0) Gecko/20100101 Firefox/140.0","","Firefox","140.0","Windows","10.0","https://app.prolific.com/","en-US,en;q=0.5","56e4b2e044b184000b894159","686e379bc37a29ffa5cdc956","6878a899119320ff35061966","1","1","56e4b2e044b184000b894159","1","1","2025-07-17T07:50:18.023Z","","","","","","","","","","","ControlQ","","50","","","","","","","","","","","","","","","","","","","","","","","","","","","","",""
"5683","","<div style=""width:500px;"">
  <p>How would you describe your current emotional state?</p>
  </div>","5","html-slider-response","37","657335","0.0-5.0-3.5","129","1","2025-07-17 07:39:24","1f75c3e559b7213887762d5229550c2b","37.6.6.6","Mozilla/5.0 (Windows NT 10.0; Win64; x64; rv:140.0) Gecko/20100101 Firefox/140.0","","Firefox","140.0","Windows","10.0","https://app.prolific.com/","en-US,en;q=0.5","56e4b2e044b184000b894159","686e379bc37a29ffa5cdc956","6878a899119320ff35061966","1","1","56e4b2e044b184000b894159","1","1","2025-07-17T07:50:23.707Z","","","","","","","","","","","StressQ","","50","","","","","","","","","","","","","","","","","","","","","","","","","","","","",""
"6353","","<div style=""width:500px;"">
  <p>What best describes how you currently feel?</p>
  </div>","99","html-slider-response","38","663689","0.0-5.0-4.5","129","1","2025-07-17 07:39:24","1f75c3e559b7213887762d5229550c2b","37.6.6.6","Mozilla/5.0 (Windows NT 10.0; Win64; x64; rv:140.0) Gecko/20100101 Firefox/140.0","","Firefox","140.0","Windows","10.0","https://app.prolific.com/","en-US,en;q=0.5","56e4b2e044b184000b894159","686e379bc37a29ffa5cdc956","6878a899119320ff35061966","1","1","56e4b2e044b184000b894159","1","1","2025-07-17T07:50:30.061Z","","","","","","","","","","","MotivationQ","","50","","","","","","","","","","","","","","","","","","","","","","","","","","","","",""
"","","","","ctl-task-cpt","39","755943","0.0-5.0-0.6","129","1","2025-07-17 07:39:24","1f75c3e559b7213887762d5229550c2b","37.6.6.6","Mozilla/5.0 (Windows NT 10.0; Win64; x64; rv:140.0) Gecko/20100101 Firefox/140.0","","Firefox","140.0","Windows","10.0","https://app.prolific.com/","en-US,en;q=0.5","56e4b2e044b184000b894159","686e379bc37a29ffa5cdc956","6878a899119320ff35061966","1","1","56e4b2e044b184000b894159","1","1","2025-07-17T07:52:02.315Z","","","","","","","","","","","","","","win-only","2","g1:SE,g2:NW","0.4","7","0","666160","1113","6126","89242","1","4","8","6","2","-8","-8","28","36","0.21212121212121213","850","3000","-970","[""left"",""up""]","{""num_key_presses"":22,""num_perfect"":8,""num_errors"":0,""num_randdir"":14,""num_randdir_good_moves"":3,""num_whilered"":0,""num_whileblue"":0,""num_blue"":5,""num_good_moves"":11}","[420.3214133126395,420.0714362008231,0,420.3214133126395,420.0714362008231,109,420.3214133126395,420.0714362008231,219,420.3214133126395,420.0714362008231,328,412.8214133126395,416.3214362008231,435,256.5714133126395,237.5714362008231,543,104.0714133126395,113.8214362008231,654,99.0714133126395,103.8214362008231,763,99.0714133126395,103.8214362008231,871,99.0714133126395,103.8214362008231,980,106.5714133126395,103.8214362008231,1088,236.5714133126395,126.3214362008231,1199,-245.9285866873605,253.8214362008231,1308,-543.4285866873605,263.8214362008231,1418,-520.9285866873605,248.8214362008231,1527,-515.9285866873605,251.3214362008231,1634,-514.6785866873605,253.8214362008231,1745,-512.1785866873605,257.5714362008231,1853,-512.1785866873605,258.8214362008231,1960,-512.1785866873605,261.3214362008231,2067,-510.9285866873605,263.8214362008231,2177,-510.9285866873605,265.0714362008231,2285,-510.9285866873605,265.0714362008231,2394,-510.9285866873605,265.0714362008231,2502,-508.4285866873605,267.5714362008231,2609,-508.4285866873605,267.5714362008231,2716,-508.4285866873605,267.5714362008231,2826,-508.4285866873605,268.8214362008231,2934,-508.4285866873605,268.8214362008231,3045,-508.4285866873605,268.8214362008231,3154,-508.4285866873605,268.8214362008231,3263,-508.4285866873605,268.8214362008231,3372,-508.4285866873605,268.8214362008231,3480,-508.4285866873605,268.8214362008231,3587,-508.4285866873605,268.8214362008231,3696,-508.4285866873605,268.8214362008231,3807,-508.4285866873605,268.8214362008231,3914,-508.4285866873605,268.8214362008231,4021,-508.4285866873605,268.8214362008231,4130,-508.4285866873605,268.8214362008231,4240,-508.4285866873605,268.8214362008231,4348,-508.4285866873605,268.8214362008231,4458,-508.4285866873605,268.8214362008231,4564,-508.4285866873605,268.8214362008231,4672,-508.4285866873605,268.8214362008231,4782,-508.4285866873605,268.8214362008231,4890,-508.4285866873605,268.8214362008231,4997]","[6898,6898,1780.2,4627,490.8,""oops"",""left"",""right"",""bad_move"",9986,3088,2723.5,6898,364.5,""smooth"",""up"",""up"",""good_move"",13861,3875,3462.5,9986,412.5,""oops"",""up"",""down"",""bad_move"",16560,2699,2168.5,13861,530.5,""smooth"",""up"",""up"",""good_move"",20247,3687,3258.6,16560,428.4,""smooth"",""up"",""up"",""good_move"",26820,6573,2461.5,23909,449.5,""smooth"",""up"",""up"",""good_move"",29913,3093,2477.7,26820,615.3,""oops"",""left"",""down"",""bad_move"",32406,2493,2083,29913,410,""oops"",""left"",""right"",""bad_move"",38609,6203,2902.8,35248,458.2,""oops"",""up"",""down"",""bad_move"",41186,2577,2157.4,38609,419.6,""oops"",""left"",""down"",""bad_move"",43601,2415,1989.2,41186,425.8,""oops"",""left"",""down"",""bad_move"",47111,3510,2979.5,43601,530.5,""oops"",""left"",""down"",""bad_move"",49731,2620,2001.1,47111,618.9,""smooth"",""left"",""left"",""good_move"",52755,3024,2381.2,49731,642.8,""smooth"",""left"",""left"",""good_move"",55692,2937,2524.8,52755,412.2,""smooth"",""left"",""left"",""good_move"",58621,2929,2320.7,55692,608.3,""smooth"",""left"",""left"",""good_move"",61873,3252,2938.8,58621,313.2,""oops"",""left"",""up"",""good_move"",64930,3057,2030.5,61873,1026.5,""oops"",""up"",""right"",""bad_move"",67644,2714,2331.6,64930,382.4,""oops"",""left"",""left"",""good_move"",70774,3130,2745.9,67644,384.1,""oops"",""left"",""down"",""bad_move"",73933,3159,2772.9,70774,386.1,""oops"",""left"",""right"",""bad_move"",80218,6285,2344.6,77418,455.4,""oops"",""left"",""left"",""good_move""]","",""
"7577","","<div style=""width:500px;"">
  <p>What determined the result of this run?</p>
  </div>","12","html-slider-response","40","763521","0.0-5.0-1.6","129","1","2025-07-17 07:39:24","1f75c3e559b7213887762d5229550c2b","37.6.6.6","Mozilla/5.0 (Windows NT 10.0; Win64; x64; rv:140.0) Gecko/20100101 Firefox/140.0","","Firefox","140.0","Windows","10.0","https://app.prolific.com/","en-US,en;q=0.5","56e4b2e044b184000b894159","686e379bc37a29ffa5cdc956","6878a899119320ff35061966","1","1","56e4b2e044b184000b894159","1","1","2025-07-17T07:52:09.893Z","","","","","","","","","","","AttribQ","","50","","","","","","","","","","","","","","","","","","","","","","","","","","","","",""
"8161","","<div style=""width:500px;"">
  <p>How much control did you have over the ball?</p>
  </div>","7","html-slider-response","41","771682","0.0-5.0-2.6","129","1","2025-07-17 07:39:24","1f75c3e559b7213887762d5229550c2b","37.6.6.6","Mozilla/5.0 (Windows NT 10.0; Win64; x64; rv:140.0) Gecko/20100101 Firefox/140.0","","Firefox","140.0","Windows","10.0","https://app.prolific.com/","en-US,en;q=0.5","56e4b2e044b184000b894159","686e379bc37a29ffa5cdc956","6878a899119320ff35061966","1","1","56e4b2e044b184000b894159","1","1","2025-07-17T07:52:18.054Z","","","","","","","","","","","ControlQ","","50","","","","","","","","","","","","","","","","","","","","","","","","","","","","",""
"11291","","<div style=""width:500px;"">
  <p>How would you describe your current emotional state?</p>
  </div>","18","html-slider-response","42","782972","0.0-5.0-3.6","129","1","2025-07-17 07:39:24","1f75c3e559b7213887762d5229550c2b","37.6.6.6","Mozilla/5.0 (Windows NT 10.0; Win64; x64; rv:140.0) Gecko/20100101 Firefox/140.0","","Firefox","140.0","Windows","10.0","https://app.prolific.com/","en-US,en;q=0.5","56e4b2e044b184000b894159","686e379bc37a29ffa5cdc956","6878a899119320ff35061966","1","1","56e4b2e044b184000b894159","1","1","2025-07-17T07:52:29.344Z","","","","","","","","","","","StressQ","","50","","","","","","","","","","","","","","","","","","","","","","","","","","","","",""
"4799","","<div style=""width:500px;"">
  <p>What best describes how you currently feel?</p>
  </div>","96","html-slider-response","43","787773","0.0-5.0-4.6","129","1","2025-07-17 07:39:24","1f75c3e559b7213887762d5229550c2b","37.6.6.6","Mozilla/5.0 (Windows NT 10.0; Win64; x64; rv:140.0) Gecko/20100101 Firefox/140.0","","Firefox","140.0","Windows","10.0","https://app.prolific.com/","en-US,en;q=0.5","56e4b2e044b184000b894159","686e379bc37a29ffa5cdc956","6878a899119320ff35061966","1","1","56e4b2e044b184000b894159","1","1","2025-07-17T07:52:34.145Z","","","","","","","","","","","MotivationQ","","50","","","","","","","","","","","","","","","","","","","","","","","","","","","","",""
"","","","","ctl-task-cpt","44","886582","0.0-5.0-0.7","129","1","2025-07-17 07:39:24","1f75c3e559b7213887762d5229550c2b","37.6.6.6","Mozilla/5.0 (Windows NT 10.0; Win64; x64; rv:140.0) Gecko/20100101 Firefox/140.0","","Firefox","140.0","Windows","10.0","https://app.prolific.com/","en-US,en;q=0.5","56e4b2e044b184000b894159","686e379bc37a29ffa5cdc956","6878a899119320ff35061966","1","1","56e4b2e044b184000b894159","1","1","2025-07-17T07:54:12.954Z","","","","","","","","","","","","","","win-only","2","g1:SE,g2:NW","0.3","8","0","790244","1432","6433","95801","1","4","4","6","2","-4","-4","24","28","0.18181818181818182","958","3000","-940","[""left"",""up""]","{""num_key_presses"":23,""num_perfect"":7,""num_errors"":0,""num_randdir"":16,""num_randdir_good_moves"":7,""num_whilered"":0,""num_whileblue"":0,""num_blue"":6,""num_good_moves"":13}","[415.3214133126395,423.8214362008231,0,415.3214133126395,423.8214362008231,111,415.3214133126395,423.8214362008231,223,415.3214133126395,423.8214362008231,338,415.3214133126395,423.8214362008231,445,371.5714133126395,358.8214362008231,556,255.3214133126395,211.3214362008231,656,160.3214133126395,153.8214362008231,756,97.8214133126395,125.0714362008231,865,86.5714133126395,87.5714362008231,969,86.5714133126395,87.5714362008231,1072,86.5714133126395,87.5714362008231,1173,44.07141331263951,147.5714362008231,1284,-34.67858668736049,217.5714362008231,1385,-55.92858668736049,232.5714362008231,1490,-63.42858668736049,240.0714362008231,1598,-40.92858668736049,226.3214362008231,1709,-40.92858668736049,228.8214362008231,1815,-155.9285866873605,256.3214362008231,1922,-292.1785866873605,263.8214362008231,2031,-292.1785866873605,263.8214362008231,2137,-292.1785866873605,263.8214362008231,2246,-292.1785866873605,263.8214362008231,2355,-292.1785866873605,263.8214362008231,2463,-292.1785866873605,263.8214362008231,2570,-292.1785866873605,263.8214362008231,2679,-292.1785866873605,263.8214362008231,2789,-292.1785866873605,263.8214362008231,2896,-292.1785866873605,263.8214362008231,3006,-292.1785866873605,263.8214362008231,3114,-292.1785866873605,263.8214362008231,3222,-292.1785866873605,263.8214362008231,3331,-292.1785866873605,263.8214362008231,3439,-292.1785866873605,263.8214362008231,3548,-292.1785866873605,263.8214362008231,3658,-292.1785866873605,263.8214362008231,3770,-292.1785866873605,263.8214362008231,3875,-292.1785866873605,263.8214362008231,3979,-292.1785866873605,263.8214362008231,4083,-292.1785866873605,263.8214362008231,4193,-292.1785866873605,263.8214362008231,4304,-292.1785866873605,263.8214362008231,4417,-292.1785866873605,263.8214362008231,4524,-292.1785866873605,263.8214362008231,4625,-292.1785866873605,263.8214362008231,4734,-292.1785866873605,263.8214362008231,4839,-292.1785866873605,263.8214362008231,4951]","[1400,1400,1000,0,400,""smooth"",""left"",""left"",""good_move"",8663,7263,2700.9,5546,416.1,""smooth"",""left"",""left"",""good_move"",11842,3179,2676.1,8663,502.9,""smooth"",""left"",""left"",""good_move"",15029,3187,2584.6,11842,602.4,""oops"",""up"",""up"",""good_move"",20906,5877,1590.3,18708,607.7,""oops"",""up"",""down"",""bad_move"",23947,3041,2534.4,20906,506.6,""oops"",""up"",""down"",""bad_move"",26822,2875,2465.1,23947,409.9,""oops"",""up"",""down"",""bad_move"",29136,2314,1933.7,26822,380.3,""oops"",""up"",""left"",""good_move"",39571,10435,2054.4,37014,502.6,""oops"",""right"",""up"",""good_move"",42578,3007,2292.4,39571,714.6,""oops"",""right"",""down"",""bad_move"",45494,2916,2498.3,42578,417.7,""smooth"",""right"",""right"",""bad_move"",48190,2696,2255.4,45494,440.6,""oops"",""up"",""left"",""good_move"",54455,6265,2101.6,51877,476.4,""oops"",""up"",""right"",""bad_move"",56539,2084,1584.2,54455,499.8,""smooth"",""up"",""up"",""good_move"",59552,3013,2311.9,56539,701.1,""smooth"",""up"",""up"",""good_move"",62966,3414,3044.9,59552,369.1,""oops"",""up"",""up"",""good_move"",65915,2949,2510.5,62966,438.5,""oops"",""up"",""right"",""bad_move"",68975,3060,2675.4,65915,384.6,""oops"",""up"",""left"",""good_move"",71934,2959,2279.3,68975,679.7,""oops"",""up"",""right"",""bad_move"",75380,3446,3075.1,71934,370.9,""oops"",""up"",""up"",""good_move"",78400,3019,1483,75381,1536,""oops"",""up"",""right"",""bad_move"",84003,5603,2802.9,80810,390.1,""oops"",""left"",""down"",""bad_move"",86598,2595,2241,84003,354,""smooth"",""left"",""left"",""good_move""]","",""
"6810","","<div style=""width:500px;"">
  <p>What determined the result of this run?</p>
  </div>","12","html-slider-response","45","893391","0.0-5.0-1.7","129","1","2025-07-17 07:39:24","1f75c3e559b7213887762d5229550c2b","37.6.6.6","Mozilla/5.0 (Windows NT 10.0; Win64; x64; rv:140.0) Gecko/20100101 Firefox/140.0","","Firefox","140.0","Windows","10.0","https://app.prolific.com/","en-US,en;q=0.5","56e4b2e044b184000b894159","686e379bc37a29ffa5cdc956","6878a899119320ff35061966","1","1","56e4b2e044b184000b894159","1","1","2025-07-17T07:54:19.763Z","","","","","","","","","","","AttribQ","","50","","","","","","","","","","","","","","","","","","","","","","","","","","","","",""
"9535","","<div style=""width:500px;"">
  <p>How much control did you have over the ball?</p>
  </div>","12","html-slider-response","46","902928","0.0-5.0-2.7","129","1","2025-07-17 07:39:24","1f75c3e559b7213887762d5229550c2b","37.6.6.6","Mozilla/5.0 (Windows NT 10.0; Win64; x64; rv:140.0) Gecko/20100101 Firefox/140.0","","Firefox","140.0","Windows","10.0","https://app.prolific.com/","en-US,en;q=0.5","56e4b2e044b184000b894159","686e379bc37a29ffa5cdc956","6878a899119320ff35061966","1","1","56e4b2e044b184000b894159","1","1","2025-07-17T07:54:29.300Z","","","","","","","","","","","ControlQ","","50","","","","","","","","","","","","","","","","","","","","","","","","","","","","",""
"8184","","<div style=""width:500px;"">
  <p>How would you describe your current emotional state?</p>
  </div>","25","html-slider-response","47","911113","0.0-5.0-3.7","129","1","2025-07-17 07:39:24","1f75c3e559b7213887762d5229550c2b","37.6.6.6","Mozilla/5.0 (Windows NT 10.0; Win64; x64; rv:140.0) Gecko/20100101 Firefox/140.0","","Firefox","140.0","Windows","10.0","https://app.prolific.com/","en-US,en;q=0.5","56e4b2e044b184000b894159","686e379bc37a29ffa5cdc956","6878a899119320ff35061966","1","1","56e4b2e044b184000b894159","1","1","2025-07-17T07:54:37.485Z","","","","","","","","","","","StressQ","","50","","","","","","","","","","","","","","","","","","","","","","","","","","","","",""
"6545","","<div style=""width:500px;"">
  <p>What best describes how you currently feel?</p>
  </div>","98","html-slider-response","48","917659","0.0-5.0-4.7","129","1","2025-07-17 07:39:24","1f75c3e559b7213887762d5229550c2b","37.6.6.6","Mozilla/5.0 (Windows NT 10.0; Win64; x64; rv:140.0) Gecko/20100101 Firefox/140.0","","Firefox","140.0","Windows","10.0","https://app.prolific.com/","en-US,en;q=0.5","56e4b2e044b184000b894159","686e379bc37a29ffa5cdc956","6878a899119320ff35061966","1","1","56e4b2e044b184000b894159","1","1","2025-07-17T07:54:44.031Z","","","","","","","","","","","MotivationQ","","50","","","","","","","","","","","","","","","","","","","","","","","","","","","","",""
"","","","","ctl-task-cpt","49","1007912","0.0-5.0-0.8","129","1","2025-07-17 07:39:24","1f75c3e559b7213887762d5229550c2b","37.6.6.6","Mozilla/5.0 (Windows NT 10.0; Win64; x64; rv:140.0) Gecko/20100101 Firefox/140.0","","Firefox","140.0","Windows","10.0","https://app.prolific.com/","en-US,en;q=0.5","56e4b2e044b184000b894159","686e379bc37a29ffa5cdc956","6878a899119320ff35061966","1","1","56e4b2e044b184000b894159","1","1","2025-07-17T07:56:14.284Z","","","","","","","","","","","","","","win-only","0","g1:NW,g2:SE","0.2","9","0","920130","1407","6419","87249","1","4","8","6","2","-8","-9","15","24","0.11363636363636363","806","3000","-970","[""down"",""right""]","{""num_key_presses"":24,""num_perfect"":4,""num_errors"":1,""num_randdir"":19,""num_randdir_good_moves"":10,""num_whilered"":0,""num_whileblue"":1,""num_blue"":3,""num_good_moves"":14}","[420.3214133126395,418.8214362008231,1,420.3214133126395,418.8214362008231,107,420.3214133126395,418.8214362008231,218,420.3214133126395,418.8214362008231,333,486.5714133126395,518.8214362008231,436,655.3214133126395,672.5714362008231,542,714.0714133126395,728.8214362008231,642,754.0714133126395,778.8214362008231,750,754.0714133126395,783.8214362008231,853,746.5714133126395,785.0714362008231,961,750.3214133126395,775.0714362008231,1073,932.8214133126395,718.8214362008231,1176,1012.8214133126395,698.8214362008231,1280,1069.0714133126396,668.8214362008231,1383,1109.0714133126396,612.5714362008231,1496,1141.5714133126396,588.8214362008231,1608,1141.5714133126396,588.8214362008231,1720,1141.5714133126396,588.8214362008231,1833,1141.5714133126396,588.8214362008231,1937,1141.5714133126396,588.8214362008231,2047,1141.5714133126396,588.8214362008231,2156,1141.5714133126396,588.8214362008231,2265,1141.5714133126396,588.8214362008231,2374,1141.5714133126396,588.8214362008231,2480,1141.5714133126396,588.8214362008231,2589,1141.5714133126396,588.8214362008231,2699,1141.5714133126396,588.8214362008231,2803,1141.5714133126396,588.8214362008231,2914,1141.5714133126396,588.8214362008231,3022,1141.5714133126396,588.8214362008231,3131,1141.5714133126396,588.8214362008231,3239,1141.5714133126396,588.8214362008231,3349,1141.5714133126396,588.8214362008231,3457,1141.5714133126396,588.8214362008231,3564,1141.5714133126396,588.8214362008231,3671,1141.5714133126396,588.8214362008231,3780,1141.5714133126396,588.8214362008231,3886,1141.5714133126396,588.8214362008231,3995,1141.5714133126396,588.8214362008231,4103,1141.5714133126396,588.8214362008231,4210,1141.5714133126396,588.8214362008231,4321,1141.5714133126396,588.8214362008231,4429,1141.5714133126396,588.8214362008231,4536,1141.5714133126396,588.8214362008231,4643,1141.5714133126396,588.8214362008231,4751,1141.5714133126396,588.8214362008231,4860,1141.5714133126396,588.8214362008231,4966]","[1402,1402,1000,0,402,""oops"",""right"",""left"",""bad_move"",4408,3006,2442.6,1402,563.4,""oops"",""down"",""left"",""bad_move"",8112,3704,3255.1,4408,448.9,""oops"",""down"",""down"",""good_move"",11315,3203,2827.6,8112,375.4,""oops"",""right"",""down"",""good_move"",14371,3056,2664.7,11315,391.3,""oops"",""right"",""down"",""good_move"",17274,2903,2495.8,14371,407.2,""smooth"",""right"",""right"",""good_move"",20160,2886,2441.1,17274,444.9,""oops"",""right"",""up"",""bad_move"",23258,3098,2349.9,20160,748.1,""oops"",""right"",""left"",""bad_move"",26421,3163,2718,23258,445,""while_blue"",""right"",""up"",""bad_move"",36457,10035,2906.1,33124,426.9,""oops"",""right"",""right"",""good_move"",39814,3357,2952,36457,405,""smooth"",""right"",""right"",""good_move"",42150,2336,1768.7,39814,567.3,""oops"",""right"",""right"",""good_move"",45192,3042,2615,42150,427,""smooth"",""right"",""right"",""good_move"",48209,3017,2602.2,45192,414.8,""smooth"",""right"",""right"",""good_move"",51108,2899,2509.6,48209,389.4,""oops"",""down"",""left"",""bad_move"",54838,3730,3303.6,51108,426.4,""oops"",""down"",""up"",""bad_move"",57802,2963,1900.5,54839,1062.5,""oops"",""down"",""right"",""good_move"",59938,2136,1743.8,57802,392.2,""oops"",""down"",""down"",""good_move"",62286,2347,2019.5,59939,327.5,""oops"",""down"",""down"",""good_move"",65259,2973,2575.6,62286,397.4,""oops"",""down"",""left"",""bad_move"",68769,3510,3133.6,65259,376.4,""oops"",""down"",""left"",""bad_move"",72008,3239,1912.5,68769,1326.5,""oops"",""down"",""right"",""good_move"",74931,2923,2567.3,72008,355.7,""oops"",""down"",""down"",""good_move"",77897,2966,2598.4,74931,367.6,""oops"",""right"",""up"",""bad_move""]","",""
"8859","","<div style=""width:500px;"">
  <p>What determined the result of this run?</p>
  </div>","15","html-slider-response","50","1016772","0.0-5.0-1.8","129","1","2025-07-17 07:39:24","1f75c3e559b7213887762d5229550c2b","37.6.6.6","Mozilla/5.0 (Windows NT 10.0; Win64; x64; rv:140.0) Gecko/20100101 Firefox/140.0","","Firefox","140.0","Windows","10.0","https://app.prolific.com/","en-US,en;q=0.5","56e4b2e044b184000b894159","686e379bc37a29ffa5cdc956","6878a899119320ff35061966","1","1","56e4b2e044b184000b894159","1","1","2025-07-17T07:56:23.145Z","","","","","","","","","","","AttribQ","","50","","","","","","","","","","","","","","","","","","","","","","","","","","","","",""
"6413","","<div style=""width:500px;"">
  <p>How much control did you have over the ball?</p>
  </div>","9","html-slider-response","51","1023186","0.0-5.0-2.8","129","1","2025-07-17 07:39:24","1f75c3e559b7213887762d5229550c2b","37.6.6.6","Mozilla/5.0 (Windows NT 10.0; Win64; x64; rv:140.0) Gecko/20100101 Firefox/140.0","","Firefox","140.0","Windows","10.0","https://app.prolific.com/","en-US,en;q=0.5","56e4b2e044b184000b894159","686e379bc37a29ffa5cdc956","6878a899119320ff35061966","1","1","56e4b2e044b184000b894159","1","1","2025-07-17T07:56:29.558Z","","","","","","","","","","","ControlQ","","50","","","","","","","","","","","","","","","","","","","","","","","","","","","","",""
"14932","","<div style=""width:500px;"">
  <p>How would you describe your current emotional state?</p>
  </div>","38","html-slider-response","52","1038118","0.0-5.0-3.8","129","1","2025-07-17 07:39:24","1f75c3e559b7213887762d5229550c2b","37.6.6.6","Mozilla/5.0 (Windows NT 10.0; Win64; x64; rv:140.0) Gecko/20100101 Firefox/140.0","","Firefox","140.0","Windows","10.0","https://app.prolific.com/","en-US,en;q=0.5","56e4b2e044b184000b894159","686e379bc37a29ffa5cdc956","6878a899119320ff35061966","1","1","56e4b2e044b184000b894159","1","1","2025-07-17T07:56:44.490Z","","","","","","","","","","","StressQ","","50","","","","","","","","","","","","","","","","","","","","","","","","","","","","",""
"3483","","<div style=""width:500px;"">
  <p>What best describes how you currently feel?</p>
  </div>","97","html-slider-response","53","1041602","0.0-5.0-4.8","129","1","2025-07-17 07:39:24","1f75c3e559b7213887762d5229550c2b","37.6.6.6","Mozilla/5.0 (Windows NT 10.0; Win64; x64; rv:140.0) Gecko/20100101 Firefox/140.0","","Firefox","140.0","Windows","10.0","https://app.prolific.com/","en-US,en;q=0.5","56e4b2e044b184000b894159","686e379bc37a29ffa5cdc956","6878a899119320ff35061966","1","1","56e4b2e044b184000b894159","1","1","2025-07-17T07:56:47.974Z","","","","","","","","","","","MotivationQ","","50","","","","","","","","","","","","","","","","","","","","","","","","","","","","",""
"","","","","ctl-task-cpt","54","1135015","0.0-5.0-0.9","129","1","2025-07-17 07:39:24","1f75c3e559b7213887762d5229550c2b","37.6.6.6","Mozilla/5.0 (Windows NT 10.0; Win64; x64; rv:140.0) Gecko/20100101 Firefox/140.0","","Firefox","140.0","Windows","10.0","https://app.prolific.com/","en-US,en;q=0.5","56e4b2e044b184000b894159","686e379bc37a29ffa5cdc956","6878a899119320ff35061966","1","1","56e4b2e044b184000b894159","1","1","2025-07-17T07:58:21.387Z","","","","","","","","","","","","","","win-only","2","g1:SE,g2:NW","0.4","10","0","1044073","1017","6019","90397","1","4","4","6","2","-4","-5","10","15","0.07575757575757576","768","3000","-970","[""left"",""up""]","{""num_key_presses"":24,""num_perfect"":9,""num_errors"":1,""num_randdir"":14,""num_randdir_good_moves"":4,""num_whilered"":0,""num_whileblue"":0,""num_blue"":3,""num_good_moves"":13}","[419.0714133126395,418.8214362008231,0,419.0714133126395,418.8214362008231,107,421.5714133126395,417.5714362008231,215,421.5714133126395,417.5714362008231,326,359.0714133126395,303.8214362008231,434,147.8214133126395,108.8214362008231,544,117.8214133126395,70.0714362008231,651,102.8214133126395,56.3214362008231,760,102.8214133126395,56.3214362008231,868,102.8214133126395,56.3214362008231,978,57.82141331263951,100.0714362008231,1086,-93.4285866873605,188.8214362008231,1197,-114.6785866873605,200.0714362008231,1305,-75.9285866873605,183.8214362008231,1414,-75.9285866873605,183.8214362008231,1522,-75.9285866873605,183.8214362008231,1628,-75.9285866873605,183.8214362008231,1738,-75.9285866873605,183.8214362008231,1848,-75.9285866873605,183.8214362008231,1957,-75.9285866873605,183.8214362008231,2065,-75.9285866873605,183.8214362008231,2173,-75.9285866873605,183.8214362008231,2281,-75.9285866873605,183.8214362008231,2387,-75.9285866873605,183.8214362008231,2496,-75.9285866873605,183.8214362008231,2603,-75.9285866873605,183.8214362008231,2710,-75.9285866873605,183.8214362008231,2818,-75.9285866873605,183.8214362008231,2927,-75.9285866873605,183.8214362008231,3035,-75.9285866873605,183.8214362008231,3144,-75.9285866873605,183.8214362008231,3252,-75.9285866873605,183.8214362008231,3362,-75.9285866873605,183.8214362008231,3470,-75.9285866873605,183.8214362008231,3579,-75.9285866873605,183.8214362008231,3687,-75.9285866873605,183.8214362008231,3794,-75.9285866873605,183.8214362008231,3901,-75.9285866873605,183.8214362008231,4010,-75.9285866873605,183.8214362008231,4118,-75.9285866873605,183.8214362008231,4226,-75.9285866873605,183.8214362008231,4335,-75.9285866873605,183.8214362008231,4445,-75.9285866873605,183.8214362008231,4552,-75.9285866873605,183.8214362008231,4662,-75.9285866873605,183.8214362008231,4770,-75.9285866873605,183.8214362008231,4880,-75.9285866873605,183.8214362008231,4987]","[1445,1445,1000,0,445,""smooth"",""left"",""left"",""good_move"",4518,3073,2603.6,1445,469.4,""oops"",""left"",""down"",""bad_move"",7243,2725,2355.2,4518,369.8,""smooth"",""left"",""left"",""good_move"",10345,3102,2468.5,7243,633.5,""smooth"",""left"",""left"",""good_move"",13382,3037,2538.6,10345,498.4,""oops"",""up"",""right"",""bad_move"",19054,5672,2168.6,16459,426.4,""smooth"",""up"",""up"",""good_move"",22063,3009,1763.7,19054,1245.3,""oops"",""up"",""right"",""bad_move"",24750,2687,2339.7,22063,347.3,""oops"",""up"",""up"",""good_move"",28040,3290,2911.4,24750,378.6,""oops"",""up"",""down"",""bad_move"",30434,2394,2028.3,28040,365.7,""oops"",""up"",""right"",""bad_move"",33259,2825,2485.5,30434,339.5,""smooth"",""left"",""left"",""good_move"",36312,3053,1856.4,33259,1196.6,""smooth"",""left"",""left"",""good_move"",43532,7220,2371.1,40670,490.9,""smooth"",""left"",""left"",""good_move"",46596,3064,2195.2,43532,868.8,""smooth"",""up"",""up"",""good_move"",50049,3453,2941.7,46596,511.3,""oops"",""up"",""down"",""bad_move"",52980,2931,2568.7,50049,362.3,""oops"",""up"",""up"",""good_move"",56048,3068,2127.9,52980,940.1,""oops"",""up"",""up"",""good_move"",59087,3039,2389.6,56048,649.4,""oops"",""up"",""down"",""bad_move"",62227,3139,2763.3,59088,375.7,""oops"",""up"",""down"",""bad_move"",65441,3214,2854.5,62227,359.5,""oops"",""up"",""up"",""good_move"",68500,3059,2705.1,65441,353.9,""oops"",""up"",""down"",""bad_move"",70587,2087,2764.7,68500,-677.7,""error"",""-"",""-"",""no_move"",75119,4532,3135.5,71589,394.5,""oops"",""up"",""down"",""bad_move"",77782,2663,2127.4,75119,535.6,""smooth"",""up"",""up"",""good_move""]","",""
"9096","","<div style=""width:500px;"">
  <p>What determined the result of this run?</p>
  </div>","19","html-slider-response","55","1144110","0.0-5.0-1.9","129","1","2025-07-17 07:39:24","1f75c3e559b7213887762d5229550c2b","37.6.6.6","Mozilla/5.0 (Windows NT 10.0; Win64; x64; rv:140.0) Gecko/20100101 Firefox/140.0","","Firefox","140.0","Windows","10.0","https://app.prolific.com/","en-US,en;q=0.5","56e4b2e044b184000b894159","686e379bc37a29ffa5cdc956","6878a899119320ff35061966","1","1","56e4b2e044b184000b894159","1","1","2025-07-17T07:58:30.482Z","","","","","","","","","","","AttribQ","","50","","","","","","","","","","","","","","","","","","","","","","","","","","","","",""
"8295","","<div style=""width:500px;"">
  <p>How much control did you have over the ball?</p>
  </div>","18","html-slider-response","56","1152407","0.0-5.0-2.9","129","1","2025-07-17 07:39:24","1f75c3e559b7213887762d5229550c2b","37.6.6.6","Mozilla/5.0 (Windows NT 10.0; Win64; x64; rv:140.0) Gecko/20100101 Firefox/140.0","","Firefox","140.0","Windows","10.0","https://app.prolific.com/","en-US,en;q=0.5","56e4b2e044b184000b894159","686e379bc37a29ffa5cdc956","6878a899119320ff35061966","1","1","56e4b2e044b184000b894159","1","1","2025-07-17T07:58:38.779Z","","","","","","","","","","","ControlQ","","50","","","","","","","","","","","","","","","","","","","","","","","","","","","","",""
"7067","","<div style=""width:500px;"">
  <p>How would you describe your current emotional state?</p>
  </div>","63","html-slider-response","57","1159475","0.0-5.0-3.9","129","1","2025-07-17 07:39:24","1f75c3e559b7213887762d5229550c2b","37.6.6.6","Mozilla/5.0 (Windows NT 10.0; Win64; x64; rv:140.0) Gecko/20100101 Firefox/140.0","","Firefox","140.0","Windows","10.0","https://app.prolific.com/","en-US,en;q=0.5","56e4b2e044b184000b894159","686e379bc37a29ffa5cdc956","6878a899119320ff35061966","1","1","56e4b2e044b184000b894159","1","1","2025-07-17T07:58:45.847Z","","","","","","","","","","","StressQ","","50","","","","","","","","","","","","","","","","","","","","","","","","","","","","",""
"6086","","<div style=""width:500px;"">
  <p>What best describes how you currently feel?</p>
  </div>","97","html-slider-response","58","1165562","0.0-5.0-4.9","129","1","2025-07-17 07:39:24","1f75c3e559b7213887762d5229550c2b","37.6.6.6","Mozilla/5.0 (Windows NT 10.0; Win64; x64; rv:140.0) Gecko/20100101 Firefox/140.0","","Firefox","140.0","Windows","10.0","https://app.prolific.com/","en-US,en;q=0.5","56e4b2e044b184000b894159","686e379bc37a29ffa5cdc956","6878a899119320ff35061966","1","1","56e4b2e044b184000b894159","1","1","2025-07-17T07:58:51.934Z","","","","","","","","","","","MotivationQ","","50","","","","","","","","","","","","","","","","","","","","","","","","","","","","",""
"","","","","ctl-task-cpt","59","1209920","0.0-5.0-0.10","129","1","2025-07-17 07:39:24","1f75c3e559b7213887762d5229550c2b","37.6.6.6","Mozilla/5.0 (Windows NT 10.0; Win64; x64; rv:140.0) Gecko/20100101 Firefox/140.0","","Firefox","140.0","Windows","10.0","https://app.prolific.com/","en-US,en;q=0.5","56e4b2e044b184000b894159","686e379bc37a29ffa5cdc956","6878a899119320ff35061966","1","1","56e4b2e044b184000b894159","1","1","2025-07-17T07:59:36.292Z","","","","","","","","","","","","","","win-only","2","g1:SE,g2:NW","0.5","11","0","1168033","1156","6161","41347","1","4","4","6","2","4","4","14","10","0.10606060606060606","905","3000","1920","[""left"",""up""]","{""num_key_presses"":8,""num_perfect"":5,""num_errors"":0,""num_randdir"":3,""num_randdir_good_moves"":2,""num_whilered"":0,""num_whileblue"":0,""num_blue"":4,""num_good_moves"":7}","[415.3214133126395,426.3214362008231,0,415.3214133126395,426.3214362008231,100,415.3214133126395,426.3214362008231,212,415.3214133126395,426.3214362008231,315,400.3214133126395,423.8214362008231,426,404.0714133126395,423.8214362008231,538,199.0714133126395,222.5714362008231,648,94.0714133126395,120.0714362008231,759,69.0714133126395,75.0714362008231,870,66.5714133126395,71.3214362008231,982,66.5714133126395,71.3214362008231,1094,57.82141331263951,200.0714362008231,1205,-54.67858668736049,347.5714362008231,1316,-172.1785866873605,352.5714362008231,1427,-427.1785866873605,371.3214362008231,1539,-419.6785866873605,365.0714362008231,1650,-419.6785866873605,365.0714362008231,1762,-419.6785866873605,365.0714362008231,1874,-419.6785866873605,365.0714362008231,1985,-419.6785866873605,365.0714362008231,2096,-419.6785866873605,365.0714362008231,2208,-419.6785866873605,365.0714362008231,2318,-419.6785866873605,365.0714362008231,2427,-419.6785866873605,365.0714362008231,2536,-419.6785866873605,365.0714362008231,2643,-419.6785866873605,365.0714362008231,2753,-419.6785866873605,365.0714362008231,2862,-419.6785866873605,365.0714362008231,2969,-419.6785866873605,365.0714362008231,3077,-419.6785866873605,365.0714362008231,3186,-419.6785866873605,365.0714362008231,3296,-419.6785866873605,365.0714362008231,3404,-419.6785866873605,365.0714362008231,3512,-419.6785866873605,365.0714362008231,3620,-419.6785866873605,365.0714362008231,3728,-419.6785866873605,365.0714362008231,3837,-419.6785866873605,365.0714362008231,3946,-419.6785866873605,365.0714362008231,4053,-419.6785866873605,365.0714362008231,4163,-419.6785866873605,365.0714362008231,4271,-419.6785866873605,365.0714362008231,4382,-419.6785866873605,365.0714362008231,4492,-419.6785866873605,365.0714362008231,4600,-419.6785866873605,365.0714362008231,4709,-419.6785866873605,365.0714362008231,4817,-419.6785866873605,365.0714362008231,4928]","[6990,6990,1689.4,4893,407.6,""oops"",""left"",""up"",""good_move"",16742,9752,2408.5,13952,381.5,""smooth"",""left"",""left"",""good_move"",19814,3072,2430.1,16742,641.9,""oops"",""left"",""right"",""bad_move"",22481,2667,2027.3,19814,639.7,""smooth"",""left"",""left"",""good_move"",25453,2972,2442.8,22481,529.2,""smooth"",""left"",""left"",""good_move"",28461,3008,2561.6,25453,446.4,""smooth"",""left"",""left"",""good_move"",31744,3283,2860.2,28461,422.8,""smooth"",""up"",""up"",""good_move"",34926,3182,2784.1,31744,397.9,""oops"",""up"",""up"",""good_move""]","",""
"19676","","<div style=""width:500px;"">
  <p>What determined the result of this run?</p>
  </div>","56","html-slider-response","60","1229597","0.0-5.0-1.10","129","1","2025-07-17 07:39:24","1f75c3e559b7213887762d5229550c2b","37.6.6.6","Mozilla/5.0 (Windows NT 10.0; Win64; x64; rv:140.0) Gecko/20100101 Firefox/140.0","","Firefox","140.0","Windows","10.0","https://app.prolific.com/","en-US,en;q=0.5","56e4b2e044b184000b894159","686e379bc37a29ffa5cdc956","6878a899119320ff35061966","1","1","56e4b2e044b184000b894159","1","1","2025-07-17T07:59:55.969Z","","","","","","","","","","","AttribQ","","50","","","","","","","","","","","","","","","","","","","","","","","","","","","","",""
"4467","","<div style=""width:500px;"">
  <p>How much control did you have over the ball?</p>
  </div>","88","html-slider-response","61","1234065","0.0-5.0-2.10","129","1","2025-07-17 07:39:24","1f75c3e559b7213887762d5229550c2b","37.6.6.6","Mozilla/5.0 (Windows NT 10.0; Win64; x64; rv:140.0) Gecko/20100101 Firefox/140.0","","Firefox","140.0","Windows","10.0","https://app.prolific.com/","en-US,en;q=0.5","56e4b2e044b184000b894159","686e379bc37a29ffa5cdc956","6878a899119320ff35061966","1","1","56e4b2e044b184000b894159","1","1","2025-07-17T08:00:00.437Z","","","","","","","","","","","ControlQ","","50","","","","","","","","","","","","","","","","","","","","","","","","","","","","",""
"6645","","<div style=""width:500px;"">
  <p>How would you describe your current emotional state?</p>
  </div>","45","html-slider-response","62","1240712","0.0-5.0-3.10","129","1","2025-07-17 07:39:24","1f75c3e559b7213887762d5229550c2b","37.6.6.6","Mozilla/5.0 (Windows NT 10.0; Win64; x64; rv:140.0) Gecko/20100101 Firefox/140.0","","Firefox","140.0","Windows","10.0","https://app.prolific.com/","en-US,en;q=0.5","56e4b2e044b184000b894159","686e379bc37a29ffa5cdc956","6878a899119320ff35061966","1","1","56e4b2e044b184000b894159","1","1","2025-07-17T08:00:07.084Z","","","","","","","","","","","StressQ","","50","","","","","","","","","","","","","","","","","","","","","","","","","","","","",""
"3315","","<div style=""width:500px;"">
  <p>What best describes how you currently feel?</p>
  </div>","99","html-slider-response","63","1244027","0.0-5.0-4.10","129","1","2025-07-17 07:39:24","1f75c3e559b7213887762d5229550c2b","37.6.6.6","Mozilla/5.0 (Windows NT 10.0; Win64; x64; rv:140.0) Gecko/20100101 Firefox/140.0","","Firefox","140.0","Windows","10.0","https://app.prolific.com/","en-US,en;q=0.5","56e4b2e044b184000b894159","686e379bc37a29ffa5cdc956","6878a899119320ff35061966","1","1","56e4b2e044b184000b894159","1","1","2025-07-17T08:00:10.399Z","","","","","","","","","","","MotivationQ","","50","","","","","","","","","","","","","","","","","","","","","","","","","","","","",""
"","","","","ctl-task-cpt","64","1279540","0.0-5.0-0.11","129","1","2025-07-17 07:39:24","1f75c3e559b7213887762d5229550c2b","37.6.6.6","Mozilla/5.0 (Windows NT 10.0; Win64; x64; rv:140.0) Gecko/20100101 Firefox/140.0","","Firefox","140.0","Windows","10.0","https://app.prolific.com/","en-US,en;q=0.5","56e4b2e044b184000b894159","686e379bc37a29ffa5cdc956","6878a899119320ff35061966","1","1","56e4b2e044b184000b894159","1","1","2025-07-17T08:00:45.912Z","","","","","","","","","","","","","","win-only","0","g1:NW,g2:SE","0.6","12","0","1246499","1768","6771","32505","1","4","8","6","2","8","8","22","14","0.16666666666666666","786","3000","1880","[""down"",""right""]","{""num_key_presses"":8,""num_perfect"":5,""num_errors"":0,""num_randdir"":3,""num_randdir_good_moves"":2,""num_whilered"":0,""num_whileblue"":0,""num_blue"":1,""num_good_moves"":7}","[417.8214133126395,421.3214362008231,1,417.8214133126395,421.3214362008231,106,417.8214133126395,421.3214362008231,207,417.8214133126395,421.3214362008231,312,431.5714133126395,433.8214362008231,417,644.0714133126395,626.3214362008231,521,766.5714133126395,725.0714362008231,628,812.8214133126395,773.8214362008231,730,817.8214133126395,778.8214362008231,833,816.5714133126395,780.0714362008231,937,812.8214133126395,776.3214362008231,1047,836.5714133126395,685.0714362008231,1147,949.0714133126395,556.3214362008231,1254,1001.5714133126395,522.5714362008231,1363,1027.8214133126396,487.5714362008231,1471,1027.8214133126396,487.5714362008231,1580,1027.8214133126396,487.5714362008231,1688,1027.8214133126396,487.5714362008231,1797,1027.8214133126396,487.5714362008231,1904,1027.8214133126396,487.5714362008231,2013,1027.8214133126396,487.5714362008231,2121,1027.8214133126396,487.5714362008231,2228,1027.8214133126396,487.5714362008231,2337,1027.8214133126396,487.5714362008231,2445,1027.8214133126396,487.5714362008231,2554,1027.8214133126396,487.5714362008231,2663,1027.8214133126396,487.5714362008231,2772,1027.8214133126396,487.5714362008231,2881,1027.8214133126396,487.5714362008231,2989,1027.8214133126396,487.5714362008231,3097,1027.8214133126396,487.5714362008231,3201,1027.8214133126396,487.5714362008231,3304,1027.8214133126396,487.5714362008231,3407,1027.8214133126396,487.5714362008231,3519,1027.8214133126396,487.5714362008231,3631,1027.8214133126396,487.5714362008231,3737,1027.8214133126396,487.5714362008231,3848,1027.8214133126396,487.5714362008231,3955,1027.8214133126396,487.5714362008231,4068,1027.8214133126396,487.5714362008231,4170,1027.8214133126396,487.5714362008231,4282,1027.8214133126396,487.5714362008231,4387,1027.8214133126396,487.5714362008231,4495,1027.8214133126396,487.5714362008231,4595,1027.8214133126396,487.5714362008231,4704,1027.8214133126396,487.5714362008231,4811,1027.8214133126396,487.5714362008231,4920]","[1406,1407,1000,0,407,""smooth"",""right"",""right"",""good_move"",4669,3262,2726.3,1407,535.7,""oops"",""right"",""right"",""good_move"",7061,2392,1821.8,4669,570.2,""oops"",""right"",""up"",""bad_move"",10168,3107,1817.3,7061,1289.7,""smooth"",""down"",""down"",""good_move"",12917,2749,2322.1,10168,426.9,""smooth"",""down"",""down"",""good_move"",16261,3344,2978.5,12917,365.5,""smooth"",""down"",""down"",""good_move"",22172,5911,2277.8,19397,497.2,""smooth"",""down"",""down"",""good_move"",25437,3265,2779.4,22172,485.6,""oops"",""right"",""right"",""good_move""]","",""
"9348","","<div style=""width:500px;"">
  <p>What determined the result of this run?</p>
  </div>","58","html-slider-response","65","1288891","0.0-5.0-1.11","129","1","2025-07-17 07:39:24","1f75c3e559b7213887762d5229550c2b","37.6.6.6","Mozilla/5.0 (Windows NT 10.0; Win64; x64; rv:140.0) Gecko/20100101 Firefox/140.0","","Firefox","140.0","Windows","10.0","https://app.prolific.com/","en-US,en;q=0.5","56e4b2e044b184000b894159","686e379bc37a29ffa5cdc956","6878a899119320ff35061966","1","1","56e4b2e044b184000b894159","1","1","2025-07-17T08:00:55.263Z","","","","","","","","","","","AttribQ","","50","","","","","","","","","","","","","","","","","","","","","","","","","","","","",""
"4258","","<div style=""width:500px;"">
  <p>How much control did you have over the ball?</p>
  </div>","89","html-slider-response","66","1293150","0.0-5.0-2.11","129","1","2025-07-17 07:39:24","1f75c3e559b7213887762d5229550c2b","37.6.6.6","Mozilla/5.0 (Windows NT 10.0; Win64; x64; rv:140.0) Gecko/20100101 Firefox/140.0","","Firefox","140.0","Windows","10.0","https://app.prolific.com/","en-US,en;q=0.5","56e4b2e044b184000b894159","686e379bc37a29ffa5cdc956","6878a899119320ff35061966","1","1","56e4b2e044b184000b894159","1","1","2025-07-17T08:00:59.522Z","","","","","","","","","","","ControlQ","","50","","","","","","","","","","","","","","","","","","","","","","","","","","","","",""
"12110","","<div style=""width:500px;"">
  <p>How would you describe your current emotional state?</p>
  </div>","32","html-slider-response","67","1305261","0.0-5.0-3.11","129","1","2025-07-17 07:39:24","1f75c3e559b7213887762d5229550c2b","37.6.6.6","Mozilla/5.0 (Windows NT 10.0; Win64; x64; rv:140.0) Gecko/20100101 Firefox/140.0","","Firefox","140.0","Windows","10.0","https://app.prolific.com/","en-US,en;q=0.5","56e4b2e044b184000b894159","686e379bc37a29ffa5cdc956","6878a899119320ff35061966","1","1","56e4b2e044b184000b894159","1","1","2025-07-17T08:01:11.634Z","","","","","","","","","","","StressQ","","50","","","","","","","","","","","","","","","","","","","","","","","","","","","","",""
"3558","","<div style=""width:500px;"">
  <p>What best describes how you currently feel?</p>
  </div>","98","html-slider-response","68","1308822","0.0-5.0-4.11","129","1","2025-07-17 07:39:24","1f75c3e559b7213887762d5229550c2b","37.6.6.6","Mozilla/5.0 (Windows NT 10.0; Win64; x64; rv:140.0) Gecko/20100101 Firefox/140.0","","Firefox","140.0","Windows","10.0","https://app.prolific.com/","en-US,en;q=0.5","56e4b2e044b184000b894159","686e379bc37a29ffa5cdc956","6878a899119320ff35061966","1","1","56e4b2e044b184000b894159","1","1","2025-07-17T08:01:15.194Z","","","","","","","","","","","MotivationQ","","50","","","","","","","","","","","","","","","","","","","","","","","","","","","","",""
"","","","","ctl-task-cpt","69","1344433","0.0-5.0-0.12","129","1","2025-07-17 07:39:24","1f75c3e559b7213887762d5229550c2b","37.6.6.6","Mozilla/5.0 (Windows NT 10.0; Win64; x64; rv:140.0) Gecko/20100101 Firefox/140.0","","Firefox","140.0","Windows","10.0","https://app.prolific.com/","en-US,en;q=0.5","56e4b2e044b184000b894159","686e379bc37a29ffa5cdc956","6878a899119320ff35061966","1","1","56e4b2e044b184000b894159","1","1","2025-07-17T08:01:50.805Z","","","","","","","","","","","","","","win-only","2","g1:SE,g2:NW","0.7","13","0","1311293","735","5746","32603","1","4","4","6","2","4","4","26","22","0.19696969696969696","858","3000","1980","[""left"",""up""]","{""num_key_presses"":8,""num_perfect"":7,""num_errors"":0,""num_randdir"":1,""num_randdir_good_moves"":0,""num_whilered"":0,""num_whileblue"":0,""num_blue"":1,""num_good_moves"":7}","[419.0714133126395,418.8214362008231,0,419.0714133126395,418.8214362008231,104,419.0714133126395,418.8214362008231,215,419.0714133126395,418.8214362008231,325,407.8214133126395,398.8214362008231,437,225.3214133126395,217.5714362008231,548,189.0714133126395,152.5714362008231,661,117.8214133126395,92.5714362008231,772,86.5714133126395,73.8214362008231,882,90.3214133126395,75.0714362008231,993,-65.9285866873605,253.8214362008231,1104,-225.9285866873605,338.8214362008231,1216,-228.4285866873605,338.8214362008231,1326,-204.6785866873605,328.8214362008231,1428,-170.9285866873605,323.8214362008231,1540,-170.9285866873605,323.8214362008231,1651,-170.9285866873605,323.8214362008231,1763,-170.9285866873605,323.8214362008231,1876,-170.9285866873605,323.8214362008231,1989,-170.9285866873605,323.8214362008231,2099,-170.9285866873605,323.8214362008231,2209,-170.9285866873605,323.8214362008231,2323,-170.9285866873605,323.8214362008231,2433,-170.9285866873605,323.8214362008231,2542,-170.9285866873605,323.8214362008231,2651,-170.9285866873605,323.8214362008231,2760,-170.9285866873605,323.8214362008231,2867,-170.9285866873605,323.8214362008231,2977,-170.9285866873605,323.8214362008231,3085,-170.9285866873605,323.8214362008231,3194,-170.9285866873605,323.8214362008231,3302,-170.9285866873605,323.8214362008231,3411,-170.9285866873605,323.8214362008231,3520,-170.9285866873605,323.8214362008231,3627,-170.9285866873605,323.8214362008231,3735,-170.9285866873605,323.8214362008231,3844,-170.9285866873605,323.8214362008231,3952,-170.9285866873605,323.8214362008231,4061,-170.9285866873605,323.8214362008231,4170,-170.9285866873605,323.8214362008231,4280,-170.9285866873605,323.8214362008231,4389,-170.9285866873605,323.8214362008231,4499,-170.9285866873605,323.8214362008231,4607,-170.9285866873605,323.8214362008231,4715,-170.9285866873605,323.8214362008231,4825,-170.9285866873605,323.8214362008231,4935]","[1442,1442,1000,0,442,""smooth"",""left"",""left"",""good_move"",4486,3043,2415.4,1443,627.6,""smooth"",""left"",""left"",""good_move"",7505,3019,2536.1,4486,482.9,""smooth"",""left"",""left"",""good_move"",14709,7204,2719.7,11545,444.3,""oops"",""up"",""down"",""bad_move"",17198,2489,2107.2,14709,381.8,""smooth"",""up"",""up"",""good_move"",20587,3389,2981.2,17198,407.8,""smooth"",""up"",""up"",""good_move"",23573,2986,2301.2,20587,684.8,""smooth"",""up"",""up"",""good_move"",26576,3003,2056.4,23573,946.6,""smooth"",""up"",""up"",""good_move""]","",""
"9296","","<div style=""width:500px;"">
  <p>What determined the result of this run?</p>
  </div>","59","html-slider-response","70","1353730","0.0-5.0-1.12","129","1","2025-07-17 07:39:24","1f75c3e559b7213887762d5229550c2b","37.6.6.6","Mozilla/5.0 (Windows NT 10.0; Win64; x64; rv:140.0) Gecko/20100101 Firefox/140.0","","Firefox","140.0","Windows","10.0","https://app.prolific.com/","en-US,en;q=0.5","56e4b2e044b184000b894159","686e379bc37a29ffa5cdc956","6878a899119320ff35061966","1","1","56e4b2e044b184000b894159","1","1","2025-07-17T08:02:00.102Z","","","","","","","","","","","AttribQ","","50","","","","","","","","","","","","","","","","","","","","","","","","","","","","",""
"6606","","<div style=""width:500px;"">
  <p>How much control did you have over the ball?</p>
  </div>","90","html-slider-response","71","1360336","0.0-5.0-2.12","129","1","2025-07-17 07:39:24","1f75c3e559b7213887762d5229550c2b","37.6.6.6","Mozilla/5.0 (Windows NT 10.0; Win64; x64; rv:140.0) Gecko/20100101 Firefox/140.0","","Firefox","140.0","Windows","10.0","https://app.prolific.com/","en-US,en;q=0.5","56e4b2e044b184000b894159","686e379bc37a29ffa5cdc956","6878a899119320ff35061966","1","1","56e4b2e044b184000b894159","1","1","2025-07-17T08:02:06.708Z","","","","","","","","","","","ControlQ","","50","","","","","","","","","","","","","","","","","","","","","","","","","","","","",""
"7605","","<div style=""width:500px;"">
  <p>How would you describe your current emotional state?</p>
  </div>","23","html-slider-response","72","1367942","0.0-5.0-3.12","129","1","2025-07-17 07:39:24","1f75c3e559b7213887762d5229550c2b","37.6.6.6","Mozilla/5.0 (Windows NT 10.0; Win64; x64; rv:140.0) Gecko/20100101 Firefox/140.0","","Firefox","140.0","Windows","10.0","https://app.prolific.com/","en-US,en;q=0.5","56e4b2e044b184000b894159","686e379bc37a29ffa5cdc956","6878a899119320ff35061966","1","1","56e4b2e044b184000b894159","1","1","2025-07-17T08:02:14.314Z","","","","","","","","","","","StressQ","","50","","","","","","","","","","","","","","","","","","","","","","","","","","","","",""
"3225","","<div style=""width:500px;"">
  <p>What best describes how you currently feel?</p>
  </div>","98","html-slider-response","73","1371169","0.0-5.0-4.12","129","1","2025-07-17 07:39:24","1f75c3e559b7213887762d5229550c2b","37.6.6.6","Mozilla/5.0 (Windows NT 10.0; Win64; x64; rv:140.0) Gecko/20100101 Firefox/140.0","","Firefox","140.0","Windows","10.0","https://app.prolific.com/","en-US,en;q=0.5","56e4b2e044b184000b894159","686e379bc37a29ffa5cdc956","6878a899119320ff35061966","1","1","56e4b2e044b184000b894159","1","1","2025-07-17T08:02:17.541Z","","","","","","","","","","","MotivationQ","","50","","","","","","","","","","","","","","","","","","","","","","","","","","","","",""
"","","","","ctl-task-cpt","74","1405034","0.0-5.0-0.13","129","1","2025-07-17 07:39:24","1f75c3e559b7213887762d5229550c2b","37.6.6.6","Mozilla/5.0 (Windows NT 10.0; Win64; x64; rv:140.0) Gecko/20100101 Firefox/140.0","","Firefox","140.0","Windows","10.0","https://app.prolific.com/","en-US,en;q=0.5","56e4b2e044b184000b894159","686e379bc37a29ffa5cdc956","6878a899119320ff35061966","1","1","56e4b2e044b184000b894159","1","1","2025-07-17T08:02:51.406Z","","","","","","","","","","","","","","win-only","2","g1:SE,g2:NW","0.8","14","0","1373640","1019","6023","30853","1","4","8","6","2","8","8","34","26","0.25757575757575757","738","3000","2220","[""left"",""up""]","{""num_key_presses"":6,""num_perfect"":6,""num_errors"":0,""num_randdir"":0,""num_randdir_good_moves"":0,""num_whilered"":0,""num_whileblue"":0,""num_blue"":2,""num_good_moves"":6}","[412.8214133126395,415.0714362008231,0,412.8214133126395,415.0714362008231,100,412.8214133126395,415.0714362008231,209,416.5714133126395,413.8214362008231,316,414.0714133126395,392.5714362008231,424,125.3214133126395,75.0714362008231,532,107.8214133126395,51.3214362008231,641,95.3214133126395,43.8214362008231,748,95.3214133126395,43.8214362008231,860,49.07141331263951,68.8214362008231,970,-217.1785866873605,197.5714362008231,1082,-263.4285866873605,227.5714362008231,1192,-278.4285866873605,227.5714362008231,1304,-275.9285866873605,217.5714362008231,1415,-275.9285866873605,217.5714362008231,1527,-275.9285866873605,217.5714362008231,1640,-275.9285866873605,217.5714362008231,1750,-275.9285866873605,217.5714362008231,1862,-275.9285866873605,217.5714362008231,1974,-275.9285866873605,217.5714362008231,2085,-275.9285866873605,217.5714362008231,2195,-275.9285866873605,217.5714362008231,2307,-275.9285866873605,217.5714362008231,2418,-275.9285866873605,217.5714362008231,2529,-275.9285866873605,217.5714362008231,2642,-275.9285866873605,217.5714362008231,2753,-275.9285866873605,217.5714362008231,2862,-275.9285866873605,217.5714362008231,2971,-275.9285866873605,217.5714362008231,3079,-275.9285866873605,217.5714362008231,3188,-275.9285866873605,217.5714362008231,3296,-275.9285866873605,217.5714362008231,3404,-275.9285866873605,217.5714362008231,3513,-275.9285866873605,217.5714362008231,3623,-275.9285866873605,217.5714362008231,3732,-275.9285866873605,217.5714362008231,3842,-275.9285866873605,217.5714362008231,3947,-275.9285866873605,217.5714362008231,4058,-275.9285866873605,217.5714362008231,4165,-275.9285866873605,217.5714362008231,4275,-275.9285866873605,217.5714362008231,4383,-275.9285866873605,217.5714362008231,4493,-275.9285866873605,217.5714362008231,4601,-275.9285866873605,217.5714362008231,4709,-275.9285866873605,217.5714362008231,4812,-275.9285866873605,217.5714362008231,4925]","[1392,1392,1000,0,392,""smooth"",""left"",""left"",""good_move"",4448,3056,2038.6,1392,1017.4,""smooth"",""left"",""left"",""good_move"",7534,3086,2341.5,4448,744.5,""smooth"",""left"",""left"",""good_move"",10612,3078,1904,7534,1174,""smooth"",""up"",""up"",""good_move"",21406,10794,1988.3,18957,460.7,""smooth"",""up"",""up"",""good_move"",24556,3150,2339.1,21406,810.9,""smooth"",""up"",""up"",""good_move""]","",""
"6918","","<div style=""width:500px;"">
  <p>What determined the result of this run?</p>
  </div>","59","html-slider-response","75","1411953","0.0-5.0-1.13","129","1","2025-07-17 07:39:24","1f75c3e559b7213887762d5229550c2b","37.6.6.6","Mozilla/5.0 (Windows NT 10.0; Win64; x64; rv:140.0) Gecko/20100101 Firefox/140.0","","Firefox","140.0","Windows","10.0","https://app.prolific.com/","en-US,en;q=0.5","56e4b2e044b184000b894159","686e379bc37a29ffa5cdc956","6878a899119320ff35061966","1","1","56e4b2e044b184000b894159","1","1","2025-07-17T08:02:58.325Z","","","","","","","","","","","AttribQ","","50","","","","","","","","","","","","","","","","","","","","","","","","","","","","",""
"3903","","<div style=""width:500px;"">
  <p>How much control did you have over the ball?</p>
  </div>","100","html-slider-response","76","1415857","0.0-5.0-2.13","129","1","2025-07-17 07:39:24","1f75c3e559b7213887762d5229550c2b","37.6.6.6","Mozilla/5.0 (Windows NT 10.0; Win64; x64; rv:140.0) Gecko/20100101 Firefox/140.0","","Firefox","140.0","Windows","10.0","https://app.prolific.com/","en-US,en;q=0.5","56e4b2e044b184000b894159","686e379bc37a29ffa5cdc956","6878a899119320ff35061966","1","1","56e4b2e044b184000b894159","1","1","2025-07-17T08:03:02.229Z","","","","","","","","","","","ControlQ","","50","","","","","","","","","","","","","","","","","","","","","","","","","","","","",""
"5917","","<div style=""width:500px;"">
  <p>How would you describe your current emotional state?</p>
  </div>","11","html-slider-response","77","1421775","0.0-5.0-3.13","129","1","2025-07-17 07:39:24","1f75c3e559b7213887762d5229550c2b","37.6.6.6","Mozilla/5.0 (Windows NT 10.0; Win64; x64; rv:140.0) Gecko/20100101 Firefox/140.0","","Firefox","140.0","Windows","10.0","https://app.prolific.com/","en-US,en;q=0.5","56e4b2e044b184000b894159","686e379bc37a29ffa5cdc956","6878a899119320ff35061966","1","1","56e4b2e044b184000b894159","1","1","2025-07-17T08:03:08.147Z","","","","","","","","","","","StressQ","","50","","","","","","","","","","","","","","","","","","","","","","","","","","","","",""
"6311","","<div style=""width:500px;"">
  <p>What best describes how you currently feel?</p>
  </div>","99","html-slider-response","78","1428087","0.0-5.0-4.13","129","1","2025-07-17 07:39:24","1f75c3e559b7213887762d5229550c2b","37.6.6.6","Mozilla/5.0 (Windows NT 10.0; Win64; x64; rv:140.0) Gecko/20100101 Firefox/140.0","","Firefox","140.0","Windows","10.0","https://app.prolific.com/","en-US,en;q=0.5","56e4b2e044b184000b894159","686e379bc37a29ffa5cdc956","6878a899119320ff35061966","1","1","56e4b2e044b184000b894159","1","1","2025-07-17T08:03:14.460Z","","","","","","","","","","","MotivationQ","","50","","","","","","","","","","","","","","","","","","","","","","","","","","","","",""
