"rt","response_timestamp","stimulus","response","trial_type","trial_index","time_elapsed","internal_node_id","run_id","condition","recorded_at","source_code_version","ip","user_agent","device","browser","browser_version","platform","platform_version","referer","accept_language","PROLIFIC_PID","STUDY_ID","SESSION_ID","WEEK","BATCH","prolific_id","week","batch","realtime","success","responses","item_order","radio_event_ids","radio_event_times","key_event_times","mouse_event_times","straightlining","zigzagging","honeypot","eventType","view_history","slider_start","which_type","canvas_config","goals_layout","control_level","trial_number","tutorial_trial_number","trial_start_time","phase1_start_time","phase2_start_time","phase3_start_time","goal_1_value","goal_1_distance","goal_2_value","goal_2_distance","goal_selected","outcome","outcome_total","participant_final_score","participant_initial_score","participant_final_score_prop","goal_choice_rt","allocated_time","allocated_time_remaining","goal_direction","counts","mouse_movements","key_presses","question_order","question_id"
"138195","1752655186050","<p style='font-size:40px;line-height:1.25'><strong>Welcome to the experiment!</strong></p><p style='font-size:1.1em;line-height:1.25'>Thank you for participanting in our experiment again! You will be asked to play the Dysfunctional Ball Game again. We will briefly recap the rules before we start.</p><p style='font-size:1.1em;line-height:1.25'>Press <strong>Next</strong> to continue.</p>","0","custom-html-button-response","0","138196","0.0-0.0","78","1","2025-07-16 08:37:25","1f75c3e559b7213887762d5229550c2b","188.146.154.183","Mozilla/5.0 (Windows NT 10.0; Win64; x64) AppleWebKit/537.36 (KHTML, like Gecko) Chrome/138.0.0.0 Safari/537.36","WebKit","Chrome","138.0.0.0","Windows","10.0","https://app.prolific.com/","pl-PL,pl;q=0.9,en-US;q=0.8,en;q=0.7","66a16e0b41e98cb469f12b0b","68764874ac79eee8c1d4cb03","687764bb39d9c60d5ff543e7","2","0","66a16e0b41e98cb469f12b0b","2","0","2025-07-16T08:39:46.051Z","","","","","","","","","","","","","","","","","","","","","","","","","","","","","","","","","","","","","","","","","",""
"1979","","","","fullscreen","1","141176","0.0-1.0","78","1","2025-07-16 08:37:25","1f75c3e559b7213887762d5229550c2b","188.146.154.183","Mozilla/5.0 (Windows NT 10.0; Win64; x64) AppleWebKit/537.36 (KHTML, like Gecko) Chrome/138.0.0.0 Safari/537.36","WebKit","Chrome","138.0.0.0","Windows","10.0","https://app.prolific.com/","pl-PL,pl;q=0.9,en-US;q=0.8,en;q=0.7","66a16e0b41e98cb469f12b0b","68764874ac79eee8c1d4cb03","687764bb39d9c60d5ff543e7","2","0","66a16e0b41e98cb469f12b0b","2","0","","true","","","","","","","","","","","","","","","","","","","","","","","","","","","","","","","","","","","","","","","","",""
"2956","1752655191987","<p style='font-size:1.1em;line-height:1.25'>In the following, we will ask you a few questions relating to your feelings in the last 24 hours.<br></p><p style='font-size:1.1em;line-height:1.25'>Press the <strong>Next</strong> button to continue.</p>","0","custom-html-button-response","2","144133","0.0-2.0-0.0","78","1","2025-07-16 08:37:25","1f75c3e559b7213887762d5229550c2b","188.146.154.183","Mozilla/5.0 (Windows NT 10.0; Win64; x64) AppleWebKit/537.36 (KHTML, like Gecko) Chrome/138.0.0.0 Safari/537.36","WebKit","Chrome","138.0.0.0","Windows","10.0","https://app.prolific.com/","pl-PL,pl;q=0.9,en-US;q=0.8,en;q=0.7","66a16e0b41e98cb469f12b0b","68764874ac79eee8c1d4cb03","687764bb39d9c60d5ff543e7","2","0","66a16e0b41e98cb469f12b0b","2","0","2025-07-16T08:39:51.988Z","","","","","","","","","","","","","","","","","","","","","","","","","","","","","","","","","","","","","","","","","",""
"53772.200000047684","","","","survey-template","3","197908","0.0-2.0-1.0","78","1","2025-07-16 08:37:25","1f75c3e559b7213887762d5229550c2b","188.146.154.183","Mozilla/5.0 (Windows NT 10.0; Win64; x64) AppleWebKit/537.36 (KHTML, like Gecko) Chrome/138.0.0.0 Safari/537.36","WebKit","Chrome","138.0.0.0","Windows","10.0","https://app.prolific.com/","pl-PL,pl;q=0.9,en-US;q=0.8,en;q=0.7","66a16e0b41e98cb469f12b0b","68764874ac79eee8c1d4cb03","687764bb39d9c60d5ff543e7","2","0","66a16e0b41e98cb469f12b0b","2","0","2025-07-16T08:40:45.763Z","","{""Q01"":""1"",""Q02"":""0"",""Q03"":""1"",""Q04"":""4"",""Q05"":""0"",""Q06"":""0"",""Q07"":""0"",""Q08"":""0"",""Q09"":""4"",""Q10"":""4"",""Q11"":""4"",""Q12"":""1"",""Q13"":""5"",""Q14"":""0"",""Q15"":""3"",""Q16"":""3"",""Q17"":""4"",""Q18"":""4"",""Q19"":""2"",""Q20"":""0"",""Q21"":""2"",""Q22"":""0""}","[0,1,2,3,4,5,6,7,8,9,10,11,12,13,14,15,16,17,18,19,20,21]","[""Q07"",""Q08"",""Q09"",""Q10"",""Q09"",""Q11"",""Q12"",""Q13"",""Q14"",""Q15"",""Q16"",""Q17"",""Q18"",""Q19"",""Q20"",""Q21"",""Q22"",""Q03"",""Q04"",""Q05"",""Q06"",""Q02"",""Q01""]","[2046.1000000238419,4016.2999999523163,5115.5,7484.200000047684,9760.799999952316,10575.399999976158,12694.299999952316,14248.899999976158,17515.399999976158,18534.5,21318.200000047684,22927,24179.700000047684,27338.299999952316,29754.5,33145.799999952316,35709,40462.799999952316,41889.10000002384,43671.799999952316,45290.799999952316,47641.10000002384,49778.200000047684]","[]","[0.10000002384185791,2046.1000000238419,3124.2000000476837,4016.2999999523163,5115.5,7484.200000047684,8686.299999952316,9760.799999952316,10575.399999976158,12694.299999952316,13844.700000047684,14248.899999976158,16394.399999976158,17515.399999976158,18534.5,21318.200000047684,22927,24179.700000047684,27338.299999952316,29754.5,32351.100000023842,32730.799999952316,33145.799999952316,35709,40462.799999952316,41889.10000002384,43671.799999952316,45290.799999952316,47641.10000002384,49778.200000047684,53769.700000047684]","0.36363636363636365","0.19047619047619047","0","drsp","","","","","","","","","","","","","","","","","","","","","","","","","","","","","","",""
"8662.799999952316","","","","survey-template","4","206572","0.0-2.0-2.0","78","1","2025-07-16 08:37:25","1f75c3e559b7213887762d5229550c2b","188.146.154.183","Mozilla/5.0 (Windows NT 10.0; Win64; x64) AppleWebKit/537.36 (KHTML, like Gecko) Chrome/138.0.0.0 Safari/537.36","WebKit","Chrome","138.0.0.0","Windows","10.0","https://app.prolific.com/","pl-PL,pl;q=0.9,en-US;q=0.8,en;q=0.7","66a16e0b41e98cb469f12b0b","68764874ac79eee8c1d4cb03","687764bb39d9c60d5ff543e7","2","0","66a16e0b41e98cb469f12b0b","2","0","2025-07-16T08:40:54.427Z","","{""Q01"":""5"",""Q02"":""3"",""Q03"":""0""}","[0,1,2]","[""Q01"",""Q02"",""Q02"",""Q03""]","[2218.899999976158,4209.899999976158,5707,7587.699999928474]","[]","[2218.899999976158,4209.899999976158,4910.100000023842,5707,7587.699999928474,8662.199999928474]","0.3333333333333333","0","0","stress","","","","","","","","","","","","","","","","","","","","","","","","","","","","","","",""
"1942","","","","instructions","5","208514","0.0-3.0-0.0","78","1","2025-07-16 08:37:25","1f75c3e559b7213887762d5229550c2b","188.146.154.183","Mozilla/5.0 (Windows NT 10.0; Win64; x64) AppleWebKit/537.36 (KHTML, like Gecko) Chrome/138.0.0.0 Safari/537.36","WebKit","Chrome","138.0.0.0","Windows","10.0","https://app.prolific.com/","pl-PL,pl;q=0.9,en-US;q=0.8,en;q=0.7","66a16e0b41e98cb469f12b0b","68764874ac79eee8c1d4cb03","687764bb39d9c60d5ff543e7","2","0","66a16e0b41e98cb469f12b0b","2","0","","","","","","","","","","","","","[{""page_index"":0,""viewing_time"":1942}]","","","","","","","","","","","","","","","","","","","","","","","","","","","","","",""
"3191","","<p>Before you start with this game please answer the following three questions yourself. </p>
  <p>Through this game, we measure several aspects of your cognitive performance, such as reaction times, multi-tasking capabilities </p>
  <p>and the ability to assess the situation you are in.</p>
  <p></p>
  <p><b>How good do you usually are in such tasks?</b></p>","15","html-slider-response","6","211706","0.0-4.0-0.0","78","1","2025-07-16 08:37:25","1f75c3e559b7213887762d5229550c2b","188.146.154.183","Mozilla/5.0 (Windows NT 10.0; Win64; x64) AppleWebKit/537.36 (KHTML, like Gecko) Chrome/138.0.0.0 Safari/537.36","WebKit","Chrome","138.0.0.0","Windows","10.0","https://app.prolific.com/","pl-PL,pl;q=0.9,en-US;q=0.8,en;q=0.7","66a16e0b41e98cb469f12b0b","68764874ac79eee8c1d4cb03","687764bb39d9c60d5ff543e7","2","0","66a16e0b41e98cb469f12b0b","2","0","2025-07-16T08:40:59.561Z","","","","","","","","","","","PreSkillQ","","50","","","","","","","","","","","","","","","","","","","","","","","","","","","","",""
"2005","","<div style=""width:500px;"">
  <p>How well do you think you will perform in this task compared to other participants?</p>
  </div>","15","html-slider-response","7","213712","0.0-4.0-1.0","78","1","2025-07-16 08:37:25","1f75c3e559b7213887762d5229550c2b","188.146.154.183","Mozilla/5.0 (Windows NT 10.0; Win64; x64) AppleWebKit/537.36 (KHTML, like Gecko) Chrome/138.0.0.0 Safari/537.36","WebKit","Chrome","138.0.0.0","Windows","10.0","https://app.prolific.com/","pl-PL,pl;q=0.9,en-US;q=0.8,en;q=0.7","66a16e0b41e98cb469f12b0b","68764874ac79eee8c1d4cb03","687764bb39d9c60d5ff543e7","2","0","66a16e0b41e98cb469f12b0b","2","0","2025-07-16T08:41:01.567Z","","","","","","","","","","","PrePerfQ","","50","","","","","","","","","","","","","","","","","","","","","","","","","","","","",""
"2599","","<div style=""width:500px;"">
  <p>What best describes how you currently feel?</p>
  </div>","32","html-slider-response","8","216311","0.0-4.0-2.0","78","1","2025-07-16 08:37:25","1f75c3e559b7213887762d5229550c2b","188.146.154.183","Mozilla/5.0 (Windows NT 10.0; Win64; x64) AppleWebKit/537.36 (KHTML, like Gecko) Chrome/138.0.0.0 Safari/537.36","WebKit","Chrome","138.0.0.0","Windows","10.0","https://app.prolific.com/","pl-PL,pl;q=0.9,en-US;q=0.8,en;q=0.7","66a16e0b41e98cb469f12b0b","68764874ac79eee8c1d4cb03","687764bb39d9c60d5ff543e7","2","0","66a16e0b41e98cb469f12b0b","2","0","2025-07-16T08:41:04.167Z","","","","","","","","","","","PreMotivationQ","","50","","","","","","","","","","","","","","","","","","","","","","","","","","","","",""
"","","","","ctl-task-cpt","9","242060","0.0-5.0-0.0","78","1","2025-07-16 08:37:25","1f75c3e559b7213887762d5229550c2b","188.146.154.183","Mozilla/5.0 (Windows NT 10.0; Win64; x64) AppleWebKit/537.36 (KHTML, like Gecko) Chrome/138.0.0.0 Safari/537.36","WebKit","Chrome","138.0.0.0","Windows","10.0","https://app.prolific.com/","pl-PL,pl;q=0.9,en-US;q=0.8,en;q=0.7","66a16e0b41e98cb469f12b0b","68764874ac79eee8c1d4cb03","687764bb39d9c60d5ff543e7","2","0","66a16e0b41e98cb469f12b0b","2","0","2025-07-16T08:41:29.915Z","","","","","","","","","","","","","","win-only","1","g1:NE,g2:SW","1","1","0","218439.5","2081.1","7086","22742.5","1","4","4","6","2","4","4","4","0","0.030303030303030304","990.3","3000","990","[""down"",""left""]","{""num_key_presses"":6,""num_perfect"":6,""num_errors"":0,""num_randdir"":0,""num_randdir_good_moves"":0,""num_whilered"":0,""num_whileblue"":0,""num_blue"":0,""num_good_moves"":6}","[555.7881980815407,556.9318885970522,0.1,555.7881980815407,556.9318885970522,104.7,555.7881980815407,556.9318885970522,210.1,555.7881980815407,554.7318885493685,310.7,555.7881980815407,536.0318881440569,414.6,304.9881926455971,760.4318930077959,515.2,157.58818945078818,892.4318958688189,620,157.58818945078818,892.4318958688189,724.6,119.08818861632315,960.631897347014,825.2,100.38818821101157,983.7318978476931,926.5,100.38818821101157,983.7318978476931,1029.8,100.38818821101157,983.7318978476931,1135.6,210.38819059519736,907.8318962026049,1239.8,749.3882022777077,748.3318927455355,1340.1,1065.088209120321,636.131890313666,1445.7,1065.088209120321,636.131890313666,1551.2,1065.088209120321,636.131890313666,1654.9,1065.088209120321,636.131890313666,1759.6,1065.088209120321,636.131890313666,1859.7,1065.088209120321,636.131890313666,1964.7,1065.088209120321,636.131890313666,2064.7,1065.088209120321,636.131890313666,2171.1,1065.088209120321,636.131890313666,2274.9,1065.088209120321,636.131890313666,2376,1065.088209120321,636.131890313666,2476.2,1065.088209120321,636.131890313666,2579.2,1065.088209120321,636.131890313666,2679.8,1065.088209120321,636.131890313666,2780.7,1065.088209120321,636.131890313666,2884.3,1065.088209120321,636.131890313666,2984.6,1065.088209120321,636.131890313666,3085.5,1065.088209120321,636.131890313666,3190.2,1065.088209120321,636.131890313666,3295.6,1065.088209120321,636.131890313666,3399.6,1065.088209120321,636.131890313666,3500.3,1065.088209120321,636.131890313666,3604.3,1065.088209120321,636.131890313666,3704.8,1065.088209120321,636.131890313666,3809.8,1065.088209120321,636.131890313666,3914.7,1065.088209120321,636.131890313666,4020,1065.088209120321,636.131890313666,4124.4,1065.088209120321,636.131890313666,4225.6,1065.088209120321,636.131890313666,4329.4,1065.088209120321,636.131890313666,4429.6,1065.088209120321,636.131890313666,4530.1,1065.088209120321,636.131890313666,4634.5,1065.088209120321,636.131890313666,4734.6,1065.088209120321,636.131890313666,4834.6,1065.088209120321,636.131890313666,4935.7]","[1351.2,1351.2,1000,0,351.2,""smooth"",""down"",""down"",""good_move"",3850.7,2499.2,2181.5,1351.5,317.7,""smooth"",""down"",""down"",""good_move"",6854.7,3003.9,2708.4,3850.8,295.5,""smooth"",""down"",""down"",""good_move"",10306,3451.2,3008.6,6854.8,442.6,""smooth"",""left"",""left"",""good_move"",12665.1,2358.9,2020.5,10306.2,338.4,""smooth"",""left"",""left"",""good_move"",15564.9,2899.8,2606.5,12665.2,293.2,""smooth"",""left"",""left"",""good_move""]","",""
"1735","","<div style=""width:500px;"">
  <p>What determined the result of this run?</p>
  </div>","24","html-slider-response","10","243796","0.0-5.0-1.0","78","1","2025-07-16 08:37:25","1f75c3e559b7213887762d5229550c2b","188.146.154.183","Mozilla/5.0 (Windows NT 10.0; Win64; x64) AppleWebKit/537.36 (KHTML, like Gecko) Chrome/138.0.0.0 Safari/537.36","WebKit","Chrome","138.0.0.0","Windows","10.0","https://app.prolific.com/","pl-PL,pl;q=0.9,en-US;q=0.8,en;q=0.7","66a16e0b41e98cb469f12b0b","68764874ac79eee8c1d4cb03","687764bb39d9c60d5ff543e7","2","0","66a16e0b41e98cb469f12b0b","2","0","2025-07-16T08:41:31.651Z","","","","","","","","","","","AttribQ","","50","","","","","","","","","","","","","","","","","","","","","","","","","","","","",""
"1882","","<div style=""width:500px;"">
  <p>How much control did you have over the ball?</p>
  </div>","22","html-slider-response","11","245679","0.0-5.0-2.0","78","1","2025-07-16 08:37:25","1f75c3e559b7213887762d5229550c2b","188.146.154.183","Mozilla/5.0 (Windows NT 10.0; Win64; x64) AppleWebKit/537.36 (KHTML, like Gecko) Chrome/138.0.0.0 Safari/537.36","WebKit","Chrome","138.0.0.0","Windows","10.0","https://app.prolific.com/","pl-PL,pl;q=0.9,en-US;q=0.8,en;q=0.7","66a16e0b41e98cb469f12b0b","68764874ac79eee8c1d4cb03","687764bb39d9c60d5ff543e7","2","0","66a16e0b41e98cb469f12b0b","2","0","2025-07-16T08:41:33.534Z","","","","","","","","","","","ControlQ","","50","","","","","","","","","","","","","","","","","","","","","","","","","","","","",""
"1766","","<div style=""width:500px;"">
  <p>How would you describe your current emotional state?</p>
  </div>","30","html-slider-response","12","247446","0.0-5.0-3.0","78","1","2025-07-16 08:37:25","1f75c3e559b7213887762d5229550c2b","188.146.154.183","Mozilla/5.0 (Windows NT 10.0; Win64; x64) AppleWebKit/537.36 (KHTML, like Gecko) Chrome/138.0.0.0 Safari/537.36","WebKit","Chrome","138.0.0.0","Windows","10.0","https://app.prolific.com/","pl-PL,pl;q=0.9,en-US;q=0.8,en;q=0.7","66a16e0b41e98cb469f12b0b","68764874ac79eee8c1d4cb03","687764bb39d9c60d5ff543e7","2","0","66a16e0b41e98cb469f12b0b","2","0","2025-07-16T08:41:35.301Z","","","","","","","","","","","StressQ","","50","","","","","","","","","","","","","","","","","","","","","","","","","","","","",""
"1731","","<div style=""width:500px;"">
  <p>What best describes how you currently feel?</p>
  </div>","24","html-slider-response","13","249178","0.0-5.0-4.0","78","1","2025-07-16 08:37:25","1f75c3e559b7213887762d5229550c2b","188.146.154.183","Mozilla/5.0 (Windows NT 10.0; Win64; x64) AppleWebKit/537.36 (KHTML, like Gecko) Chrome/138.0.0.0 Safari/537.36","WebKit","Chrome","138.0.0.0","Windows","10.0","https://app.prolific.com/","pl-PL,pl;q=0.9,en-US;q=0.8,en;q=0.7","66a16e0b41e98cb469f12b0b","68764874ac79eee8c1d4cb03","687764bb39d9c60d5ff543e7","2","0","66a16e0b41e98cb469f12b0b","2","0","2025-07-16T08:41:37.033Z","","","","","","","","","","","MotivationQ","","50","","","","","","","","","","","","","","","","","","","","","","","","","","","","",""
"","","","","ctl-task-cpt","14","283291","0.0-5.0-0.1","78","1","2025-07-16 08:37:25","1f75c3e559b7213887762d5229550c2b","188.146.154.183","Mozilla/5.0 (Windows NT 10.0; Win64; x64) AppleWebKit/537.36 (KHTML, like Gecko) Chrome/138.0.0.0 Safari/537.36","WebKit","Chrome","138.0.0.0","Windows","10.0","https://app.prolific.com/","pl-PL,pl;q=0.9,en-US;q=0.8,en;q=0.7","66a16e0b41e98cb469f12b0b","68764874ac79eee8c1d4cb03","687764bb39d9c60d5ff543e7","2","0","66a16e0b41e98cb469f12b0b","2","0","2025-07-16T08:42:11.146Z","","","","","","","","","","","","","","win-only","3","g1:SW,g2:NE","0.9","2","0","251304.6","1017.8","6021","31101.8","1","4","8","6","2","8","8","12","4","0.09090909090909091","1024.5","3000","580","[""up"",""right""]","{""num_key_presses"":8,""num_perfect"":7,""num_errors"":0,""num_randdir"":1,""num_randdir_good_moves"":0,""num_whilered"":0,""num_whileblue"":0,""num_blue"":1,""num_good_moves"":7}","[551.3881979861733,553.6318885255266,0.2,551.3881979861733,553.6318885255266,103.6,551.3881979861733,553.6318885255266,208.9,517.2881972470757,588.8318892884661,313.6,354.4881937184807,729.6318923402239,419.1,506.2881970086571,648.2318905759264,524.2,939.6882064023491,189.53188063387168,629.3,946.2882065454003,184.0318805146624,733.9,1034.288208452749,125.73187925104392,838.3,1071.688209263372,96.03187860731376,939.4,1071.688209263372,96.03187860731376,1044.1,1071.688209263372,96.03187860731376,1149.7,1071.688209263372,96.03187860731376,1249.9,1071.688209263372,96.03187860731376,1353.4,1023.2882082143303,246.7318818736483,1453.8,1033.188208428907,272.031882422011,1559,1114.5882101932045,310.531883256476,1659.2,1310.3882144370552,290.7318828273226,1759.6,1310.3882144370552,290.7318828273226,1864.1,1310.3882144370552,290.7318828273226,1968,1310.3882144370552,290.7318828273226,2069.2,1310.3882144370552,290.7318828273226,2169.2,1310.3882144370552,290.7318828273226,2274.4,1310.3882144370552,290.7318828273226,2380.3,1310.3882144370552,290.7318828273226,2483.3,1310.3882144370552,290.7318828273226,2588.3,1310.3882144370552,290.7318828273226,2688.6,1310.3882144370552,290.7318828273226,2788.9,1310.3882144370552,290.7318828273226,2893.3,1310.3882144370552,290.7318828273226,2994.3,1310.3882144370552,290.7318828273226,3098.6,1310.3882144370552,290.7318828273226,3199.1,1310.3882144370552,290.7318828273226,3303.1,1310.3882144370552,290.7318828273226,3403.4,1310.3882144370552,290.7318828273226,3503.4,1310.3882144370552,290.7318828273226,3603.5,1310.3882144370552,290.7318828273226,3705.4,1310.3882144370552,290.7318828273226,3808.7,1310.3882144370552,290.7318828273226,3909.5,1310.3882144370552,290.7318828273226,4013.4,1310.3882144370552,290.7318828273226,4119.4,1310.3882144370552,290.7318828273226,4219.8,1310.3882144370552,290.7318828273226,4324,1310.3882144370552,290.7318828273226,4429.3,1310.3882144370552,290.7318828273226,4529.3,1310.3882144370552,290.7318828273226,4629.3,1310.3882144370552,290.7318828273226,4733.6,1310.3882144370552,290.7318828273226,4838.6,1310.3882144370552,290.7318828273226,4938.9]","[1338.6,1338.6,1000,0.1,338.5,""smooth"",""up"",""up"",""good_move"",4118.6,2779.8,2492.4,1338.8,287.4,""oops"",""up"",""left"",""bad_move"",7128.3,3009.5,2708.6,4118.8,300.9,""smooth"",""up"",""up"",""good_move"",10222.3,3093.8,2724.7,7128.5,369.1,""smooth"",""up"",""up"",""good_move"",13319.4,3096.9,2787.1,10222.5,309.8,""smooth"",""right"",""right"",""good_move"",16185.8,2866.1,2562.7,13319.7,303.4,""smooth"",""right"",""right"",""good_move"",21721,5535.1,2266.4,19165,289.6,""smooth"",""right"",""right"",""good_move"",24995.6,3274.5,3009.9,21721.1,264.6,""smooth"",""right"",""right"",""good_move""]","",""
"2076","","<div style=""width:500px;"">
  <p>What determined the result of this run?</p>
  </div>","15","html-slider-response","15","285367","0.0-5.0-1.1","78","1","2025-07-16 08:37:25","1f75c3e559b7213887762d5229550c2b","188.146.154.183","Mozilla/5.0 (Windows NT 10.0; Win64; x64) AppleWebKit/537.36 (KHTML, like Gecko) Chrome/138.0.0.0 Safari/537.36","WebKit","Chrome","138.0.0.0","Windows","10.0","https://app.prolific.com/","pl-PL,pl;q=0.9,en-US;q=0.8,en;q=0.7","66a16e0b41e98cb469f12b0b","68764874ac79eee8c1d4cb03","687764bb39d9c60d5ff543e7","2","0","66a16e0b41e98cb469f12b0b","2","0","2025-07-16T08:42:13.222Z","","","","","","","","","","","AttribQ","","50","","","","","","","","","","","","","","","","","","","","","","","","","","","","",""
"2834","","<div style=""width:500px;"">
  <p>How much control did you have over the ball?</p>
  </div>","19","html-slider-response","16","288202","0.0-5.0-2.1","78","1","2025-07-16 08:37:25","1f75c3e559b7213887762d5229550c2b","188.146.154.183","Mozilla/5.0 (Windows NT 10.0; Win64; x64) AppleWebKit/537.36 (KHTML, like Gecko) Chrome/138.0.0.0 Safari/537.36","WebKit","Chrome","138.0.0.0","Windows","10.0","https://app.prolific.com/","pl-PL,pl;q=0.9,en-US;q=0.8,en;q=0.7","66a16e0b41e98cb469f12b0b","68764874ac79eee8c1d4cb03","687764bb39d9c60d5ff543e7","2","0","66a16e0b41e98cb469f12b0b","2","0","2025-07-16T08:42:16.057Z","","","","","","","","","","","ControlQ","","50","","","","","","","","","","","","","","","","","","","","","","","","","","","","",""
"3137","","<div style=""width:500px;"">
  <p>How would you describe your current emotional state?</p>
  </div>","20","html-slider-response","17","291339","0.0-5.0-3.1","78","1","2025-07-16 08:37:25","1f75c3e559b7213887762d5229550c2b","188.146.154.183","Mozilla/5.0 (Windows NT 10.0; Win64; x64) AppleWebKit/537.36 (KHTML, like Gecko) Chrome/138.0.0.0 Safari/537.36","WebKit","Chrome","138.0.0.0","Windows","10.0","https://app.prolific.com/","pl-PL,pl;q=0.9,en-US;q=0.8,en;q=0.7","66a16e0b41e98cb469f12b0b","68764874ac79eee8c1d4cb03","687764bb39d9c60d5ff543e7","2","0","66a16e0b41e98cb469f12b0b","2","0","2025-07-16T08:42:19.194Z","","","","","","","","","","","StressQ","","50","","","","","","","","","","","","","","","","","","","","","","","","","","","","",""
"1639","","<div style=""width:500px;"">
  <p>What best describes how you currently feel?</p>
  </div>","22","html-slider-response","18","292979","0.0-5.0-4.1","78","1","2025-07-16 08:37:25","1f75c3e559b7213887762d5229550c2b","188.146.154.183","Mozilla/5.0 (Windows NT 10.0; Win64; x64) AppleWebKit/537.36 (KHTML, like Gecko) Chrome/138.0.0.0 Safari/537.36","WebKit","Chrome","138.0.0.0","Windows","10.0","https://app.prolific.com/","pl-PL,pl;q=0.9,en-US;q=0.8,en;q=0.7","66a16e0b41e98cb469f12b0b","68764874ac79eee8c1d4cb03","687764bb39d9c60d5ff543e7","2","0","66a16e0b41e98cb469f12b0b","2","0","2025-07-16T08:42:20.834Z","","","","","","","","","","","MotivationQ","","50","","","","","","","","","","","","","","","","","","","","","","","","","","","","",""
"","","","","ctl-task-cpt","19","325147","0.0-5.0-0.2","78","1","2025-07-16 08:37:25","1f75c3e559b7213887762d5229550c2b","188.146.154.183","Mozilla/5.0 (Windows NT 10.0; Win64; x64) AppleWebKit/537.36 (KHTML, like Gecko) Chrome/138.0.0.0 Safari/537.36","WebKit","Chrome","138.0.0.0","Windows","10.0","https://app.prolific.com/","pl-PL,pl;q=0.9,en-US;q=0.8,en;q=0.7","66a16e0b41e98cb469f12b0b","68764874ac79eee8c1d4cb03","687764bb39d9c60d5ff543e7","2","0","66a16e0b41e98cb469f12b0b","2","0","2025-07-16T08:42:53.002Z","","","","","","","","","","","","","","win-only","1","g1:NE,g2:SW","0.8","3","0","295107","1374.6","6375.5","29150.9","1","4","8","6","2","8","8","20","12","0.15151515151515152","943.4","3000","1100","[""down"",""left""]","{""num_key_presses"":6,""num_perfect"":5,""num_errors"":0,""num_randdir"":1,""num_randdir_good_moves"":1,""num_whilered"":0,""num_whileblue"":0,""num_blue"":2,""num_good_moves"":6}","[557.9881981292244,554.7318885493685,0.1,557.9881981292244,554.7318885493685,100.8,557.9881981292244,554.7318885493685,207.1,550.2881979623314,555.8318885732103,312,589.8881988206383,527.231887953322,412.2,468.88819619803394,642.7318904567171,516.7,208.18819054751364,991.4318980145861,621.1,182.8881899991509,1033.2318989205767,721.5,166.38818964152304,1033.2318989205767,826,108.08818837790457,1005.7318983245302,926.5,106.98818835406271,1005.7318983245302,1030.8,124.58818873553244,974.9318976569582,1130.9,259.88819166808094,850.6318949628283,1231.8,618.4881994405266,604.2318896222521,1331.9,1046.3882087150093,380.9318847823549,1437,1057.388208953428,374.3318846393038,1541.2,1057.388208953428,374.3318846393038,1642.1,1057.388208953428,374.3318846393038,1747.4,1057.388208953428,374.3318846393038,1851,1057.388208953428,374.3318846393038,1957.7,1057.388208953428,374.3318846393038,2061.7,1057.388208953428,374.3318846393038,2166.9,1057.388208953428,374.3318846393038,2267,1057.388208953428,374.3318846393038,2370.6,1057.388208953428,374.3318846393038,2470.8,1057.388208953428,374.3318846393038,2571.5,1057.388208953428,374.3318846393038,2672.5,1057.388208953428,374.3318846393038,2777.2,1057.388208953428,374.3318846393038,2881.6,1057.388208953428,374.3318846393038,2986.4,1057.388208953428,374.3318846393038,3090.6,1057.388208953428,374.3318846393038,3190.8,1057.388208953428,374.3318846393038,3290.8,1057.388208953428,374.3318846393038,3396.3,1057.388208953428,374.3318846393038,3500.9,1057.388208953428,374.3318846393038,3606.6,1057.388208953428,374.3318846393038,3710.7,1057.388208953428,374.3318846393038,3811.7,1057.388208953428,374.3318846393038,3911.7,1057.388208953428,374.3318846393038,4016.2,1057.388208953428,374.3318846393038,4116.6,1057.388208953428,374.3318846393038,4216.6,1057.388208953428,374.3318846393038,4322.1,1057.388208953428,374.3318846393038,4426.5,1057.388208953428,374.3318846393038,4531.3,1057.388208953428,374.3318846393038,4637.1,1057.388208953428,374.3318846393038,4741.4,1057.388208953428,374.3318846393038,4841.5,1057.388208953428,374.3318846393038,4946]","[1340.8,1340.8,1000,0,340.8,""oops"",""down"",""left"",""good_move"",4450.3,3109.3,2799.5,1341,309.8,""smooth"",""down"",""down"",""good_move"",7541.5,3091,2774.5,4450.5,316.5,""smooth"",""down"",""down"",""good_move"",13614.8,6073.1,2294.9,11020.6,299.3,""smooth"",""down"",""down"",""good_move"",19864.5,6249.6,2487.2,17040.5,336.8,""smooth"",""left"",""left"",""good_move"",22689.6,2825,2486.8,19864.6,338.2,""smooth"",""left"",""left"",""good_move""]","",""
"1602","","<div style=""width:500px;"">
  <p>What determined the result of this run?</p>
  </div>","8","html-slider-response","20","326750","0.0-5.0-1.2","78","1","2025-07-16 08:37:25","1f75c3e559b7213887762d5229550c2b","188.146.154.183","Mozilla/5.0 (Windows NT 10.0; Win64; x64) AppleWebKit/537.36 (KHTML, like Gecko) Chrome/138.0.0.0 Safari/537.36","WebKit","Chrome","138.0.0.0","Windows","10.0","https://app.prolific.com/","pl-PL,pl;q=0.9,en-US;q=0.8,en;q=0.7","66a16e0b41e98cb469f12b0b","68764874ac79eee8c1d4cb03","687764bb39d9c60d5ff543e7","2","0","66a16e0b41e98cb469f12b0b","2","0","2025-07-16T08:42:54.606Z","","","","","","","","","","","AttribQ","","50","","","","","","","","","","","","","","","","","","","","","","","","","","","","",""
"1690","","<div style=""width:500px;"">
  <p>How much control did you have over the ball?</p>
  </div>","20","html-slider-response","21","328441","0.0-5.0-2.2","78","1","2025-07-16 08:37:25","1f75c3e559b7213887762d5229550c2b","188.146.154.183","Mozilla/5.0 (Windows NT 10.0; Win64; x64) AppleWebKit/537.36 (KHTML, like Gecko) Chrome/138.0.0.0 Safari/537.36","WebKit","Chrome","138.0.0.0","Windows","10.0","https://app.prolific.com/","pl-PL,pl;q=0.9,en-US;q=0.8,en;q=0.7","66a16e0b41e98cb469f12b0b","68764874ac79eee8c1d4cb03","687764bb39d9c60d5ff543e7","2","0","66a16e0b41e98cb469f12b0b","2","0","2025-07-16T08:42:56.296Z","","","","","","","","","","","ControlQ","","50","","","","","","","","","","","","","","","","","","","","","","","","","","","","",""
"1234","","<div style=""width:500px;"">
  <p>How would you describe your current emotional state?</p>
  </div>","19","html-slider-response","22","329675","0.0-5.0-3.2","78","1","2025-07-16 08:37:25","1f75c3e559b7213887762d5229550c2b","188.146.154.183","Mozilla/5.0 (Windows NT 10.0; Win64; x64) AppleWebKit/537.36 (KHTML, like Gecko) Chrome/138.0.0.0 Safari/537.36","WebKit","Chrome","138.0.0.0","Windows","10.0","https://app.prolific.com/","pl-PL,pl;q=0.9,en-US;q=0.8,en;q=0.7","66a16e0b41e98cb469f12b0b","68764874ac79eee8c1d4cb03","687764bb39d9c60d5ff543e7","2","0","66a16e0b41e98cb469f12b0b","2","0","2025-07-16T08:42:57.531Z","","","","","","","","","","","StressQ","","50","","","","","","","","","","","","","","","","","","","","","","","","","","","","",""
"1506","","<div style=""width:500px;"">
  <p>What best describes how you currently feel?</p>
  </div>","26","html-slider-response","23","331183","0.0-5.0-4.2","78","1","2025-07-16 08:37:25","1f75c3e559b7213887762d5229550c2b","188.146.154.183","Mozilla/5.0 (Windows NT 10.0; Win64; x64) AppleWebKit/537.36 (KHTML, like Gecko) Chrome/138.0.0.0 Safari/537.36","WebKit","Chrome","138.0.0.0","Windows","10.0","https://app.prolific.com/","pl-PL,pl;q=0.9,en-US;q=0.8,en;q=0.7","66a16e0b41e98cb469f12b0b","68764874ac79eee8c1d4cb03","687764bb39d9c60d5ff543e7","2","0","66a16e0b41e98cb469f12b0b","2","0","2025-07-16T08:42:59.038Z","","","","","","","","","","","MotivationQ","","50","","","","","","","","","","","","","","","","","","","","","","","","","","","","",""
"","","","","ctl-task-cpt","24","371622","0.0-5.0-0.3","78","1","2025-07-16 08:37:25","1f75c3e559b7213887762d5229550c2b","188.146.154.183","Mozilla/5.0 (Windows NT 10.0; Win64; x64) AppleWebKit/537.36 (KHTML, like Gecko) Chrome/138.0.0.0 Safari/537.36","WebKit","Chrome","138.0.0.0","Windows","10.0","https://app.prolific.com/","pl-PL,pl;q=0.9,en-US;q=0.8,en;q=0.7","66a16e0b41e98cb469f12b0b","68764874ac79eee8c1d4cb03","687764bb39d9c60d5ff543e7","2","0","66a16e0b41e98cb469f12b0b","2","0","2025-07-16T08:43:39.477Z","","","","","","","","","","","","","","win-only","2","g1:SE,g2:NW","0.7","4","0","333310.4","916.7","5917","37421.5","1","4","4","6","2","-4","-4","16","20","0.12121212121212122","732.7","3000","-2935","[""left"",""up""]","{""num_key_presses"":9,""num_perfect"":6,""num_errors"":0,""num_randdir"":3,""num_randdir_good_moves"":0,""num_whilered"":0,""num_whileblue"":0,""num_blue"":1,""num_good_moves"":6}","[562.3881982245919,558.031888620894,0.2,562.3881982245919,558.031888620894,102.1,562.3881982245919,558.031888620894,207.1,562.3881982245919,558.031888620894,309.5,395.18819460062946,318.231883423369,410,256.58819159655536,123.5318792033602,510.1,194.98819026141135,101.53187872652305,610.1,137.78818902163474,102.6318787503649,715.1,136.68818899779288,102.6318787503649,816,141.0881890931603,102.6318787503649,920.2,445.7881956973549,75.13187815431846,1020.2,843.9882043281075,48.73187758211387,1120.3,906.6882056870934,44.331877486746436,1223.7,906.6882056870934,44.331877486746436,1325.3,906.6882056870934,45.43187751058829,1426.7,1034.288208452749,159.83187999014152,1530.1,1117.88821026473,193.9318807292391,1634.8,1136.5882106700417,200.53188087229026,1736.9,1136.5882106700417,200.53188087229026,1840.2,1136.5882106700417,200.53188087229026,1944.5,1136.5882106700417,200.53188087229026,2052,1136.5882106700417,200.53188087229026,2153.9,1136.5882106700417,200.53188087229026,2254.3,1136.5882106700417,200.53188087229026,2360.1,1136.5882106700417,200.53188087229026,2460.1,1136.5882106700417,200.53188087229026,2564.7,1136.5882106700417,200.53188087229026,2664.7,1136.5882106700417,200.53188087229026,2769.5,1136.5882106700417,200.53188087229026,2869.6,1136.5882106700417,200.53188087229026,2971.7,1136.5882106700417,200.53188087229026,3072.3,1136.5882106700417,200.53188087229026,3175.6,1136.5882106700417,200.53188087229026,3278.6,1136.5882106700417,200.53188087229026,3380.7,1136.5882106700417,200.53188087229026,3483.9,1136.5882106700417,200.53188087229026,3584.4,1136.5882106700417,200.53188087229026,3685.4,1136.5882106700417,200.53188087229026,3790.1,1136.5882106700417,200.53188087229026,3895.1,1136.5882106700417,200.53188087229026,3995.1,1136.5882106700417,200.53188087229026,4100.2,1136.5882106700417,200.53188087229026,4208.1,1136.5882106700417,200.53188087229026,4314,1136.5882106700417,200.53188087229026,4420.9,1136.5882106700417,200.53188087229026,4522.1,1136.5882106700417,200.53188087229026,4624.6,1136.5882106700417,200.53188087229026,4729.7,1136.5882106700417,200.53188087229026,4830.2,1136.5882106700417,200.53188087229026,4938.8]","[5287,5287,2871.1,2012.6,403.4,""smooth"",""up"",""up"",""good_move"",8087.3,2799.6,2476.3,5287.7,323.3,""smooth"",""up"",""up"",""good_move"",10878.1,2790.7,2459.2,8087.4,331.5,""oops"",""up"",""right"",""bad_move"",13249.1,2370.7,2018.3,10878.4,352.4,""smooth"",""up"",""up"",""good_move"",16493.6,3244.4,2910.5,13249.2,333.9,""smooth"",""left"",""left"",""good_move"",19571.7,3077.9,2773.3,16493.8,304.6,""smooth"",""left"",""left"",""good_move"",22296.8,2724.9,2387.2,19571.9,337.7,""oops"",""left"",""down"",""bad_move"",24749.8,2452.7,2166.4,22297.1,286.3,""smooth"",""left"",""left"",""good_move"",28591.8,3841.9,3544.3,24749.9,297.6,""oops"",""up"",""down"",""bad_move""]","",""
"4627","","<div style=""width:500px;"">
  <p>What determined the result of this run?</p>
  </div>","4","html-slider-response","25","376250","0.0-5.0-1.3","78","1","2025-07-16 08:37:25","1f75c3e559b7213887762d5229550c2b","188.146.154.183","Mozilla/5.0 (Windows NT 10.0; Win64; x64) AppleWebKit/537.36 (KHTML, like Gecko) Chrome/138.0.0.0 Safari/537.36","WebKit","Chrome","138.0.0.0","Windows","10.0","https://app.prolific.com/","pl-PL,pl;q=0.9,en-US;q=0.8,en;q=0.7","66a16e0b41e98cb469f12b0b","68764874ac79eee8c1d4cb03","687764bb39d9c60d5ff543e7","2","0","66a16e0b41e98cb469f12b0b","2","0","2025-07-16T08:43:44.105Z","","","","","","","","","","","AttribQ","","50","","","","","","","","","","","","","","","","","","","","","","","","","","","","",""
"1612","","<div style=""width:500px;"">
  <p>How much control did you have over the ball?</p>
  </div>","3","html-slider-response","26","377863","0.0-5.0-2.3","78","1","2025-07-16 08:37:25","1f75c3e559b7213887762d5229550c2b","188.146.154.183","Mozilla/5.0 (Windows NT 10.0; Win64; x64) AppleWebKit/537.36 (KHTML, like Gecko) Chrome/138.0.0.0 Safari/537.36","WebKit","Chrome","138.0.0.0","Windows","10.0","https://app.prolific.com/","pl-PL,pl;q=0.9,en-US;q=0.8,en;q=0.7","66a16e0b41e98cb469f12b0b","68764874ac79eee8c1d4cb03","687764bb39d9c60d5ff543e7","2","0","66a16e0b41e98cb469f12b0b","2","0","2025-07-16T08:43:45.718Z","","","","","","","","","","","ControlQ","","50","","","","","","","","","","","","","","","","","","","","","","","","","","","","",""
"3274","","<div style=""width:500px;"">
  <p>How would you describe your current emotional state?</p>
  </div>","95","html-slider-response","27","381137","0.0-5.0-3.3","78","1","2025-07-16 08:37:25","1f75c3e559b7213887762d5229550c2b","188.146.154.183","Mozilla/5.0 (Windows NT 10.0; Win64; x64) AppleWebKit/537.36 (KHTML, like Gecko) Chrome/138.0.0.0 Safari/537.36","WebKit","Chrome","138.0.0.0","Windows","10.0","https://app.prolific.com/","pl-PL,pl;q=0.9,en-US;q=0.8,en;q=0.7","66a16e0b41e98cb469f12b0b","68764874ac79eee8c1d4cb03","687764bb39d9c60d5ff543e7","2","0","66a16e0b41e98cb469f12b0b","2","0","2025-07-16T08:43:48.992Z","","","","","","","","","","","StressQ","","50","","","","","","","","","","","","","","","","","","","","","","","","","","","","",""
"2208","","<div style=""width:500px;"">
  <p>What best describes how you currently feel?</p>
  </div>","18","html-slider-response","28","383346","0.0-5.0-4.3","78","1","2025-07-16 08:37:25","1f75c3e559b7213887762d5229550c2b","188.146.154.183","Mozilla/5.0 (Windows NT 10.0; Win64; x64) AppleWebKit/537.36 (KHTML, like Gecko) Chrome/138.0.0.0 Safari/537.36","WebKit","Chrome","138.0.0.0","Windows","10.0","https://app.prolific.com/","pl-PL,pl;q=0.9,en-US;q=0.8,en;q=0.7","66a16e0b41e98cb469f12b0b","68764874ac79eee8c1d4cb03","687764bb39d9c60d5ff543e7","2","0","66a16e0b41e98cb469f12b0b","2","0","2025-07-16T08:43:51.201Z","","","","","","","","","","","MotivationQ","","50","","","","","","","","","","","","","","","","","","","","","","","","","","","","",""
"","","","","ctl-task-cpt","29","410661","0.0-5.0-0.4","78","1","2025-07-16 08:37:25","1f75c3e559b7213887762d5229550c2b","188.146.154.183","Mozilla/5.0 (Windows NT 10.0; Win64; x64) AppleWebKit/537.36 (KHTML, like Gecko) Chrome/138.0.0.0 Safari/537.36","WebKit","Chrome","138.0.0.0","Windows","10.0","https://app.prolific.com/","pl-PL,pl;q=0.9,en-US;q=0.8,en;q=0.7","66a16e0b41e98cb469f12b0b","68764874ac79eee8c1d4cb03","687764bb39d9c60d5ff543e7","2","0","66a16e0b41e98cb469f12b0b","2","0","2025-07-16T08:44:18.516Z","","","","","","","","","","","","","","win-only","1","g1:NE,g2:SW","0.6","5","0","385473.7","6137.2","11141.7","24297","1","4","8","6","1","1","1","17","16","0.12878787878787878","1355.5","3000","1695","[""up"",""right""]","{""num_key_presses"":4,""num_perfect"":4,""num_errors"":0,""num_randdir"":0,""num_randdir_good_moves"":0,""num_whilered"":0,""num_whileblue"":0,""num_blue"":1,""num_good_moves"":4}","[559.0881981530663,560.2318886685778,0.1,559.0881981530663,560.2318886685778,101.2,543.6881978192803,593.2318893838335,204.3,491.98819669871295,669.1318910289217,308.4,491.98819669871295,669.1318910289217,413.2,529.3881975093361,628.431890146773,520.9,474.3881963172432,588.8318892884661,624,562.3881982245919,508.53188754801045,724,763.6882025876519,245.63188184980643,824.1,979.288207260656,101.53187872652305,928.6,1099.1882098594185,37.73187734369529,1035.3,1099.1882098594185,37.73187734369529,1139.1,1098.0882098355767,38.831877367537146,1239.2,1084.8882095494744,44.331877486746436,1339.2,1084.8882095494744,44.331877486746436,1441,1084.8882095494744,44.331877486746436,1545.2,1084.8882095494744,44.331877486746436,1649,1084.8882095494744,44.331877486746436,1754.1,1253.1882131972786,72.93187810663474,1858.8,1545.7882195392128,157.6318799424578,1959.1,1549.0882196107384,208.23188103918326,2064.2,1549.0882196107384,208.23188103918326,2164.5,1547.9882195868965,208.23188103918326,2266.8,1486.3882182517525,248.931881921332,2368.4,1426.9882169642922,285.2318827081133,2470.5,1426.9882169642922,285.2318827081133,2573.2,1426.9882169642922,285.2318827081133,2674.2,1424.7882169166085,286.33188273195515,2774.5,1380.7882159629341,297.3318829703737,2878.3,1363.1882155814644,302.831883089583,2988.1,1363.1882155814644,302.831883089583,3089.8,1363.1882155814644,302.831883089583,3193.3,1363.1882155814644,302.831883089583,3295.3,1363.1882155814644,302.831883089583,3398.3,1363.1882155814644,302.831883089583,3499.1,1363.1882155814644,302.831883089583,3603.1,1363.1882155814644,302.831883089583,3703.8,1363.1882155814644,302.831883089583,3808.6,1363.1882155814644,302.831883089583,3909.3,1363.1882155814644,302.831883089583,4014.1,1363.1882155814644,302.831883089583,4118.6,1363.1882155814644,302.831883089583,4219.8,1363.1882155814644,302.831883089583,4323.3,1363.1882155814644,302.831883089583,4424,1363.1882155814644,302.831883089583,4524,1363.1882155814644,302.831883089583,4627.8,1340.0882150807854,302.831883089583,4729.4,1297.188214150953,310.531883256476,4834.5,1276.2882136979576,307.23188318495045,4938.5]","[1369.3,1369.3,1000,0,369.3,""smooth"",""up"",""up"",""good_move"",4411.9,3042.3,2723.7,1369.6,318.6,""smooth"",""up"",""up"",""good_move"",10092.6,5680.5,1935.1,7758.6,398.9,""smooth"",""right"",""right"",""good_move"",13058.2,2965.4,2647.8,10092.8,317.6,""smooth"",""right"",""right"",""good_move""]","",""
"1863","","<div style=""width:500px;"">
  <p>What determined the result of this run?</p>
  </div>","14","html-slider-response","30","412525","0.0-5.0-1.4","78","1","2025-07-16 08:37:25","1f75c3e559b7213887762d5229550c2b","188.146.154.183","Mozilla/5.0 (Windows NT 10.0; Win64; x64) AppleWebKit/537.36 (KHTML, like Gecko) Chrome/138.0.0.0 Safari/537.36","WebKit","Chrome","138.0.0.0","Windows","10.0","https://app.prolific.com/","pl-PL,pl;q=0.9,en-US;q=0.8,en;q=0.7","66a16e0b41e98cb469f12b0b","68764874ac79eee8c1d4cb03","687764bb39d9c60d5ff543e7","2","0","66a16e0b41e98cb469f12b0b","2","0","2025-07-16T08:44:20.380Z","","","","","","","","","","","AttribQ","","50","","","","","","","","","","","","","","","","","","","","","","","","","","","","",""
"1826","","<div style=""width:500px;"">
  <p>How much control did you have over the ball?</p>
  </div>","22","html-slider-response","31","414352","0.0-5.0-2.4","78","1","2025-07-16 08:37:25","1f75c3e559b7213887762d5229550c2b","188.146.154.183","Mozilla/5.0 (Windows NT 10.0; Win64; x64) AppleWebKit/537.36 (KHTML, like Gecko) Chrome/138.0.0.0 Safari/537.36","WebKit","Chrome","138.0.0.0","Windows","10.0","https://app.prolific.com/","pl-PL,pl;q=0.9,en-US;q=0.8,en;q=0.7","66a16e0b41e98cb469f12b0b","68764874ac79eee8c1d4cb03","687764bb39d9c60d5ff543e7","2","0","66a16e0b41e98cb469f12b0b","2","0","2025-07-16T08:44:22.207Z","","","","","","","","","","","ControlQ","","50","","","","","","","","","","","","","","","","","","","","","","","","","","","","",""
"2558","","<div style=""width:500px;"">
  <p>How would you describe your current emotional state?</p>
  </div>","91","html-slider-response","32","416910","0.0-5.0-3.4","78","1","2025-07-16 08:37:25","1f75c3e559b7213887762d5229550c2b","188.146.154.183","Mozilla/5.0 (Windows NT 10.0; Win64; x64) AppleWebKit/537.36 (KHTML, like Gecko) Chrome/138.0.0.0 Safari/537.36","WebKit","Chrome","138.0.0.0","Windows","10.0","https://app.prolific.com/","pl-PL,pl;q=0.9,en-US;q=0.8,en;q=0.7","66a16e0b41e98cb469f12b0b","68764874ac79eee8c1d4cb03","687764bb39d9c60d5ff543e7","2","0","66a16e0b41e98cb469f12b0b","2","0","2025-07-16T08:44:24.765Z","","","","","","","","","","","StressQ","","50","","","","","","","","","","","","","","","","","","","","","","","","","","","","",""
"2140","","<div style=""width:500px;"">
  <p>What best describes how you currently feel?</p>
  </div>","16","html-slider-response","33","419051","0.0-5.0-4.4","78","1","2025-07-16 08:37:25","1f75c3e559b7213887762d5229550c2b","188.146.154.183","Mozilla/5.0 (Windows NT 10.0; Win64; x64) AppleWebKit/537.36 (KHTML, like Gecko) Chrome/138.0.0.0 Safari/537.36","WebKit","Chrome","138.0.0.0","Windows","10.0","https://app.prolific.com/","pl-PL,pl;q=0.9,en-US;q=0.8,en;q=0.7","66a16e0b41e98cb469f12b0b","68764874ac79eee8c1d4cb03","687764bb39d9c60d5ff543e7","2","0","66a16e0b41e98cb469f12b0b","2","0","2025-07-16T08:44:26.906Z","","","","","","","","","","","MotivationQ","","50","","","","","","","","","","","","","","","","","","","","","","","","","","","","",""
"","","","","ctl-task-cpt","34","452522","0.0-5.0-0.5","78","1","2025-07-16 08:37:25","1f75c3e559b7213887762d5229550c2b","188.146.154.183","Mozilla/5.0 (Windows NT 10.0; Win64; x64) AppleWebKit/537.36 (KHTML, like Gecko) Chrome/138.0.0.0 Safari/537.36","WebKit","Chrome","138.0.0.0","Windows","10.0","https://app.prolific.com/","pl-PL,pl;q=0.9,en-US;q=0.8,en;q=0.7","66a16e0b41e98cb469f12b0b","68764874ac79eee8c1d4cb03","687764bb39d9c60d5ff543e7","2","0","66a16e0b41e98cb469f12b0b","2","0","2025-07-16T08:45:00.377Z","","","","","","","","","","","","","","win-only","3","g1:SW,g2:NE","0.5","6","0","421179.1","739.7","5740.7","30451.8","1","4","4","6","1","1","1","18","17","0.13636363636363635","815.9","3000","1080","[""down"",""left""]","{""num_key_presses"":6,""num_perfect"":5,""num_errors"":0,""num_randdir"":1,""num_randdir_good_moves"":0,""num_whilered"":0,""num_whileblue"":0,""num_blue"":3,""num_good_moves"":5}","[546.9881978908058,555.8318885732103,0.1,546.9881978908058,555.8318885732103,100.9,546.9881978908058,554.7318885493685,201.3,577.7881985583779,487.63188709501514,306.7,720.7882016578194,353.4318841863085,411.1,224.6881909051415,861.6318952012468,512.6,156.48818942694632,940.8318969178606,616.2,147.68818923621146,960.631897347014,717.1,134.48818895010916,982.6318978238512,825.4,134.48818895010916,982.6318978238512,926.2,430.3881953635689,763.7318930793215,1028.5,627.2881996312615,669.1318910289217,1130.9,761.4882025399681,561.3318886924196,1235.9,774.6882028260704,552.5318885016848,1341,774.6882028260704,551.4318884778429,1441.4,776.8882028737542,552.5318885016848,1546,776.8882028737542,552.5318885016848,1650.9,776.8882028737542,552.5318885016848,1752.4,776.8882028737542,551.4318884778429,1853.1,776.8882028737542,551.4318884778429,1956.4,776.8882028737542,551.4318884778429,2057.8,776.8882028737542,551.4318884778429,2161,776.8882028737542,551.4318884778429,2261.2,776.8882028737542,551.4318884778429,2361.7,776.8882028737542,551.4318884778429,2461.8,776.8882028737542,551.4318884778429,2566.5,776.8882028737542,551.4318884778429,2668.4,776.8882028737542,551.4318884778429,2772,776.8882028737542,551.4318884778429,2875.7,776.8882028737542,551.4318884778429,2976,776.8882028737542,551.4318884778429,3081.9,776.8882028737542,551.4318884778429,3185.7,776.8882028737542,551.4318884778429,3286.2,776.8882028737542,551.4318884778429,3386.5,776.8882028737542,551.4318884778429,3486.5,776.8882028737542,551.4318884778429,3587,776.8882028737542,551.4318884778429,3690.8,776.8882028737542,551.4318884778429,3791.4,776.8882028737542,551.4318884778429,3895.7,776.8882028737542,551.4318884778429,3996,776.8882028737542,551.4318884778429,4101,776.8882028737542,551.4318884778429,4206.1,776.8882028737542,551.4318884778429,4307.1,776.8882028737542,551.4318884778429,4411.3,776.8882028737542,551.4318884778429,4511.6,776.8882028737542,551.4318884778429,4617.3,776.8882028737542,551.4318884778429,4720.9,776.8882028737542,551.4318884778429,4826.2,776.8882028737542,551.4318884778429,4927.2]","[1342.7,1342.7,1000,0,342.7,""oops"",""down"",""up"",""bad_move"",4348.2,3005.2,2686.5,1343,318.7,""smooth"",""down"",""down"",""good_move"",6985,2636.6,2325,4348.4,311.6,""smooth"",""down"",""down"",""good_move"",13433.3,6448.1,2486,10634.9,312.4,""smooth"",""down"",""down"",""good_move"",22437.5,9004.1,2549.2,19579.7,308.7,""smooth"",""left"",""left"",""good_move"",24623.3,2185.5,1831.1,22437.8,354.4,""smooth"",""left"",""left"",""good_move""]","",""
"2692","","<div style=""width:500px;"">
  <p>What determined the result of this run?</p>
  </div>","13","html-slider-response","35","455214","0.0-5.0-1.5","78","1","2025-07-16 08:37:25","1f75c3e559b7213887762d5229550c2b","188.146.154.183","Mozilla/5.0 (Windows NT 10.0; Win64; x64) AppleWebKit/537.36 (KHTML, like Gecko) Chrome/138.0.0.0 Safari/537.36","WebKit","Chrome","138.0.0.0","Windows","10.0","https://app.prolific.com/","pl-PL,pl;q=0.9,en-US;q=0.8,en;q=0.7","66a16e0b41e98cb469f12b0b","68764874ac79eee8c1d4cb03","687764bb39d9c60d5ff543e7","2","0","66a16e0b41e98cb469f12b0b","2","0","2025-07-16T08:45:03.069Z","","","","","","","","","","","AttribQ","","50","","","","","","","","","","","","","","","","","","","","","","","","","","","","",""
"1708","","<div style=""width:500px;"">
  <p>How much control did you have over the ball?</p>
  </div>","10","html-slider-response","36","456923","0.0-5.0-2.5","78","1","2025-07-16 08:37:25","1f75c3e559b7213887762d5229550c2b","188.146.154.183","Mozilla/5.0 (Windows NT 10.0; Win64; x64) AppleWebKit/537.36 (KHTML, like Gecko) Chrome/138.0.0.0 Safari/537.36","WebKit","Chrome","138.0.0.0","Windows","10.0","https://app.prolific.com/","pl-PL,pl;q=0.9,en-US;q=0.8,en;q=0.7","66a16e0b41e98cb469f12b0b","68764874ac79eee8c1d4cb03","687764bb39d9c60d5ff543e7","2","0","66a16e0b41e98cb469f12b0b","2","0","2025-07-16T08:45:04.778Z","","","","","","","","","","","ControlQ","","50","","","","","","","","","","","","","","","","","","","","","","","","","","","","",""
"1822","","<div style=""width:500px;"">
  <p>How would you describe your current emotional state?</p>
  </div>","95","html-slider-response","37","458745","0.0-5.0-3.5","78","1","2025-07-16 08:37:25","1f75c3e559b7213887762d5229550c2b","188.146.154.183","Mozilla/5.0 (Windows NT 10.0; Win64; x64) AppleWebKit/537.36 (KHTML, like Gecko) Chrome/138.0.0.0 Safari/537.36","WebKit","Chrome","138.0.0.0","Windows","10.0","https://app.prolific.com/","pl-PL,pl;q=0.9,en-US;q=0.8,en;q=0.7","66a16e0b41e98cb469f12b0b","68764874ac79eee8c1d4cb03","687764bb39d9c60d5ff543e7","2","0","66a16e0b41e98cb469f12b0b","2","0","2025-07-16T08:45:06.600Z","","","","","","","","","","","StressQ","","50","","","","","","","","","","","","","","","","","","","","","","","","","","","","",""
"2057","","<div style=""width:500px;"">
  <p>What best describes how you currently feel?</p>
  </div>","16","html-slider-response","38","460802","0.0-5.0-4.5","78","1","2025-07-16 08:37:25","1f75c3e559b7213887762d5229550c2b","188.146.154.183","Mozilla/5.0 (Windows NT 10.0; Win64; x64) AppleWebKit/537.36 (KHTML, like Gecko) Chrome/138.0.0.0 Safari/537.36","WebKit","Chrome","138.0.0.0","Windows","10.0","https://app.prolific.com/","pl-PL,pl;q=0.9,en-US;q=0.8,en;q=0.7","66a16e0b41e98cb469f12b0b","68764874ac79eee8c1d4cb03","687764bb39d9c60d5ff543e7","2","0","66a16e0b41e98cb469f12b0b","2","0","2025-07-16T08:45:08.657Z","","","","","","","","","","","MotivationQ","","50","","","","","","","","","","","","","","","","","","","","","","","","","","","","",""
"","","","","ctl-task-cpt","39","500969","0.0-5.0-0.6","78","1","2025-07-16 08:37:25","1f75c3e559b7213887762d5229550c2b","188.146.154.183","Mozilla/5.0 (Windows NT 10.0; Win64; x64) AppleWebKit/537.36 (KHTML, like Gecko) Chrome/138.0.0.0 Safari/537.36","WebKit","Chrome","138.0.0.0","Windows","10.0","https://app.prolific.com/","pl-PL,pl;q=0.9,en-US;q=0.8,en;q=0.7","66a16e0b41e98cb469f12b0b","68764874ac79eee8c1d4cb03","687764bb39d9c60d5ff543e7","2","0","66a16e0b41e98cb469f12b0b","2","0","2025-07-16T08:45:48.824Z","","","","","","","","","","","","","","win-only","1","g1:NE,g2:SW","0.4","7","0","462930.2","634.2","5638","37147.6","1","4","8","6","1","-1","-1","17","18","0.12878787878787878","876.1","3000","-2900","[""up"",""right""]","{""num_key_presses"":8,""num_perfect"":4,""num_errors"":0,""num_randdir"":4,""num_randdir_good_moves"":1,""num_whilered"":0,""num_whileblue"":0,""num_blue"":2,""num_good_moves"":5}","[564.5881982722756,566.8318888116289,0.2,564.5881982722756,566.8318888116289,101.9,564.5881982722756,566.8318888116289,209.5,564.5881982722756,566.8318888116289,313.9,482.08819648413623,610.8318897653032,414.9,748.2882022538658,301.73188306574116,519.6,870.3882049003121,122.43187917951835,621.6,924.2882060685631,86.13187839273704,724.9,1011.1882079520699,104.83187879804862,830.3,1012.2882079759117,104.83187879804862,934.4,1012.2882079759117,104.83187879804862,1037.4,1012.2882079759117,104.83187879804862,1143.3,1012.2882079759117,104.83187879804862,1247.2,1012.2882079759117,107.03187884573234,1348.6,1133.2882105985161,213.73188115839255,1449.7,1158.5882111468788,243.43188180212272,1553.1,1201.4882120767113,302.831883089583,1654.2,1287.2882139363762,460.1318864989687,1757.1,1287.2882139363762,460.1318864989687,1857.5,1287.2882139363762,459.03188647512684,1957.8,1287.2882139363762,459.03188647512684,2062.1,1286.1882139125344,459.03188647512684,2163.8,1286.1882139125344,459.03188647512684,2268.9,1286.1882139125344,457.931886451285,2372,1286.1882139125344,457.931886451285,2473,1286.1882139125344,457.931886451285,2577.5,1286.1882139125344,457.931886451285,2682.9,1286.1882139125344,457.931886451285,2785,1286.1882139125344,457.931886451285,2887.5,1286.1882139125344,457.931886451285,2987.6,1286.1882139125344,457.931886451285,3090.4,1286.1882139125344,457.931886451285,3193.8,1286.1882139125344,457.931886451285,3298,1286.1882139125344,457.931886451285,3402.7,1286.1882139125344,457.931886451285,3504.1,1286.1882139125344,457.931886451285,3604.2,1286.1882139125344,457.931886451285,3708.2,1286.1882139125344,457.931886451285,3813.6,1286.1882139125344,457.931886451285,3917.7,1286.1882139125344,457.931886451285,4018.4,1286.1882139125344,457.931886451285,4122,1286.1882139125344,457.931886451285,4222,1286.1882139125344,457.931886451285,4322.8,1286.1882139125344,457.931886451285,4429.5,1286.1882139125344,457.931886451285,4532.3,1286.1882139125344,457.931886451285,4634.1,1286.1882139125344,457.931886451285,4737.7,1286.1882139125344,457.931886451285,4847.3,1286.1882139125344,457.931886451285,4947.6]","[1357.6,1357.6,1000,0,357.6,""oops"",""up"",""left"",""bad_move"",7702.1,6344.3,2153.8,5126.1,422.2,""smooth"",""up"",""up"",""good_move"",10128.9,2426.5,2065.9,7702.4,360.6,""smooth"",""up"",""up"",""good_move"",17137.3,7008.2,2813.4,13895.2,428.7,""oops"",""right"",""left"",""bad_move"",20318.3,3180.8,2828.4,17137.5,352.4,""smooth"",""right"",""right"",""good_move"",22970.5,2651.9,2290.3,20318.6,361.6,""oops"",""right"",""left"",""bad_move"",25527.5,2556.7,2231.5,22970.8,325.2,""smooth"",""right"",""right"",""good_move"",28739.5,3211.8,2895.1,25527.7,316.7,""oops"",""right"",""right"",""good_move""]","",""
"2065","","<div style=""width:500px;"">
  <p>What determined the result of this run?</p>
  </div>","13","html-slider-response","40","503035","0.0-5.0-1.6","78","1","2025-07-16 08:37:25","1f75c3e559b7213887762d5229550c2b","188.146.154.183","Mozilla/5.0 (Windows NT 10.0; Win64; x64) AppleWebKit/537.36 (KHTML, like Gecko) Chrome/138.0.0.0 Safari/537.36","WebKit","Chrome","138.0.0.0","Windows","10.0","https://app.prolific.com/","pl-PL,pl;q=0.9,en-US;q=0.8,en;q=0.7","66a16e0b41e98cb469f12b0b","68764874ac79eee8c1d4cb03","687764bb39d9c60d5ff543e7","2","0","66a16e0b41e98cb469f12b0b","2","0","2025-07-16T08:45:50.890Z","","","","","","","","","","","AttribQ","","50","","","","","","","","","","","","","","","","","","","","","","","","","","","","",""
"1731","","<div style=""width:500px;"">
  <p>How much control did you have over the ball?</p>
  </div>","10","html-slider-response","41","504766","0.0-5.0-2.6","78","1","2025-07-16 08:37:25","1f75c3e559b7213887762d5229550c2b","188.146.154.183","Mozilla/5.0 (Windows NT 10.0; Win64; x64) AppleWebKit/537.36 (KHTML, like Gecko) Chrome/138.0.0.0 Safari/537.36","WebKit","Chrome","138.0.0.0","Windows","10.0","https://app.prolific.com/","pl-PL,pl;q=0.9,en-US;q=0.8,en;q=0.7","66a16e0b41e98cb469f12b0b","68764874ac79eee8c1d4cb03","687764bb39d9c60d5ff543e7","2","0","66a16e0b41e98cb469f12b0b","2","0","2025-07-16T08:45:52.621Z","","","","","","","","","","","ControlQ","","50","","","","","","","","","","","","","","","","","","","","","","","","","","","","",""
"2637","","<div style=""width:500px;"">
  <p>How would you describe your current emotional state?</p>
  </div>","99","html-slider-response","42","507405","0.0-5.0-3.6","78","1","2025-07-16 08:37:25","1f75c3e559b7213887762d5229550c2b","188.146.154.183","Mozilla/5.0 (Windows NT 10.0; Win64; x64) AppleWebKit/537.36 (KHTML, like Gecko) Chrome/138.0.0.0 Safari/537.36","WebKit","Chrome","138.0.0.0","Windows","10.0","https://app.prolific.com/","pl-PL,pl;q=0.9,en-US;q=0.8,en;q=0.7","66a16e0b41e98cb469f12b0b","68764874ac79eee8c1d4cb03","687764bb39d9c60d5ff543e7","2","0","66a16e0b41e98cb469f12b0b","2","0","2025-07-16T08:45:55.260Z","","","","","","","","","","","StressQ","","50","","","","","","","","","","","","","","","","","","","","","","","","","","","","",""
"2953","","<div style=""width:500px;"">
  <p>What best describes how you currently feel?</p>
  </div>","7","html-slider-response","43","510359","0.0-5.0-4.6","78","1","2025-07-16 08:37:25","1f75c3e559b7213887762d5229550c2b","188.146.154.183","Mozilla/5.0 (Windows NT 10.0; Win64; x64) AppleWebKit/537.36 (KHTML, like Gecko) Chrome/138.0.0.0 Safari/537.36","WebKit","Chrome","138.0.0.0","Windows","10.0","https://app.prolific.com/","pl-PL,pl;q=0.9,en-US;q=0.8,en;q=0.7","66a16e0b41e98cb469f12b0b","68764874ac79eee8c1d4cb03","687764bb39d9c60d5ff543e7","2","0","66a16e0b41e98cb469f12b0b","2","0","2025-07-16T08:45:58.214Z","","","","","","","","","","","MotivationQ","","50","","","","","","","","","","","","","","","","","","","","","","","","","","","","",""
"","","","","ctl-task-cpt","44","529238","0.0-5.0-0.7","78","1","2025-07-16 08:37:25","1f75c3e559b7213887762d5229550c2b","188.146.154.183","Mozilla/5.0 (Windows NT 10.0; Win64; x64) AppleWebKit/537.36 (KHTML, like Gecko) Chrome/138.0.0.0 Safari/537.36","WebKit","Chrome","138.0.0.0","Windows","10.0","https://app.prolific.com/","pl-PL,pl;q=0.9,en-US;q=0.8,en;q=0.7","66a16e0b41e98cb469f12b0b","68764874ac79eee8c1d4cb03","687764bb39d9c60d5ff543e7","2","0","66a16e0b41e98cb469f12b0b","2","0","2025-07-16T08:46:17.094Z","","","","","","","","","","","","","","win-only","2","g1:SE,g2:NW","0.3","8","0","512486.5","848.8","5850.9","15858.6","1","4","4","6","1","1","1","18","17","0.13636363636363635","770.5","3000","1820","[""down"",""right""]","{""num_key_presses"":4,""num_perfect"":1,""num_errors"":0,""num_randdir"":3,""num_randdir_good_moves"":3,""num_whilered"":0,""num_whileblue"":0,""num_blue"":0,""num_good_moves"":4}","[549.1881979384896,555.8318885732103,0,549.1881979384896,555.8318885732103,100.1,549.1881979384896,555.8318885732103,203.1,549.1881979384896,555.8318885732103,303.1,549.1881979384896,555.8318885732103,404.1,792.2882032075402,860.531895177405,510.4,1014.4882080235955,999.1318981814791,610.4,1059.5882090011116,1033.2318989205767,711.6,1060.6882090249535,1034.3318989444185,815.7,1060.6882090249535,1034.3318989444185,928.6,1057.388208953428,1026.6318987775255,1031,1055.1882089057442,1015.6318985391069,1135.9,1136.5882106700417,593.2318893838335,1237.5,1150.8882109799858,462.3318865466524,1339.5,1148.6882109323021,456.8318864274431,1440.5,1148.6882109323021,456.8318864274431,1543,1148.6882109323021,456.8318864274431,1646.2,1148.6882109323021,456.8318864274431,1750,1148.6882109323021,456.8318864274431,1850.4,1148.6882109323021,456.8318864274431,1954.1,1148.6882109323021,456.8318864274431,2058.3,1148.6882109323021,456.8318864274431,2158.7,1148.6882109323021,456.8318864274431,2259.3,1148.6882109323021,456.8318864274431,2364.5,1147.5882109084603,459.03188647512684,2469.2,1147.5882109084603,459.03188647512684,2570.2,1147.5882109084603,459.03188647512684,2674.9,1147.5882109084603,459.03188647512684,2780.1,1147.5882109084603,459.03188647512684,2885.1,1147.5882109084603,459.03188647512684,2985.1,1147.5882109084603,459.03188647512684,3087.8,1147.5882109084603,459.03188647512684,3193.8,1147.5882109084603,459.03188647512684,3293.8,1147.5882109084603,459.03188647512684,3396.2,1147.5882109084603,459.03188647512684,3501.5,1147.5882109084603,459.03188647512684,3605.1,1147.5882109084603,459.03188647512684,3710.5,1147.5882109084603,459.03188647512684,3816.7,1147.5882109084603,459.03188647512684,3920.1,1147.5882109084603,459.03188647512684,4020.8,1147.5882109084603,459.03188647512684,4124.8,1147.5882109084603,459.03188647512684,4230.3,1147.5882109084603,459.03188647512684,4335.2,1147.5882109084603,459.03188647512684,4439.5,1147.5882109084603,459.03188647512684,4540.4,1147.5882109084603,459.03188647512684,4643,1147.5882109084603,459.03188647512684,4748,1147.5882109084603,459.03188647512684,4850.1,1147.5882109084603,459.03188647512684,4950.8]","[1327,1327,1000,0,327,""oops"",""down"",""down"",""good_move"",4075.6,2748.3,2385.2,1327.3,363.1,""oops"",""right"",""down"",""good_move"",7007.3,2931.6,2640,4075.8,291.6,""smooth"",""right"",""right"",""good_move"",9897.8,2890.2,2562.7,7007.6,327.5,""oops"",""right"",""right"",""good_move""]","",""
"2325","","<div style=""width:500px;"">
  <p>What determined the result of this run?</p>
  </div>","3","html-slider-response","45","531565","0.0-5.0-1.7","78","1","2025-07-16 08:37:25","1f75c3e559b7213887762d5229550c2b","188.146.154.183","Mozilla/5.0 (Windows NT 10.0; Win64; x64) AppleWebKit/537.36 (KHTML, like Gecko) Chrome/138.0.0.0 Safari/537.36","WebKit","Chrome","138.0.0.0","Windows","10.0","https://app.prolific.com/","pl-PL,pl;q=0.9,en-US;q=0.8,en;q=0.7","66a16e0b41e98cb469f12b0b","68764874ac79eee8c1d4cb03","687764bb39d9c60d5ff543e7","2","0","66a16e0b41e98cb469f12b0b","2","0","2025-07-16T08:46:19.420Z","","","","","","","","","","","AttribQ","","50","","","","","","","","","","","","","","","","","","","","","","","","","","","","",""
"2731","","<div style=""width:500px;"">
  <p>How much control did you have over the ball?</p>
  </div>","4","html-slider-response","46","534297","0.0-5.0-2.7","78","1","2025-07-16 08:37:25","1f75c3e559b7213887762d5229550c2b","188.146.154.183","Mozilla/5.0 (Windows NT 10.0; Win64; x64) AppleWebKit/537.36 (KHTML, like Gecko) Chrome/138.0.0.0 Safari/537.36","WebKit","Chrome","138.0.0.0","Windows","10.0","https://app.prolific.com/","pl-PL,pl;q=0.9,en-US;q=0.8,en;q=0.7","66a16e0b41e98cb469f12b0b","68764874ac79eee8c1d4cb03","687764bb39d9c60d5ff543e7","2","0","66a16e0b41e98cb469f12b0b","2","0","2025-07-16T08:46:22.152Z","","","","","","","","","","","ControlQ","","50","","","","","","","","","","","","","","","","","","","","","","","","","","","","",""
"1555","","<div style=""width:500px;"">
  <p>How would you describe your current emotional state?</p>
  </div>","90","html-slider-response","47","535852","0.0-5.0-3.7","78","1","2025-07-16 08:37:25","1f75c3e559b7213887762d5229550c2b","188.146.154.183","Mozilla/5.0 (Windows NT 10.0; Win64; x64) AppleWebKit/537.36 (KHTML, like Gecko) Chrome/138.0.0.0 Safari/537.36","WebKit","Chrome","138.0.0.0","Windows","10.0","https://app.prolific.com/","pl-PL,pl;q=0.9,en-US;q=0.8,en;q=0.7","66a16e0b41e98cb469f12b0b","68764874ac79eee8c1d4cb03","687764bb39d9c60d5ff543e7","2","0","66a16e0b41e98cb469f12b0b","2","0","2025-07-16T08:46:23.707Z","","","","","","","","","","","StressQ","","50","","","","","","","","","","","","","","","","","","","","","","","","","","","","",""
"3209","","<div style=""width:500px;"">
  <p>What best describes how you currently feel?</p>
  </div>","9","html-slider-response","48","539063","0.0-5.0-4.7","78","1","2025-07-16 08:37:25","1f75c3e559b7213887762d5229550c2b","188.146.154.183","Mozilla/5.0 (Windows NT 10.0; Win64; x64) AppleWebKit/537.36 (KHTML, like Gecko) Chrome/138.0.0.0 Safari/537.36","WebKit","Chrome","138.0.0.0","Windows","10.0","https://app.prolific.com/","pl-PL,pl;q=0.9,en-US;q=0.8,en;q=0.7","66a16e0b41e98cb469f12b0b","68764874ac79eee8c1d4cb03","687764bb39d9c60d5ff543e7","2","0","66a16e0b41e98cb469f12b0b","2","0","2025-07-16T08:46:26.918Z","","","","","","","","","","","MotivationQ","","50","","","","","","","","","","","","","","","","","","","","","","","","","","","","",""
"","","","","ctl-task-cpt","49","598755","0.0-5.0-0.8","78","1","2025-07-16 08:37:25","1f75c3e559b7213887762d5229550c2b","188.146.154.183","Mozilla/5.0 (Windows NT 10.0; Win64; x64) AppleWebKit/537.36 (KHTML, like Gecko) Chrome/138.0.0.0 Safari/537.36","WebKit","Chrome","138.0.0.0","Windows","10.0","https://app.prolific.com/","pl-PL,pl;q=0.9,en-US;q=0.8,en;q=0.7","66a16e0b41e98cb469f12b0b","68764874ac79eee8c1d4cb03","687764bb39d9c60d5ff543e7","2","0","66a16e0b41e98cb469f12b0b","2","0","2025-07-16T08:47:26.611Z","","","","","","","","","","","","","","win-only","3","g1:SW,g2:NE","0.2","9","0","541190.5","610.6","5619.5","56670.5","1","4","8","6","1","-1","-2","16","18","0.12121212121212122","1047.9","3000","-1840","[""down"",""left""]","{""num_key_presses"":14,""num_perfect"":2,""num_errors"":1,""num_randdir"":11,""num_randdir_good_moves"":4,""num_whilered"":0,""num_whileblue"":0,""num_blue"":3,""num_good_moves"":6}","[543.6881978192803,548.1318884063173,0.1,543.6881978192803,548.1318884063173,101.8,543.6881978192803,548.1318884063173,212.1,543.6881978192803,548.1318884063173,313.2,584.388198701429,493.13188721422443,415.4,546.9881978908058,534.931888120215,524.8,127.88818880705801,1027.7318988013674,630.3,104.788188306379,1059.6318994927813,733.6,104.788188306379,1059.6318994927813,833.6,104.788188306379,1058.5318994689394,934.5,104.788188306379,1057.4318994450975,1039.6,104.788188306379,1057.4318994450975,1145.2,101.48818823485342,1028.8318988252092,1252.8,185.08819004683463,868.231895344298,1359.1,359.98819383769,617.4318899083544,1465.2,451.2881958165642,499.7318873572756,1567,456.7881959357735,492.0318871903826,1669.8,456.7881959357735,490.9318871665407,1772.8,456.7881959357735,490.9318871665407,1879.3,456.7881959357735,490.9318871665407,1984.4,456.7881959357735,490.9318871665407,2084.6,456.7881959357735,490.9318871665407,2184.7,456.7881959357735,490.9318871665407,2288.4,456.7881959357735,490.9318871665407,2394.6,456.7881959357735,490.9318871665407,2495.6,456.7881959357735,490.9318871665407,2599.5,456.7881959357735,490.9318871665407,2702.2,456.7881959357735,490.9318871665407,2804.8,456.7881959357735,490.9318871665407,2910.9,456.7881959357735,490.9318871665407,3012.9,456.7881959357735,490.9318871665407,3114.2,456.7881959357735,490.9318871665407,3216.7,456.7881959357735,490.9318871665407,3318.5,456.7881959357735,490.9318871665407,3424.8,456.7881959357735,490.9318871665407,3531.7,456.7881959357735,490.9318871665407,3637.1,456.7881959357735,490.9318871665407,3738.1,456.7881959357735,490.9318871665407,3842.9,456.7881959357735,490.9318871665407,3944.2,456.7881959357735,490.9318871665407,4049.2,456.7881959357735,490.9318871665407,4154.6,456.7881959357735,490.9318871665407,4258.6,456.7881959357735,490.9318871665407,4359,456.7881959357735,490.9318871665407,4464.3,456.7881959357735,490.9318871665407,4564.4,456.7881959357735,490.9318871665407,4670.9,456.7881959357735,490.9318871665407,4777.1,456.7881959357735,490.9318871665407,4878.3,456.7881959357735,490.9318871665407,4985.1]","[5044.9,5044.9,2683.9,2014.7,346.3,""oops"",""down"",""up"",""bad_move"",7783.3,2738.1,2302.9,5045.2,435.2,""oops"",""left"",""left"",""good_move"",14048.5,6265,3150.2,10573.4,324.9,""oops"",""left"",""down"",""good_move"",16664.2,2615.5,2301.4,14048.8,314,""oops"",""left"",""right"",""bad_move"",18634.8,1970.4,1628.7,16664.4,341.8,""smooth"",""left"",""left"",""good_move"",22295.1,3660.2,3211,18635,449.2,""oops"",""left"",""right"",""bad_move"",24864.9,2569.5,2248.6,22295.4,320.9,""smooth"",""left"",""left"",""good_move"",27819.8,2954.7,2644.8,24865.2,309.8,""oops"",""left"",""up"",""bad_move"",34386.5,6566.4,1918.9,32099,368.6,""oops"",""left"",""left"",""good_move"",36615.9,2229.2,1911.9,34386.7,317.3,""oops"",""down"",""right"",""bad_move"",38900.5,2284.3,1976.2,36616.2,308.1,""oops"",""down"",""right"",""bad_move"",41055.2,2154.5,2374.3,38900.7,-219.8,""error"",""-"",""-"",""no_move"",45603.8,4548.4,2898.6,42058.5,646.7,""oops"",""down"",""left"",""good_move"",48292.2,2688.3,2349.9,45603.9,338.4,""oops"",""down"",""right"",""bad_move""]","",""
"2511","","<div style=""width:500px;"">
  <p>What determined the result of this run?</p>
  </div>","5","html-slider-response","50","601267","0.0-5.0-1.8","78","1","2025-07-16 08:37:25","1f75c3e559b7213887762d5229550c2b","188.146.154.183","Mozilla/5.0 (Windows NT 10.0; Win64; x64) AppleWebKit/537.36 (KHTML, like Gecko) Chrome/138.0.0.0 Safari/537.36","WebKit","Chrome","138.0.0.0","Windows","10.0","https://app.prolific.com/","pl-PL,pl;q=0.9,en-US;q=0.8,en;q=0.7","66a16e0b41e98cb469f12b0b","68764874ac79eee8c1d4cb03","687764bb39d9c60d5ff543e7","2","0","66a16e0b41e98cb469f12b0b","2","0","2025-07-16T08:47:29.122Z","","","","","","","","","","","AttribQ","","50","","","","","","","","","","","","","","","","","","","","","","","","","","","","",""
"2591","","<div style=""width:500px;"">
  <p>How much control did you have over the ball?</p>
  </div>","7","html-slider-response","51","603859","0.0-5.0-2.8","78","1","2025-07-16 08:37:25","1f75c3e559b7213887762d5229550c2b","188.146.154.183","Mozilla/5.0 (Windows NT 10.0; Win64; x64) AppleWebKit/537.36 (KHTML, like Gecko) Chrome/138.0.0.0 Safari/537.36","WebKit","Chrome","138.0.0.0","Windows","10.0","https://app.prolific.com/","pl-PL,pl;q=0.9,en-US;q=0.8,en;q=0.7","66a16e0b41e98cb469f12b0b","68764874ac79eee8c1d4cb03","687764bb39d9c60d5ff543e7","2","0","66a16e0b41e98cb469f12b0b","2","0","2025-07-16T08:47:31.714Z","","","","","","","","","","","ControlQ","","50","","","","","","","","","","","","","","","","","","","","","","","","","","","","",""
"2111","","<div style=""width:500px;"">
  <p>How would you describe your current emotional state?</p>
  </div>","99","html-slider-response","52","605970","0.0-5.0-3.8","78","1","2025-07-16 08:37:25","1f75c3e559b7213887762d5229550c2b","188.146.154.183","Mozilla/5.0 (Windows NT 10.0; Win64; x64) AppleWebKit/537.36 (KHTML, like Gecko) Chrome/138.0.0.0 Safari/537.36","WebKit","Chrome","138.0.0.0","Windows","10.0","https://app.prolific.com/","pl-PL,pl;q=0.9,en-US;q=0.8,en;q=0.7","66a16e0b41e98cb469f12b0b","68764874ac79eee8c1d4cb03","687764bb39d9c60d5ff543e7","2","0","66a16e0b41e98cb469f12b0b","2","0","2025-07-16T08:47:33.825Z","","","","","","","","","","","StressQ","","50","","","","","","","","","","","","","","","","","","","","","","","","","","","","",""
"135314","","<div style=""width:500px;"">
  <p>What best describes how you currently feel?</p>
  </div>","3","html-slider-response","53","741285","0.0-5.0-4.8","78","1","2025-07-16 08:37:25","1f75c3e559b7213887762d5229550c2b","188.146.154.183","Mozilla/5.0 (Windows NT 10.0; Win64; x64) AppleWebKit/537.36 (KHTML, like Gecko) Chrome/138.0.0.0 Safari/537.36","WebKit","Chrome","138.0.0.0","Windows","10.0","https://app.prolific.com/","pl-PL,pl;q=0.9,en-US;q=0.8,en;q=0.7","66a16e0b41e98cb469f12b0b","68764874ac79eee8c1d4cb03","687764bb39d9c60d5ff543e7","2","0","66a16e0b41e98cb469f12b0b","2","0","2025-07-16T08:49:49.140Z","","","","","","","","","","","MotivationQ","","50","","","","","","","","","","","","","","","","","","","","","","","","","","","","",""
"","","","","ctl-task-cpt","54","793269","0.0-5.0-0.9","78","1","2025-07-16 08:37:25","1f75c3e559b7213887762d5229550c2b","188.146.154.183","Mozilla/5.0 (Windows NT 10.0; Win64; x64) AppleWebKit/537.36 (KHTML, like Gecko) Chrome/138.0.0.0 Safari/537.36","WebKit","Chrome","138.0.0.0","Windows","10.0","https://app.prolific.com/","pl-PL,pl;q=0.9,en-US;q=0.8,en;q=0.7","66a16e0b41e98cb469f12b0b","68764874ac79eee8c1d4cb03","687764bb39d9c60d5ff543e7","2","0","66a16e0b41e98cb469f12b0b","2","0","2025-07-16T08:50:41.124Z","","","","","","","","","","","","","","win-only","3","g1:SW,g2:NE","0.4","10","0","743417.1","1314.3","6345.4","48925.7","1","4","4","6","2","4","4","20","16","0.15151515151515152","973","3000","2720","[""up"",""right""]","{""num_key_presses"":6,""num_perfect"":4,""num_errors"":0,""num_randdir"":2,""num_randdir_good_moves"":2,""num_whilered"":0,""num_whileblue"":0,""num_blue"":2,""num_good_moves"":6}","[553.588198033857,564.6318887639452,0.2,553.588198033857,564.6318887639452,141,553.588198033857,564.6318887639452,283.1,408.38819488673175,659.231890814345,418.9,431.48819538741077,681.2318912911821,552.4,1062.8882090726372,232.43188156370414,689,1043.0882086434838,113.63187898878348,833.9,1012.2882079759117,98.23187865499747,974.2,1012.2882079759117,98.23187865499747,1115.6,1012.2882079759117,100.43187870268119,1259.7,1012.2882079759117,100.43187870268119,1401.9,1012.2882079759117,100.43187870268119,1502,1012.2882079759117,100.43187870268119,1645.3,1012.2882079759117,100.43187870268119,1788.8,1012.2882079759117,100.43187870268119,1932.3,1012.2882079759117,100.43187870268119,2082.8,1012.2882079759117,100.43187870268119,2201.1,1012.2882079759117,100.43187870268119,2337.8,1012.2882079759117,100.43187870268119,2444.3,1012.2882079759117,100.43187870268119,2589.8,1012.2882079759117,100.43187870268119,2726.3,1012.2882079759117,100.43187870268119,2868.6,1012.2882079759117,100.43187870268119,3010.4,1012.2882079759117,100.43187870268119,3151,1012.2882079759117,100.43187870268119,3288.1,1012.2882079759117,100.43187870268119,3425.2,1012.2882079759117,100.43187870268119,3563.2,1012.2882079759117,100.43187870268119,3699.5,1012.2882079759117,100.43187870268119,3834.7,1012.2882079759117,100.43187870268119,3965.5,1012.2882079759117,100.43187870268119,4095.9,1012.2882079759117,100.43187870268119,4236.3,1012.2882079759117,100.43187870268119,4377.1,1012.2882079759117,100.43187870268119,4516.9,1012.2882079759117,100.43187870268119,4655.8,1012.2882079759117,100.43187870268119,4796.5,1012.2882079759117,100.43187870268119,4937]","[1519.5,1519.5,1000,0,519.5,""oops"",""up"",""right"",""good_move"",4348.7,2828.9,2250.2,1519.8,578.8,""oops"",""up"",""right"",""good_move"",7720.6,3371.7,2979.3,4348.9,392.4,""smooth"",""up"",""up"",""good_move"",16352.7,8631.9,2802.2,7720.8,5829.7,""smooth"",""up"",""up"",""good_move"",32487.9,16135,2634.8,29296.7,556.4,""smooth"",""up"",""up"",""good_move"",41288,8800.1,1905.4,32487.9,6894.7,""smooth"",""right"",""right"",""good_move""]","",""
"3198","","<div style=""width:500px;"">
  <p>What determined the result of this run?</p>
  </div>","6","html-slider-response","55","796473","0.0-5.0-1.9","78","1","2025-07-16 08:37:25","1f75c3e559b7213887762d5229550c2b","188.146.154.183","Mozilla/5.0 (Windows NT 10.0; Win64; x64) AppleWebKit/537.36 (KHTML, like Gecko) Chrome/138.0.0.0 Safari/537.36","WebKit","Chrome","138.0.0.0","Windows","10.0","https://app.prolific.com/","pl-PL,pl;q=0.9,en-US;q=0.8,en;q=0.7","66a16e0b41e98cb469f12b0b","68764874ac79eee8c1d4cb03","687764bb39d9c60d5ff543e7","2","0","66a16e0b41e98cb469f12b0b","2","0","2025-07-16T08:50:44.328Z","","","","","","","","","","","AttribQ","","50","","","","","","","","","","","","","","","","","","","","","","","","","","","","",""
"1548","","<div style=""width:500px;"">
  <p>How much control did you have over the ball?</p>
  </div>","3","html-slider-response","56","798025","0.0-5.0-2.9","78","1","2025-07-16 08:37:25","1f75c3e559b7213887762d5229550c2b","188.146.154.183","Mozilla/5.0 (Windows NT 10.0; Win64; x64) AppleWebKit/537.36 (KHTML, like Gecko) Chrome/138.0.0.0 Safari/537.36","WebKit","Chrome","138.0.0.0","Windows","10.0","https://app.prolific.com/","pl-PL,pl;q=0.9,en-US;q=0.8,en;q=0.7","66a16e0b41e98cb469f12b0b","68764874ac79eee8c1d4cb03","687764bb39d9c60d5ff543e7","2","0","66a16e0b41e98cb469f12b0b","2","0","2025-07-16T08:50:45.880Z","","","","","","","","","","","ControlQ","","50","","","","","","","","","","","","","","","","","","","","","","","","","","","","",""
"2061","","<div style=""width:500px;"">
  <p>How would you describe your current emotional state?</p>
  </div>","99","html-slider-response","57","800091","0.0-5.0-3.9","78","1","2025-07-16 08:37:25","1f75c3e559b7213887762d5229550c2b","188.146.154.183","Mozilla/5.0 (Windows NT 10.0; Win64; x64) AppleWebKit/537.36 (KHTML, like Gecko) Chrome/138.0.0.0 Safari/537.36","WebKit","Chrome","138.0.0.0","Windows","10.0","https://app.prolific.com/","pl-PL,pl;q=0.9,en-US;q=0.8,en;q=0.7","66a16e0b41e98cb469f12b0b","68764874ac79eee8c1d4cb03","687764bb39d9c60d5ff543e7","2","0","66a16e0b41e98cb469f12b0b","2","0","2025-07-16T08:50:47.946Z","","","","","","","","","","","StressQ","","50","","","","","","","","","","","","","","","","","","","","","","","","","","","","",""
"1754","","<div style=""width:500px;"">
  <p>What best describes how you currently feel?</p>
  </div>","4","html-slider-response","58","801850","0.0-5.0-4.9","78","1","2025-07-16 08:37:25","1f75c3e559b7213887762d5229550c2b","188.146.154.183","Mozilla/5.0 (Windows NT 10.0; Win64; x64) AppleWebKit/537.36 (KHTML, like Gecko) Chrome/138.0.0.0 Safari/537.36","WebKit","Chrome","138.0.0.0","Windows","10.0","https://app.prolific.com/","pl-PL,pl;q=0.9,en-US;q=0.8,en;q=0.7","66a16e0b41e98cb469f12b0b","68764874ac79eee8c1d4cb03","687764bb39d9c60d5ff543e7","2","0","66a16e0b41e98cb469f12b0b","2","0","2025-07-16T08:50:49.705Z","","","","","","","","","","","MotivationQ","","50","","","","","","","","","","","","","","","","","","","","","","","","","","","","",""
"","","","","ctl-task-cpt","59","844608","0.0-5.0-0.10","78","1","2025-07-16 08:37:25","1f75c3e559b7213887762d5229550c2b","188.146.154.183","Mozilla/5.0 (Windows NT 10.0; Win64; x64) AppleWebKit/537.36 (KHTML, like Gecko) Chrome/138.0.0.0 Safari/537.36","WebKit","Chrome","138.0.0.0","Windows","10.0","https://app.prolific.com/","pl-PL,pl;q=0.9,en-US;q=0.8,en;q=0.7","66a16e0b41e98cb469f12b0b","68764874ac79eee8c1d4cb03","687764bb39d9c60d5ff543e7","2","0","66a16e0b41e98cb469f12b0b","2","0","2025-07-16T08:51:32.463Z","","","","","","","","","","","","","","win-only","2","g1:SE,g2:NW","0.5","11","0","803981.9","905.4","5953","39727.4","1","4","4","6","2","4","4","24","20","0.18181818181818182","1239.2","3000","835","[""left"",""up""]","{""num_key_presses"":12,""num_perfect"":7,""num_errors"":0,""num_randdir"":5,""num_randdir_good_moves"":2,""num_whilered"":0,""num_whileblue"":0,""num_blue"":0,""num_good_moves"":9}","[562.3881982245919,553.6318885255266,0.1,562.3881982245919,552.5318885016848,141.3,562.3881982245919,552.5318885016848,250.5,432.5881954112526,399.6318851876665,364,-193.3118181547645,-153.668126804788,474.4,-372.61182204098736,-61.268124802071924,583.3,-262.6118196568016,0.3318765330721192,689.8,-372.61182204098736,105.93187882189048,800.3,-318.7118208727363,100.43187870268119,910.6,-77.81181565136941,65.23187793974174,1020.4,116.88818856863944,41.03187741522086,1124,116.88818856863944,41.03187741522086,1234.1,115.78818854479758,41.03187741522086,1347.9,56.38818725733725,91.63187851194633,1456.1,-135.01181689114603,191.7318806815554,1557.3,-218.61181870312723,240.13188173059714,1662.9,-219.71181872696908,240.13188173059714,1773,-219.71181872696908,240.13188173059714,1883.2,-219.71181872696908,240.13188173059714,1992.1,-219.71181872696908,240.13188173059714,2101.5,-219.71181872696908,240.13188173059714,2209.2,-219.71181872696908,240.13188173059714,2317.6,-219.71181872696908,240.13188173059714,2427.1,-219.71181872696908,240.13188173059714,2545.1,-219.71181872696908,240.13188173059714,2667.7,-219.71181872696908,240.13188173059714,2776,-219.71181872696908,240.13188173059714,2886.7,-219.71181872696908,240.13188173059714,3006.7,-219.71181872696908,240.13188173059714,3123.2,-219.71181872696908,240.13188173059714,3240,-219.71181872696908,240.13188173059714,3349.7,-219.71181872696908,240.13188173059714,3460.2,-219.71181872696908,240.13188173059714,3575.5,-219.71181872696908,240.13188173059714,3687.3,-219.71181872696908,240.13188173059714,3800.9,-219.71181872696908,240.13188173059714,3913.6,-219.71181872696908,240.13188173059714,4025.6,-219.71181872696908,240.13188173059714,4138,-219.71181872696908,240.13188173059714,4252.2,-219.71181872696908,240.13188173059714,4384.8,-219.71181872696908,240.13188173059714,4497.7,-219.71181872696908,240.13188173059714,4607,-219.71181872696908,240.13188173059714,4716.1,-219.71181872696908,240.13188173059714,4826.1,-219.71181872696908,240.13188173059714,4938.2]","[1534.9,1534.9,1000,0,534.9,""oops"",""up"",""down"",""bad_move"",4905.6,3370.4,2700,1535.2,670.4,""oops"",""left"",""up"",""good_move"",8605,3699.2,3103.8,4905.8,595.4,""smooth"",""left"",""left"",""good_move"",11142.2,2537.1,2194,8605.1,343.1,""oops"",""left"",""left"",""good_move"",13904.5,2762.2,2405.4,11142.3,356.8,""smooth"",""left"",""left"",""good_move"",17278.4,3373.8,3006.8,13904.6,367,""oops"",""up"",""down"",""bad_move"",19019.4,1740.8,1375.9,17278.6,364.9,""smooth"",""up"",""up"",""good_move"",21189.4,2169.8,1638.6,19019.6,531.2,""smooth"",""up"",""up"",""good_move"",24790.1,3600.6,3273.7,21189.5,326.9,""oops"",""up"",""down"",""bad_move"",27272.2,2482,1969.6,24790.2,512.4,""smooth"",""up"",""up"",""good_move"",30814.2,3541.9,3239.4,27272.3,302.5,""smooth"",""up"",""up"",""good_move"",33625.3,2811,2488.7,30814.3,322.3,""smooth"",""up"",""up"",""good_move""]","",""
"2823","","<div style=""width:500px;"">
  <p>What determined the result of this run?</p>
  </div>","4","html-slider-response","60","847432","0.0-5.0-1.10","78","1","2025-07-16 08:37:25","1f75c3e559b7213887762d5229550c2b","188.146.154.183","Mozilla/5.0 (Windows NT 10.0; Win64; x64) AppleWebKit/537.36 (KHTML, like Gecko) Chrome/138.0.0.0 Safari/537.36","WebKit","Chrome","138.0.0.0","Windows","10.0","https://app.prolific.com/","pl-PL,pl;q=0.9,en-US;q=0.8,en;q=0.7","66a16e0b41e98cb469f12b0b","68764874ac79eee8c1d4cb03","687764bb39d9c60d5ff543e7","2","0","66a16e0b41e98cb469f12b0b","2","0","2025-07-16T08:51:35.287Z","","","","","","","","","","","AttribQ","","50","","","","","","","","","","","","","","","","","","","","","","","","","","","","",""
"1773","","<div style=""width:500px;"">
  <p>How much control did you have over the ball?</p>
  </div>","8","html-slider-response","61","849206","0.0-5.0-2.10","78","1","2025-07-16 08:37:25","1f75c3e559b7213887762d5229550c2b","188.146.154.183","Mozilla/5.0 (Windows NT 10.0; Win64; x64) AppleWebKit/537.36 (KHTML, like Gecko) Chrome/138.0.0.0 Safari/537.36","WebKit","Chrome","138.0.0.0","Windows","10.0","https://app.prolific.com/","pl-PL,pl;q=0.9,en-US;q=0.8,en;q=0.7","66a16e0b41e98cb469f12b0b","68764874ac79eee8c1d4cb03","687764bb39d9c60d5ff543e7","2","0","66a16e0b41e98cb469f12b0b","2","0","2025-07-16T08:51:37.061Z","","","","","","","","","","","ControlQ","","50","","","","","","","","","","","","","","","","","","","","","","","","","","","","",""
"1684","","<div style=""width:500px;"">
  <p>How would you describe your current emotional state?</p>
  </div>","6","html-slider-response","62","850891","0.0-5.0-3.10","78","1","2025-07-16 08:37:25","1f75c3e559b7213887762d5229550c2b","188.146.154.183","Mozilla/5.0 (Windows NT 10.0; Win64; x64) AppleWebKit/537.36 (KHTML, like Gecko) Chrome/138.0.0.0 Safari/537.36","WebKit","Chrome","138.0.0.0","Windows","10.0","https://app.prolific.com/","pl-PL,pl;q=0.9,en-US;q=0.8,en;q=0.7","66a16e0b41e98cb469f12b0b","68764874ac79eee8c1d4cb03","687764bb39d9c60d5ff543e7","2","0","66a16e0b41e98cb469f12b0b","2","0","2025-07-16T08:51:38.746Z","","","","","","","","","","","StressQ","","50","","","","","","","","","","","","","","","","","","","","","","","","","","","","",""
"1551","","<div style=""width:500px;"">
  <p>What best describes how you currently feel?</p>
  </div>","4","html-slider-response","63","852443","0.0-5.0-4.10","78","1","2025-07-16 08:37:25","1f75c3e559b7213887762d5229550c2b","188.146.154.183","Mozilla/5.0 (Windows NT 10.0; Win64; x64) AppleWebKit/537.36 (KHTML, like Gecko) Chrome/138.0.0.0 Safari/537.36","WebKit","Chrome","138.0.0.0","Windows","10.0","https://app.prolific.com/","pl-PL,pl;q=0.9,en-US;q=0.8,en;q=0.7","66a16e0b41e98cb469f12b0b","68764874ac79eee8c1d4cb03","687764bb39d9c60d5ff543e7","2","0","66a16e0b41e98cb469f12b0b","2","0","2025-07-16T08:51:40.298Z","","","","","","","","","","","MotivationQ","","50","","","","","","","","","","","","","","","","","","","","","","","","","","","","",""
"","","","","ctl-task-cpt","64","894361","0.0-5.0-0.11","78","1","2025-07-16 08:37:25","1f75c3e559b7213887762d5229550c2b","188.146.154.183","Mozilla/5.0 (Windows NT 10.0; Win64; x64) AppleWebKit/537.36 (KHTML, like Gecko) Chrome/138.0.0.0 Safari/537.36","WebKit","Chrome","138.0.0.0","Windows","10.0","https://app.prolific.com/","pl-PL,pl;q=0.9,en-US;q=0.8,en;q=0.7","66a16e0b41e98cb469f12b0b","68764874ac79eee8c1d4cb03","687764bb39d9c60d5ff543e7","2","0","66a16e0b41e98cb469f12b0b","2","0","2025-07-16T08:52:22.216Z","","","","","","","","","","","","","","win-only","3","g1:SW,g2:NE","0.6","12","0","854571.1","1232.4","6239.5","38896.7","1","4","8","6","2","8","8","32","24","0.24242424242424243","829.2","3000","1690","[""up"",""right""]","{""num_key_presses"":8,""num_perfect"":5,""num_errors"":0,""num_randdir"":3,""num_randdir_good_moves"":2,""num_whilered"":0,""num_whileblue"":0,""num_blue"":3,""num_good_moves"":7}","[545.888197866964,556.9318885970522,0.3,545.888197866964,556.9318885970522,104.7,545.888197866964,556.9318885970522,214.4,540.3881977477547,556.9318885970522,316.8,594.2881989160057,479.93188692812214,421.9,825.2882039227959,168.63188018087638,526.7,967.1882069983956,48.73187758211387,633.9,986.988207427549,38.831877367537146,741.6,1005.6882078328606,52.03187765363944,842.9,1005.6882078328606,52.03187765363944,950,1060.6882090249535,113.63187898878348,1051.8,1684.388222543287,246.7318818736483,1153,1673.3882223048683,248.931881921332,1261.3,1673.3882223048683,248.931881921332,1364.2,1673.3882223048683,248.931881921332,1466.3,1673.3882223048683,248.931881921332,1566.6,1673.3882223048683,248.931881921332,1674.3,1673.3882223048683,248.931881921332,1783.7,1673.3882223048683,248.931881921332,1890.3,1673.3882223048683,248.931881921332,1992.5,1673.3882223048683,248.931881921332,2094.4,1673.3882223048683,248.931881921332,2198.1,1673.3882223048683,248.931881921332,2303.6,1673.3882223048683,248.931881921332,2408.2,1673.3882223048683,248.931881921332,2513.5,1673.3882223048683,248.931881921332,2618.1,1673.3882223048683,248.931881921332,2724.3,1673.3882223048683,248.931881921332,2827.3,1673.3882223048683,248.931881921332,2936.2,1673.3882223048683,248.931881921332,3038.1,1673.3882223048683,248.931881921332,3138.5,1673.3882223048683,248.931881921332,3244.3,1673.3882223048683,248.931881921332,3347.5,1673.3882223048683,248.931881921332,3448.9,1673.3882223048683,248.931881921332,3557.2,1673.3882223048683,248.931881921332,3662.6,1673.3882223048683,248.931881921332,3763.7,1673.3882223048683,248.931881921332,3873.4,1673.3882223048683,248.931881921332,3980.2,1673.3882223048683,248.931881921332,4080.6,1673.3882223048683,248.931881921332,4185.5,1673.3882223048683,248.931881921332,4292.3,1673.3882223048683,248.931881921332,4398.4,1673.3882223048683,248.931881921332,4504.9,1673.3882223048683,248.931881921332,4611.7,1673.3882223048683,248.931881921332,4711.8,1673.3882223048683,248.931881921332,4813.3,1673.3882223048683,248.931881921332,4916]","[1424.4,1424.4,1000,0,424.4,""smooth"",""up"",""up"",""good_move"",8187.9,6763.3,3025.3,4831.7,330.9,""smooth"",""up"",""up"",""good_move"",11285.4,3097.3,2758.5,8188.1,338.8,""oops"",""up"",""down"",""bad_move"",13613.2,2327.5,1960.9,11285.7,366.6,""smooth"",""up"",""up"",""good_move"",19503.2,5889.8,2619.4,16540.1,343.7,""oops"",""up"",""right"",""good_move"",22878.1,3374.7,2944.1,19503.4,430.6,""smooth"",""up"",""up"",""good_move"",29076.3,6198.1,2158.8,26569.7,347.8,""smooth"",""right"",""right"",""good_move"",32423.1,3346.6,3011.9,29076.5,334.7,""oops"",""right"",""right"",""good_move""]","",""
"8557","","<div style=""width:500px;"">
  <p>What determined the result of this run?</p>
  </div>","2","html-slider-response","65","902919","0.0-5.0-1.11","78","1","2025-07-16 08:37:25","1f75c3e559b7213887762d5229550c2b","188.146.154.183","Mozilla/5.0 (Windows NT 10.0; Win64; x64) AppleWebKit/537.36 (KHTML, like Gecko) Chrome/138.0.0.0 Safari/537.36","WebKit","Chrome","138.0.0.0","Windows","10.0","https://app.prolific.com/","pl-PL,pl;q=0.9,en-US;q=0.8,en;q=0.7","66a16e0b41e98cb469f12b0b","68764874ac79eee8c1d4cb03","687764bb39d9c60d5ff543e7","2","0","66a16e0b41e98cb469f12b0b","2","0","2025-07-16T08:52:30.774Z","","","","","","","","","","","AttribQ","","50","","","","","","","","","","","","","","","","","","","","","","","","","","","","",""
"2504","","<div style=""width:500px;"">
  <p>How much control did you have over the ball?</p>
  </div>","7","html-slider-response","66","905424","0.0-5.0-2.11","78","1","2025-07-16 08:37:25","1f75c3e559b7213887762d5229550c2b","188.146.154.183","Mozilla/5.0 (Windows NT 10.0; Win64; x64) AppleWebKit/537.36 (KHTML, like Gecko) Chrome/138.0.0.0 Safari/537.36","WebKit","Chrome","138.0.0.0","Windows","10.0","https://app.prolific.com/","pl-PL,pl;q=0.9,en-US;q=0.8,en;q=0.7","66a16e0b41e98cb469f12b0b","68764874ac79eee8c1d4cb03","687764bb39d9c60d5ff543e7","2","0","66a16e0b41e98cb469f12b0b","2","0","2025-07-16T08:52:33.279Z","","","","","","","","","","","ControlQ","","50","","","","","","","","","","","","","","","","","","","","","","","","","","","","",""
"7340","","<div style=""width:500px;"">
  <p>How would you describe your current emotional state?</p>
  </div>","97","html-slider-response","67","912764","0.0-5.0-3.11","78","1","2025-07-16 08:37:25","1f75c3e559b7213887762d5229550c2b","188.146.154.183","Mozilla/5.0 (Windows NT 10.0; Win64; x64) AppleWebKit/537.36 (KHTML, like Gecko) Chrome/138.0.0.0 Safari/537.36","WebKit","Chrome","138.0.0.0","Windows","10.0","https://app.prolific.com/","pl-PL,pl;q=0.9,en-US;q=0.8,en;q=0.7","66a16e0b41e98cb469f12b0b","68764874ac79eee8c1d4cb03","687764bb39d9c60d5ff543e7","2","0","66a16e0b41e98cb469f12b0b","2","0","2025-07-16T08:52:40.620Z","","","","","","","","","","","StressQ","","50","","","","","","","","","","","","","","","","","","","","","","","","","","","","",""
"1928","","<div style=""width:500px;"">
  <p>What best describes how you currently feel?</p>
  </div>","4","html-slider-response","68","914694","0.0-5.0-4.11","78","1","2025-07-16 08:37:25","1f75c3e559b7213887762d5229550c2b","188.146.154.183","Mozilla/5.0 (Windows NT 10.0; Win64; x64) AppleWebKit/537.36 (KHTML, like Gecko) Chrome/138.0.0.0 Safari/537.36","WebKit","Chrome","138.0.0.0","Windows","10.0","https://app.prolific.com/","pl-PL,pl;q=0.9,en-US;q=0.8,en;q=0.7","66a16e0b41e98cb469f12b0b","68764874ac79eee8c1d4cb03","687764bb39d9c60d5ff543e7","2","0","66a16e0b41e98cb469f12b0b","2","0","2025-07-16T08:52:42.549Z","","","","","","","","","","","MotivationQ","","50","","","","","","","","","","","","","","","","","","","","","","","","","","","","",""
"","","","","ctl-task-cpt","69","953539","0.0-5.0-0.12","78","1","2025-07-16 08:37:25","1f75c3e559b7213887762d5229550c2b","188.146.154.183","Mozilla/5.0 (Windows NT 10.0; Win64; x64) AppleWebKit/537.36 (KHTML, like Gecko) Chrome/138.0.0.0 Safari/537.36","WebKit","Chrome","138.0.0.0","Windows","10.0","https://app.prolific.com/","pl-PL,pl;q=0.9,en-US;q=0.8,en;q=0.7","66a16e0b41e98cb469f12b0b","68764874ac79eee8c1d4cb03","687764bb39d9c60d5ff543e7","2","0","66a16e0b41e98cb469f12b0b","2","0","2025-07-16T08:53:21.394Z","","","","","","","","","","","","","","win-only","1","g1:NE,g2:SW","0.7","13","0","916825.6","1053.4","6057.5","35817.9","1","4","8","6","2","8","8","40","32","0.30303030303030304","861","3000","1340","[""down"",""left""]","{""num_key_presses"":10,""num_perfect"":7,""num_errors"":0,""num_randdir"":3,""num_randdir_good_moves"":1,""num_whilered"":0,""num_whileblue"":0,""num_blue"":1,""num_good_moves"":8}","[554.6881980576989,550.331888454001,0.1,554.6881980576989,550.331888454001,104.6,554.6881980576989,550.331888454001,212.9,540.3881977477547,575.6318890023638,321.1,381.98819431452716,800.0318938661028,422,20.08818647055594,1154.231901543181,530.8,6.8881861844536445,1155.331901567023,639.4,72.88818761496512,1033.2318989205767,752.8,100.38818821101157,1005.7318983245302,863.4,100.38818821101157,1006.8318983483721,964,2273.988235322523,914.431896345656,1064.7,2273.988235322523,787.9318936038424,1168.6,2157.388232795286,787.9318936038424,1276.3,2062.7882307448863,820.9318943190981,1384,2022.0882298627373,814.331894176047,1486.7,2013.2882296720024,813.2318941522051,1588.3,2013.2882296720024,814.331894176047,1695.5,2013.2882296720024,814.331894176047,1801.8,2012.1882296481606,815.4318941998888,1902.8,2012.1882296481606,815.4318941998888,2011.1,2012.1882296481606,815.4318941998888,2117.4,2012.1882296481606,815.4318941998888,2221.2,2012.1882296481606,815.4318941998888,2328.5,2012.1882296481606,815.4318941998888,2434.4,2012.1882296481606,815.4318941998888,2544.3,2012.1882296481606,815.4318941998888,2645,2012.1882296481606,815.4318941998888,2751.5,2012.1882296481606,815.4318941998888,2856.2,2012.1882296481606,815.4318941998888,2964.8,2012.1882296481606,815.4318941998888,3069.4,2012.1882296481606,815.4318941998888,3176.7,2012.1882296481606,815.4318941998888,3284.3,2012.1882296481606,815.4318941998888,3391,2012.1882296481606,815.4318941998888,3496.6,2012.1882296481606,815.4318941998888,3602.9,2012.1882296481606,815.4318941998888,3708.1,2012.1882296481606,815.4318941998888,3808.3,2012.1882296481606,815.4318941998888,3916.6,2012.1882296481606,815.4318941998888,4018.3,2012.1882296481606,815.4318941998888,4127.9,2012.1882296481606,815.4318941998888,4230.2,2012.1882296481606,815.4318941998888,4338.2,2012.1882296481606,815.4318941998888,4439.9,2012.1882296481606,815.4318941998888,4548.4,2012.1882296481606,815.4318941998888,4648.5,2012.1882296481606,815.4318941998888,4757.3,2012.1882296481606,815.4318941998888,4864.6,2012.1882296481606,815.4318941998888,4973.7]","[1381.2,1381.2,1000,0,381.2,""oops"",""down"",""up"",""bad_move"",4806.3,3424.8,3076.1,1381.5,348.7,""smooth"",""left"",""left"",""good_move"",7735.5,2929.1,2579,4806.4,350.1,""smooth"",""left"",""left"",""good_move"",10338.8,2603.1,2255.4,7735.8,347.6,""smooth"",""left"",""left"",""good_move"",12899.7,2560.8,2263.5,10338.9,297.3,""smooth"",""down"",""down"",""good_move"",15469.9,2570,2272.4,12899.9,297.6,""smooth"",""down"",""down"",""good_move"",18149,2679,2333,15470,346,""oops"",""down"",""down"",""good_move"",24862.7,6713.5,3174.4,21319.2,369.1,""oops"",""down"",""up"",""bad_move"",28115.5,3252.5,2849,24863,403.5,""smooth"",""down"",""down"",""good_move"",29554.9,1439.3,1040.9,28115.6,398.4,""smooth"",""down"",""down"",""good_move""]","",""
"2665","","<div style=""width:500px;"">
  <p>What determined the result of this run?</p>
  </div>","4","html-slider-response","70","956206","0.0-5.0-1.12","78","1","2025-07-16 08:37:25","1f75c3e559b7213887762d5229550c2b","188.146.154.183","Mozilla/5.0 (Windows NT 10.0; Win64; x64) AppleWebKit/537.36 (KHTML, like Gecko) Chrome/138.0.0.0 Safari/537.36","WebKit","Chrome","138.0.0.0","Windows","10.0","https://app.prolific.com/","pl-PL,pl;q=0.9,en-US;q=0.8,en;q=0.7","66a16e0b41e98cb469f12b0b","68764874ac79eee8c1d4cb03","687764bb39d9c60d5ff543e7","2","0","66a16e0b41e98cb469f12b0b","2","0","2025-07-16T08:53:24.061Z","","","","","","","","","","","AttribQ","","50","","","","","","","","","","","","","","","","","","","","","","","","","","","","",""
"2491","","<div style=""width:500px;"">
  <p>How much control did you have over the ball?</p>
  </div>","1","html-slider-response","71","958698","0.0-5.0-2.12","78","1","2025-07-16 08:37:25","1f75c3e559b7213887762d5229550c2b","188.146.154.183","Mozilla/5.0 (Windows NT 10.0; Win64; x64) AppleWebKit/537.36 (KHTML, like Gecko) Chrome/138.0.0.0 Safari/537.36","WebKit","Chrome","138.0.0.0","Windows","10.0","https://app.prolific.com/","pl-PL,pl;q=0.9,en-US;q=0.8,en;q=0.7","66a16e0b41e98cb469f12b0b","68764874ac79eee8c1d4cb03","687764bb39d9c60d5ff543e7","2","0","66a16e0b41e98cb469f12b0b","2","0","2025-07-16T08:53:26.553Z","","","","","","","","","","","ControlQ","","50","","","","","","","","","","","","","","","","","","","","","","","","","","","","",""
"2343","","<div style=""width:500px;"">
  <p>How would you describe your current emotional state?</p>
  </div>","99","html-slider-response","72","961042","0.0-5.0-3.12","78","1","2025-07-16 08:37:25","1f75c3e559b7213887762d5229550c2b","188.146.154.183","Mozilla/5.0 (Windows NT 10.0; Win64; x64) AppleWebKit/537.36 (KHTML, like Gecko) Chrome/138.0.0.0 Safari/537.36","WebKit","Chrome","138.0.0.0","Windows","10.0","https://app.prolific.com/","pl-PL,pl;q=0.9,en-US;q=0.8,en;q=0.7","66a16e0b41e98cb469f12b0b","68764874ac79eee8c1d4cb03","687764bb39d9c60d5ff543e7","2","0","66a16e0b41e98cb469f12b0b","2","0","2025-07-16T08:53:28.897Z","","","","","","","","","","","StressQ","","50","","","","","","","","","","","","","","","","","","","","","","","","","","","","",""
"1864","","<div style=""width:500px;"">
  <p>What best describes how you currently feel?</p>
  </div>","3","html-slider-response","73","962907","0.0-5.0-4.12","78","1","2025-07-16 08:37:25","1f75c3e559b7213887762d5229550c2b","188.146.154.183","Mozilla/5.0 (Windows NT 10.0; Win64; x64) AppleWebKit/537.36 (KHTML, like Gecko) Chrome/138.0.0.0 Safari/537.36","WebKit","Chrome","138.0.0.0","Windows","10.0","https://app.prolific.com/","pl-PL,pl;q=0.9,en-US;q=0.8,en;q=0.7","66a16e0b41e98cb469f12b0b","68764874ac79eee8c1d4cb03","687764bb39d9c60d5ff543e7","2","0","66a16e0b41e98cb469f12b0b","2","0","2025-07-16T08:53:30.762Z","","","","","","","","","","","MotivationQ","","50","","","","","","","","","","","","","","","","","","","","","","","","","","","","",""
"","","","","ctl-task-cpt","74","1009712","0.0-5.0-0.13","78","1","2025-07-16 08:37:25","1f75c3e559b7213887762d5229550c2b","188.146.154.183","Mozilla/5.0 (Windows NT 10.0; Win64; x64) AppleWebKit/537.36 (KHTML, like Gecko) Chrome/138.0.0.0 Safari/537.36","WebKit","Chrome","138.0.0.0","Windows","10.0","https://app.prolific.com/","pl-PL,pl;q=0.9,en-US;q=0.8,en;q=0.7","66a16e0b41e98cb469f12b0b","68764874ac79eee8c1d4cb03","687764bb39d9c60d5ff543e7","2","0","66a16e0b41e98cb469f12b0b","2","0","2025-07-16T08:54:17.567Z","","","","","","","","","","","","","","win-only","1","g1:NE,g2:SW","0.8","14","0","965036.9","1083.2","6092.8","43786.6","1","4","4","6","2","4","4","44","40","0.3333333333333333","700.8","3000","1715","[""down"",""left""]","{""num_key_presses"":8,""num_perfect"":7,""num_errors"":0,""num_randdir"":1,""num_randdir_good_moves"":0,""num_whilered"":0,""num_whileblue"":0,""num_blue"":4,""num_good_moves"":7}","[552.4881980100151,558.031888620894,0.2,552.4881980100151,558.031888620894,108.3,552.4881980100151,558.031888620894,212.6,552.4881980100151,558.031888620894,312.6,197.18819030909506,828.6318944859911,421.5,168.58818968920676,905.6318961549212,521.6,133.3881889262673,956.2318972516466,625,133.3881889262673,956.2318972516466,732.8,418.2881951013085,911.1318962741304,839.7,1068.3882091918465,657.0318907666613,941.4,1307.0882143655297,532.7318880725313,1046.1,1308.1882143893715,530.5318880248476,1146.2,1308.1882143893715,530.5318880248476,1254.5,1308.1882143893715,530.5318880248476,1363.5,1308.1882143893715,530.5318880248476,1473,1308.1882143893715,530.5318880248476,1576.7,1308.1882143893715,531.6318880486895,1678.5,1308.1882143893715,531.6318880486895,1779.9,1308.1882143893715,531.6318880486895,1882.6,1308.1882143893715,531.6318880486895,1989.9,1308.1882143893715,531.6318880486895,2091.1,1308.1882143893715,531.6318880486895,2198.7,1308.1882143893715,531.6318880486895,2299.4,1308.1882143893715,531.6318880486895,2406.3,1308.1882143893715,531.6318880486895,2509.9,1308.1882143893715,531.6318880486895,2611.1,1308.1882143893715,531.6318880486895,2719.3,1308.1882143893715,531.6318880486895,2826.7,1308.1882143893715,531.6318880486895,2931.8,1308.1882143893715,531.6318880486895,3039.7,1308.1882143893715,531.6318880486895,3146.3,1308.1882143893715,531.6318880486895,3250.7,1308.1882143893715,531.6318880486895,3352.4,1308.1882143893715,531.6318880486895,3463.8,1308.1882143893715,531.6318880486895,3567.1,1308.1882143893715,531.6318880486895,3674.8,1308.1882143893715,531.6318880486895,3775.8,1308.1882143893715,531.6318880486895,3882.5,1308.1882143893715,531.6318880486895,3993.7,1308.1882143893715,531.6318880486895,4101.3,1308.1882143893715,531.6318880486895,4209.6,1308.1882143893715,531.6318880486895,4316.1,1308.1882143893715,531.6318880486895,4420.7,1308.1882143893715,531.6318880486895,4531,1308.1882143893715,531.6318880486895,4640.7,1308.1882143893715,531.6318880486895,4741.5,1308.1882143893715,531.6318880486895,4850.5,1308.1882143893715,531.6318880486895,4955.4]","[1525.5,1525.5,1000,0,525.5,""smooth"",""down"",""down"",""good_move"",4503.9,2978.2,2649.3,1525.7,328.9,""smooth"",""left"",""left"",""good_move"",7537.9,3033.8,2697.8,4504.1,336,""smooth"",""left"",""left"",""good_move"",13817,6278.9,2600.9,10820.6,395.5,""smooth"",""left"",""left"",""good_move"",16968.1,3150.9,2799,13817.2,351.9,""smooth"",""down"",""down"",""good_move"",19953.5,2985.2,2656.3,16968.4,328.9,""oops"",""down"",""up"",""bad_move"",26950,6996.2,2502.5,24051.3,396.2,""smooth"",""down"",""down"",""good_move"",37442.8,10492.5,2546.5,34495.7,400.6,""smooth"",""down"",""down"",""good_move""]","",""
"12208","","<div style=""width:500px;"">
  <p>What determined the result of this run?</p>
