"rt","response_timestamp","stimulus","response","trial_type","trial_index","time_elapsed","internal_node_id","run_id","condition","recorded_at","source_code_version","ip","user_agent","device","browser","browser_version","platform","platform_version","referer","accept_language","PROLIFIC_PID","STUDY_ID","SESSION_ID","WEEK","BATCH","prolific_id","week","batch","realtime","success","responses","item_order","radio_event_ids","radio_event_times","key_event_times","mouse_event_times","straightlining","zigzagging","honeypot","eventType","view_history","slider_start","which_type","canvas_config","goals_layout","control_level","trial_number","tutorial_trial_number","trial_start_time","phase1_start_time","phase2_start_time","phase3_start_time","goal_1_value","goal_1_distance","goal_2_value","goal_2_distance","goal_selected","outcome","outcome_total","participant_final_score","participant_initial_score","participant_final_score_prop","goal_choice_rt","allocated_time","allocated_time_remaining","goal_direction","counts","mouse_movements","key_presses","question_order","question_id"
"1665","1752664405530","<p style='font-size:40px;line-height:1.25'><strong>Welcome to the experiment!</strong></p><p style='font-size:1.1em;line-height:1.25'>Thank you for participanting in our experiment again! You will be asked to play the Dysfunctional Ball Game again. We will briefly recap the rules before we start.</p><p style='font-size:1.1em;line-height:1.25'>Press <strong>Next</strong> to continue.</p>","0","custom-html-button-response","0","1669","0.0-0.0","106","1","2025-07-16 11:13:23","1f75c3e559b7213887762d5229550c2b","94.3.17.192","Mozilla/5.0 (X11; CrOS x86_64 14541.0.0) AppleWebKit/537.36 (KHTML, like Gecko) Chrome/137.0.0.0 Safari/537.36","WebKit","Chrome","137.0.0.0","ChromeOS","14541.0.0","https://app.prolific.com/","en-GB,en-US;q=0.9,en;q=0.8","5b5f23420085cb0001872849","68764874ac79eee8c1d4cb03","68778949510d44451f44c61b","2","0","5b5f23420085cb0001872849","2","0","2025-07-16T11:13:25.534Z","","","","","","","","","","","","","","","","","","","","","","","","","","","","","","","","","","","","","","","","","",""
"1129","","","","fullscreen","1","3803","0.0-1.0","106","1","2025-07-16 11:13:23","1f75c3e559b7213887762d5229550c2b","94.3.17.192","Mozilla/5.0 (X11; CrOS x86_64 14541.0.0) AppleWebKit/537.36 (KHTML, like Gecko) Chrome/137.0.0.0 Safari/537.36","WebKit","Chrome","137.0.0.0","ChromeOS","14541.0.0","https://app.prolific.com/","en-GB,en-US;q=0.9,en;q=0.8","5b5f23420085cb0001872849","68764874ac79eee8c1d4cb03","68778949510d44451f44c61b","2","0","5b5f23420085cb0001872849","2","0","","true","","","","","","","","","","","","","","","","","","","","","","","","","","","","","","","","","","","","","","","","",""
"949","1752664408618","<p style='font-size:1.1em;line-height:1.25'>In the following, we will ask you a few questions relating to your feelings in the last 24 hours.<br></p><p style='font-size:1.1em;line-height:1.25'>Press the <strong>Next</strong> button to continue.</p>","0","custom-html-button-response","2","4755","0.0-2.0-0.0","106","1","2025-07-16 11:13:23","1f75c3e559b7213887762d5229550c2b","94.3.17.192","Mozilla/5.0 (X11; CrOS x86_64 14541.0.0) AppleWebKit/537.36 (KHTML, like Gecko) Chrome/137.0.0.0 Safari/537.36","WebKit","Chrome","137.0.0.0","ChromeOS","14541.0.0","https://app.prolific.com/","en-GB,en-US;q=0.9,en;q=0.8","5b5f23420085cb0001872849","68764874ac79eee8c1d4cb03","68778949510d44451f44c61b","2","0","5b5f23420085cb0001872849","2","0","2025-07-16T11:13:28.619Z","","","","","","","","","","","","","","","","","","","","","","","","","","","","","","","","","","","","","","","","","",""
"68285","","","","survey-template","3","73048","0.0-2.0-1.0","106","1","2025-07-16 11:13:23","1f75c3e559b7213887762d5229550c2b","94.3.17.192","Mozilla/5.0 (X11; CrOS x86_64 14541.0.0) AppleWebKit/537.36 (KHTML, like Gecko) Chrome/137.0.0.0 Safari/537.36","WebKit","Chrome","137.0.0.0","ChromeOS","14541.0.0","https://app.prolific.com/","en-GB,en-US;q=0.9,en;q=0.8","5b5f23420085cb0001872849","68764874ac79eee8c1d4cb03","68778949510d44451f44c61b","2","0","5b5f23420085cb0001872849","2","0","2025-07-16T11:14:36.912Z","","{""Q01"":""3"",""Q02"":""1"",""Q03"":""1"",""Q04"":""3"",""Q05"":""1"",""Q06"":""2"",""Q07"":""1"",""Q08"":""0"",""Q09"":""1"",""Q10"":""0"",""Q11"":""2"",""Q12"":""0"",""Q13"":""5"",""Q14"":""1"",""Q15"":""0"",""Q16"":""0"",""Q17"":""0"",""Q18"":""0"",""Q19"":""0"",""Q20"":""0"",""Q21"":""0"",""Q22"":""0""}","[0,1,2,3,4,5,6,7,8,9,10,11,12,13,14,15,16,17,18,19,20,21]","[""Q01"",""Q02"",""Q03"",""Q04"",""Q05"",""Q06"",""Q07"",""Q08"",""Q09"",""Q10"",""Q11"",""Q12"",""Q13"",""Q14"",""Q15"",""Q16"",""Q17"",""Q18"",""Q19"",""Q20"",""Q21"",""Q22""]","[4637.4000000003725,5799.0999999996275,7524.300000000745,9361.900000000373,12351.099999999627,13414.400000000373,15039.800000000745,16413.099999999627,19811.599999999627,21453.900000000373,29266.300000000745,30849.5,32674.400000000373,36026.09999999963,37942.699999999255,39761.59999999963,42282,51521.800000000745,53337.40000000037,59335.5,62226.300000000745,64295.800000000745]","[]","[0.09999999962747097,3213.800000000745,4637.4000000003725,5799.0999999996275,7524.300000000745,9361.900000000373,11283.900000000373,12351.099999999627,13414.400000000373,15039.800000000745,16413.099999999627,19811.599999999627,21453.900000000373,24403.699999999255,29266.300000000745,30849.5,32674.400000000373,36026.09999999963,37942.699999999255,39761.59999999963,42282,45301.800000000745,51521.800000000745,53337.40000000037,59335.5,62226.300000000745,64295.800000000745,65276.300000000745,68272.59999999963]","0.5","0.3333333333333333","0","drsp","","","","","","","","","","","","","","","","","","","","","","","","","","","","","","",""
"8916.699999999255","","","","survey-template","4","81969","0.0-2.0-2.0","106","1","2025-07-16 11:13:23","1f75c3e559b7213887762d5229550c2b","94.3.17.192","Mozilla/5.0 (X11; CrOS x86_64 14541.0.0) AppleWebKit/537.36 (KHTML, like Gecko) Chrome/137.0.0.0 Safari/537.36","WebKit","Chrome","137.0.0.0","ChromeOS","14541.0.0","https://app.prolific.com/","en-GB,en-US;q=0.9,en;q=0.8","5b5f23420085cb0001872849","68764874ac79eee8c1d4cb03","68778949510d44451f44c61b","2","0","5b5f23420085cb0001872849","2","0","2025-07-16T11:14:45.833Z","","{""Q01"":""3"",""Q02"":""4"",""Q03"":""0""}","[0,1,2]","[""Q01"",""Q02"",""Q03""]","[3781.5999999996275,5361.9000000003725,6788.4000000003725]","[]","[3781.5999999996275,5361.9000000003725,6788.4000000003725,8914.199999999255]","0.3333333333333333","0.5","0","stress","","","","","","","","","","","","","","","","","","","","","","","","","","","","","","",""
"11006","","","","instructions","5","92978","0.0-3.0-0.0","106","1","2025-07-16 11:13:23","1f75c3e559b7213887762d5229550c2b","94.3.17.192","Mozilla/5.0 (X11; CrOS x86_64 14541.0.0) AppleWebKit/537.36 (KHTML, like Gecko) Chrome/137.0.0.0 Safari/537.36","WebKit","Chrome","137.0.0.0","ChromeOS","14541.0.0","https://app.prolific.com/","en-GB,en-US;q=0.9,en;q=0.8","5b5f23420085cb0001872849","68764874ac79eee8c1d4cb03","68778949510d44451f44c61b","2","0","5b5f23420085cb0001872849","2","0","","","","","","","","","","","","","[{""page_index"":0,""viewing_time"":11005}]","","","","","","","","","","","","","","","","","","","","","","","","","","","","","",""
"2604","","<p>Before you start with this game please answer the following three questions yourself. </p>
  <p>Through this game, we measure several aspects of your cognitive performance, such as reaction times, multi-tasking capabilities </p>
  <p>and the ability to assess the situation you are in.</p>
  <p></p>
  <p><b>How good do you usually are in such tasks?</b></p>","55","html-slider-response","6","95586","0.0-4.0-0.0","106","1","2025-07-16 11:13:23","1f75c3e559b7213887762d5229550c2b","94.3.17.192","Mozilla/5.0 (X11; CrOS x86_64 14541.0.0) AppleWebKit/537.36 (KHTML, like Gecko) Chrome/137.0.0.0 Safari/537.36","WebKit","Chrome","137.0.0.0","ChromeOS","14541.0.0","https://app.prolific.com/","en-GB,en-US;q=0.9,en;q=0.8","5b5f23420085cb0001872849","68764874ac79eee8c1d4cb03","68778949510d44451f44c61b","2","0","5b5f23420085cb0001872849","2","0","2025-07-16T11:14:59.450Z","","","","","","","","","","","PreSkillQ","","50","","","","","","","","","","","","","","","","","","","","","","","","","","","","",""
"2503","","<div style=""width:500px;"">
  <p>How well do you think you will perform in this task compared to other participants?</p>
  </div>","39","html-slider-response","7","98092","0.0-4.0-1.0","106","1","2025-07-16 11:13:23","1f75c3e559b7213887762d5229550c2b","94.3.17.192","Mozilla/5.0 (X11; CrOS x86_64 14541.0.0) AppleWebKit/537.36 (KHTML, like Gecko) Chrome/137.0.0.0 Safari/537.36","WebKit","Chrome","137.0.0.0","ChromeOS","14541.0.0","https://app.prolific.com/","en-GB,en-US;q=0.9,en;q=0.8","5b5f23420085cb0001872849","68764874ac79eee8c1d4cb03","68778949510d44451f44c61b","2","0","5b5f23420085cb0001872849","2","0","2025-07-16T11:15:01.956Z","","","","","","","","","","","PrePerfQ","","50","","","","","","","","","","","","","","","","","","","","","","","","","","","","",""
"3288","","<div style=""width:500px;"">
  <p>What best describes how you currently feel?</p>
  </div>","71","html-slider-response","8","101383","0.0-4.0-2.0","106","1","2025-07-16 11:13:23","1f75c3e559b7213887762d5229550c2b","94.3.17.192","Mozilla/5.0 (X11; CrOS x86_64 14541.0.0) AppleWebKit/537.36 (KHTML, like Gecko) Chrome/137.0.0.0 Safari/537.36","WebKit","Chrome","137.0.0.0","ChromeOS","14541.0.0","https://app.prolific.com/","en-GB,en-US;q=0.9,en;q=0.8","5b5f23420085cb0001872849","68764874ac79eee8c1d4cb03","68778949510d44451f44c61b","2","0","5b5f23420085cb0001872849","2","0","2025-07-16T11:15:05.247Z","","","","","","","","","","","PreMotivationQ","","50","","","","","","","","","","","","","","","","","","","","","","","","","","","","",""
"","","","","ctl-task-cpt","9","125822","0.0-5.0-0.0","106","1","2025-07-16 11:13:23","1f75c3e559b7213887762d5229550c2b","94.3.17.192","Mozilla/5.0 (X11; CrOS x86_64 14541.0.0) AppleWebKit/537.36 (KHTML, like Gecko) Chrome/137.0.0.0 Safari/537.36","WebKit","Chrome","137.0.0.0","ChromeOS","14541.0.0","https://app.prolific.com/","en-GB,en-US;q=0.9,en;q=0.8","5b5f23420085cb0001872849","68764874ac79eee8c1d4cb03","68778949510d44451f44c61b","2","0","5b5f23420085cb0001872849","2","0","2025-07-16T11:15:29.686Z","","","","","","","","","","","","","","win-only","1","g1:NE,g2:SW","1","1","0","102710.1","1205.3","6206.7","21420.7","1","4","8","6","2","8","8","8","0","0.06060606060606061","1300.8","3000","1115","[""down"",""left""]","{""num_key_presses"":6,""num_perfect"":6,""num_errors"":0,""num_randdir"":0,""num_randdir_good_moves"":0,""num_whilered"":0,""num_whileblue"":0,""num_blue"":0,""num_good_moves"":6}","[410.3214133126395,406.57142761775424,0.2,410.3214133126395,406.57142761775424,101.1,410.3214133126395,406.57142761775424,201,410.3214133126395,406.57142761775424,306,410.3214133126395,406.57142761775424,410.7,410.3214133126395,406.57142761775424,511,410.3214133126395,406.57142761775424,617.4,410.3214133126395,406.57142761775424,720.6,209.0714133126395,594.0714276177542,824.3,100.3214133126395,720.3214276177542,926.5,81.5714133126395,736.5714276177542,1030.8,79.0714133126395,742.8214276177542,1135.3,79.0714133126395,742.8214276177542,1235.8,79.0714133126395,742.8214276177542,1336.4,79.0714133126395,742.8214276177542,1442,79.0714133126395,742.8214276177542,1545.9,805.3214133126395,601.5714276177542,1650.7,1221.5714133126396,589.0714276177542,1751.4,1222.8214133126396,591.5714276177542,1852,1222.8214133126396,591.5714276177542,1954.3,1222.8214133126396,591.5714276177542,2056.6,1222.8214133126396,591.5714276177542,2160.8,1222.8214133126396,591.5714276177542,2261.2,1222.8214133126396,591.5714276177542,2361.2,1222.8214133126396,591.5714276177542,2466.2,1222.8214133126396,591.5714276177542,2570.7,1222.8214133126396,591.5714276177542,2671,1222.8214133126396,591.5714276177542,2775.7,1222.8214133126396,591.5714276177542,2880.8,1222.8214133126396,591.5714276177542,2981.7,1222.8214133126396,591.5714276177542,3085.4,1222.8214133126396,591.5714276177542,3185.4,1222.8214133126396,591.5714276177542,3285.7,1222.8214133126396,591.5714276177542,3386,1222.8214133126396,591.5714276177542,3491.1,1222.8214133126396,591.5714276177542,3597.1,1222.8214133126396,591.5714276177542,3700.7,1222.8214133126396,591.5714276177542,3805.6,1222.8214133126396,591.5714276177542,3905.8,1222.8214133126396,591.5714276177542,4011.1,1222.8214133126396,591.5714276177542,4115.6,1222.8214133126396,591.5714276177542,4216.9,1222.8214133126396,591.5714276177542,4320.9,1222.8214133126396,591.5714276177542,4420.9,1222.8214133126396,591.5714276177542,4521,1222.8214133126396,591.5714276177542,4625.7,1222.8214133126396,591.5714276177542,4725.9,1222.8214133126396,591.5714276177542,4825.9,1222.8214133126396,591.5714276177542,4926]","[1389.5,1389.4,1000,0.1,389.4,""smooth"",""down"",""down"",""good_move"",4758.8,3368.1,3052.7,1391,315.2,""smooth"",""left"",""left"",""good_move"",7486.2,2726.2,2415.8,4760,310.5,""smooth"",""down"",""down"",""good_move"",10343.7,2856.7,2568.4,7487,288.3,""smooth"",""left"",""left"",""good_move"",12295.9,1951.5,1625.7,10344.4,325.8,""smooth"",""left"",""left"",""good_move"",15113.1,2816.5,2504.7,12296.6,311.8,""smooth"",""down"",""down"",""good_move""]","",""
"2996","","<div style=""width:500px;"">
  <p>What determined the result of this run?</p>
  </div>","74","html-slider-response","10","128821","0.0-5.0-1.0","106","1","2025-07-16 11:13:23","1f75c3e559b7213887762d5229550c2b","94.3.17.192","Mozilla/5.0 (X11; CrOS x86_64 14541.0.0) AppleWebKit/537.36 (KHTML, like Gecko) Chrome/137.0.0.0 Safari/537.36","WebKit","Chrome","137.0.0.0","ChromeOS","14541.0.0","https://app.prolific.com/","en-GB,en-US;q=0.9,en;q=0.8","5b5f23420085cb0001872849","68764874ac79eee8c1d4cb03","68778949510d44451f44c61b","2","0","5b5f23420085cb0001872849","2","0","2025-07-16T11:15:32.686Z","","","","","","","","","","","AttribQ","","50","","","","","","","","","","","","","","","","","","","","","","","","","","","","",""
"2241","","<div style=""width:500px;"">
  <p>How much control did you have over the ball?</p>
  </div>","85","html-slider-response","11","131065","0.0-5.0-2.0","106","1","2025-07-16 11:13:23","1f75c3e559b7213887762d5229550c2b","94.3.17.192","Mozilla/5.0 (X11; CrOS x86_64 14541.0.0) AppleWebKit/537.36 (KHTML, like Gecko) Chrome/137.0.0.0 Safari/537.36","WebKit","Chrome","137.0.0.0","ChromeOS","14541.0.0","https://app.prolific.com/","en-GB,en-US;q=0.9,en;q=0.8","5b5f23420085cb0001872849","68764874ac79eee8c1d4cb03","68778949510d44451f44c61b","2","0","5b5f23420085cb0001872849","2","0","2025-07-16T11:15:34.929Z","","","","","","","","","","","ControlQ","","50","","","","","","","","","","","","","","","","","","","","","","","","","","","","",""
"3460","","<div style=""width:500px;"">
  <p>How would you describe your current emotional state?</p>
  </div>","27","html-slider-response","12","134527","0.0-5.0-3.0","106","1","2025-07-16 11:13:23","1f75c3e559b7213887762d5229550c2b","94.3.17.192","Mozilla/5.0 (X11; CrOS x86_64 14541.0.0) AppleWebKit/537.36 (KHTML, like Gecko) Chrome/137.0.0.0 Safari/537.36","WebKit","Chrome","137.0.0.0","ChromeOS","14541.0.0","https://app.prolific.com/","en-GB,en-US;q=0.9,en;q=0.8","5b5f23420085cb0001872849","68764874ac79eee8c1d4cb03","68778949510d44451f44c61b","2","0","5b5f23420085cb0001872849","2","0","2025-07-16T11:15:38.391Z","","","","","","","","","","","StressQ","","50","","","","","","","","","","","","","","","","","","","","","","","","","","","","",""
"2515","","<div style=""width:500px;"">
  <p>What best describes how you currently feel?</p>
  </div>","81","html-slider-response","13","137046","0.0-5.0-4.0","106","1","2025-07-16 11:13:23","1f75c3e559b7213887762d5229550c2b","94.3.17.192","Mozilla/5.0 (X11; CrOS x86_64 14541.0.0) AppleWebKit/537.36 (KHTML, like Gecko) Chrome/137.0.0.0 Safari/537.36","WebKit","Chrome","137.0.0.0","ChromeOS","14541.0.0","https://app.prolific.com/","en-GB,en-US;q=0.9,en;q=0.8","5b5f23420085cb0001872849","68764874ac79eee8c1d4cb03","68778949510d44451f44c61b","2","0","5b5f23420085cb0001872849","2","0","2025-07-16T11:15:40.910Z","","","","","","","","","","","MotivationQ","","50","","","","","","","","","","","","","","","","","","","","","","","","","","","","",""
"","","","","ctl-task-cpt","14","161313","0.0-5.0-0.1","106","1","2025-07-16 11:13:23","1f75c3e559b7213887762d5229550c2b","94.3.17.192","Mozilla/5.0 (X11; CrOS x86_64 14541.0.0) AppleWebKit/537.36 (KHTML, like Gecko) Chrome/137.0.0.0 Safari/537.36","WebKit","Chrome","137.0.0.0","ChromeOS","14541.0.0","https://app.prolific.com/","en-GB,en-US;q=0.9,en;q=0.8","5b5f23420085cb0001872849","68764874ac79eee8c1d4cb03","68778949510d44451f44c61b","2","0","5b5f23420085cb0001872849","2","0","2025-07-16T11:16:05.177Z","","","","","","","","","","","","","","win-only","1","g1:NE,g2:SW","0.9","2","0","138368.9","1447.1","6451.6","21256.3","1","4","4","6","2","4","4","12","8","0.09090909090909091","1463.9","3000","1300","[""down"",""left""]","{""num_key_presses"":6,""num_perfect"":6,""num_errors"":0,""num_randdir"":0,""num_randdir_good_moves"":0,""num_whilered"":0,""num_whileblue"":0,""num_blue"":0,""num_good_moves"":6}","[410.3214133126395,420.32142761775424,0.7,410.3214133126395,420.32142761775424,103.6,410.3214133126395,420.32142761775424,203.7,410.3214133126395,420.32142761775424,304,410.3214133126395,420.32142761775424,411.4,410.3214133126395,420.32142761775424,513,410.3214133126395,420.32142761775424,613.8,410.3214133126395,420.32142761775424,714.1,410.3214133126395,420.32142761775424,818.6,410.3214133126395,420.32142761775424,918.9,160.3214133126395,609.0714276177542,1023.4,60.32141331263951,701.5714276177542,1130.6,57.82141331263951,706.5714276177542,1233.3,50.32141331263951,729.0714276177542,1334.2,50.32141331263951,729.0714276177542,1435.8,50.32141331263951,729.0714276177542,1539.7,50.32141331263951,729.0714276177542,1645.8,50.32141331263951,729.0714276177542,1748.5,960.3214133126395,477.82142761775424,1849.7,1186.5714133126396,552.8214276177542,1950.3,1186.5714133126396,552.8214276177542,2051.1,1186.5714133126396,552.8214276177542,2154,1186.5714133126396,552.8214276177542,2254.6,1186.5714133126396,552.8214276177542,2362.2,1186.5714133126396,552.8214276177542,2463.1,1186.5714133126396,552.8214276177542,2564.4,1186.5714133126396,552.8214276177542,2668.8,1186.5714133126396,552.8214276177542,2770,1186.5714133126396,552.8214276177542,2877.1,1186.5714133126396,552.8214276177542,2978.7,1186.5714133126396,552.8214276177542,3080.5,1186.5714133126396,552.8214276177542,3184,1186.5714133126396,552.8214276177542,3291.6,1186.5714133126396,552.8214276177542,3398.5,1186.5714133126396,552.8214276177542,3499.1,1186.5714133126396,552.8214276177542,3604.2,1186.5714133126396,552.8214276177542,3704.2,1186.5714133126396,552.8214276177542,3812.3,1186.5714133126396,552.8214276177542,3913.7,1186.5714133126396,552.8214276177542,4013.7,1186.5714133126396,552.8214276177542,4114.1,1186.5714133126396,552.8214276177542,4218.8,1186.5714133126396,552.8214276177542,4318.8,1186.5714133126396,552.8214276177542,4418.9,1186.5714133126396,552.8214276177542,4519.2,1186.5714133126396,552.8214276177542,4623.7,1186.5714133126396,552.8214276177542,4725.6,1186.5714133126396,552.8214276177542,4829.2,1186.5714133126396,552.8214276177542,4931.2]","[1280.1,1280.1,1000,0.1,280.1,""smooth"",""down"",""down"",""good_move"",3352.6,2071.6,1775.4,1281.1,296.1,""smooth"",""left"",""left"",""good_move"",5786.5,2433.6,2138.7,3352.9,294.9,""smooth"",""down"",""down"",""good_move"",9385.8,3598.4,3288.1,5787.4,310.3,""smooth"",""left"",""left"",""good_move"",11995.2,2608.8,2299.9,9386.4,308.9,""smooth"",""left"",""left"",""good_move"",14718.8,2723.2,2433.5,11995.7,289.7,""smooth"",""down"",""down"",""good_move""]","",""
"2303","","<div style=""width:500px;"">
  <p>What determined the result of this run?</p>
  </div>","77","html-slider-response","15","163618","0.0-5.0-1.1","106","1","2025-07-16 11:13:23","1f75c3e559b7213887762d5229550c2b","94.3.17.192","Mozilla/5.0 (X11; CrOS x86_64 14541.0.0) AppleWebKit/537.36 (KHTML, like Gecko) Chrome/137.0.0.0 Safari/537.36","WebKit","Chrome","137.0.0.0","ChromeOS","14541.0.0","https://app.prolific.com/","en-GB,en-US;q=0.9,en;q=0.8","5b5f23420085cb0001872849","68764874ac79eee8c1d4cb03","68778949510d44451f44c61b","2","0","5b5f23420085cb0001872849","2","0","2025-07-16T11:16:07.482Z","","","","","","","","","","","AttribQ","","50","","","","","","","","","","","","","","","","","","","","","","","","","","","","",""
"1869","","<div style=""width:500px;"">
  <p>How much control did you have over the ball?</p>
  </div>","90","html-slider-response","16","165489","0.0-5.0-2.1","106","1","2025-07-16 11:13:23","1f75c3e559b7213887762d5229550c2b","94.3.17.192","Mozilla/5.0 (X11; CrOS x86_64 14541.0.0) AppleWebKit/537.36 (KHTML, like Gecko) Chrome/137.0.0.0 Safari/537.36","WebKit","Chrome","137.0.0.0","ChromeOS","14541.0.0","https://app.prolific.com/","en-GB,en-US;q=0.9,en;q=0.8","5b5f23420085cb0001872849","68764874ac79eee8c1d4cb03","68778949510d44451f44c61b","2","0","5b5f23420085cb0001872849","2","0","2025-07-16T11:16:09.353Z","","","","","","","","","","","ControlQ","","50","","","","","","","","","","","","","","","","","","","","","","","","","","","","",""
"2288","","<div style=""width:500px;"">
  <p>How would you describe your current emotional state?</p>
  </div>","28","html-slider-response","17","167778","0.0-5.0-3.1","106","1","2025-07-16 11:13:23","1f75c3e559b7213887762d5229550c2b","94.3.17.192","Mozilla/5.0 (X11; CrOS x86_64 14541.0.0) AppleWebKit/537.36 (KHTML, like Gecko) Chrome/137.0.0.0 Safari/537.36","WebKit","Chrome","137.0.0.0","ChromeOS","14541.0.0","https://app.prolific.com/","en-GB,en-US;q=0.9,en;q=0.8","5b5f23420085cb0001872849","68764874ac79eee8c1d4cb03","68778949510d44451f44c61b","2","0","5b5f23420085cb0001872849","2","0","2025-07-16T11:16:11.642Z","","","","","","","","","","","StressQ","","50","","","","","","","","","","","","","","","","","","","","","","","","","","","","",""
"2134","","<div style=""width:500px;"">
  <p>What best describes how you currently feel?</p>
  </div>","79","html-slider-response","18","169914","0.0-5.0-4.1","106","1","2025-07-16 11:13:23","1f75c3e559b7213887762d5229550c2b","94.3.17.192","Mozilla/5.0 (X11; CrOS x86_64 14541.0.0) AppleWebKit/537.36 (KHTML, like Gecko) Chrome/137.0.0.0 Safari/537.36","WebKit","Chrome","137.0.0.0","ChromeOS","14541.0.0","https://app.prolific.com/","en-GB,en-US;q=0.9,en;q=0.8","5b5f23420085cb0001872849","68764874ac79eee8c1d4cb03","68778949510d44451f44c61b","2","0","5b5f23420085cb0001872849","2","0","2025-07-16T11:16:13.779Z","","","","","","","","","","","MotivationQ","","50","","","","","","","","","","","","","","","","","","","","","","","","","","","","",""
"","","","","ctl-task-cpt","19","188272","0.0-5.0-0.2","106","1","2025-07-16 11:13:23","1f75c3e559b7213887762d5229550c2b","94.3.17.192","Mozilla/5.0 (X11; CrOS x86_64 14541.0.0) AppleWebKit/537.36 (KHTML, like Gecko) Chrome/137.0.0.0 Safari/537.36","WebKit","Chrome","137.0.0.0","ChromeOS","14541.0.0","https://app.prolific.com/","en-GB,en-US;q=0.9,en;q=0.8","5b5f23420085cb0001872849","68764874ac79eee8c1d4cb03","68778949510d44451f44c61b","2","0","5b5f23420085cb0001872849","2","0","2025-07-16T11:16:32.136Z","","","","","","","","","","","","","","win-only","3","g1:SW,g2:NE","0.8","3","0","171238","1014","6018.5","15340.6","1","4","4","6","1","1","1","13","12","0.09848484848484848","2105.3","3000","1760","[""down"",""left""]","{""num_key_presses"":4,""num_perfect"":4,""num_errors"":0,""num_randdir"":0,""num_randdir_good_moves"":0,""num_whilered"":0,""num_whileblue"":0,""num_blue"":0,""num_good_moves"":4}","[427.8214133126395,424.07142761775424,0.8,427.8214133126395,424.07142761775424,107.1,427.8214133126395,424.07142761775424,207.7,427.8214133126395,424.07142761775424,308.9,427.8214133126395,424.07142761775424,410.3,427.8214133126395,424.07142761775424,511.7,427.8214133126395,424.07142761775424,613.5,427.8214133126395,424.07142761775424,716.5,681.5714133126395,217.82142761775424,816.6,769.0714133126395,139.07142761775424,916.9,787.8214133126395,90.32142761775425,1021.5,787.8214133126395,84.07142761775425,1122.2,787.8214133126395,82.82142761775425,1228.6,787.8214133126395,82.82142761775425,1331.6,671.5714133126395,146.57142761775424,1432.8,-5.928586687360493,651.5714276177542,1542.8,-8.428586687360493,654.0714276177542,1647,-8.428586687360493,669.0714276177542,1747.2,57.82141331263951,711.5714276177542,1851.6,82.8214133126395,731.5714276177542,1957.1,82.8214133126395,731.5714276177542,2061.5,82.8214133126395,731.5714276177542,2161.7,82.8214133126395,731.5714276177542,2262.5,82.8214133126395,731.5714276177542,2362.8,907.8214133126395,460.32142761775424,2464.3,1035.3214133126396,482.82142761775424,2565.1,1035.3214133126396,482.82142761775424,2668.9,1035.3214133126396,482.82142761775424,2778,1035.3214133126396,482.82142761775424,2880.2,1035.3214133126396,482.82142761775424,2982.1,1035.3214133126396,482.82142761775424,3087.1,1035.3214133126396,482.82142761775424,3191.4,1035.3214133126396,482.82142761775424,3291.5,1035.3214133126396,482.82142761775424,3391.7,1035.3214133126396,482.82142761775424,3491.8,1035.3214133126396,482.82142761775424,3596.8,1035.3214133126396,482.82142761775424,3696.8,1035.3214133126396,482.82142761775424,3801.5,1035.3214133126396,482.82142761775424,3906.6,1035.3214133126396,482.82142761775424,4011.8,1035.3214133126396,482.82142761775424,4111.9,1035.3214133126396,482.82142761775424,4211.9,1035.3214133126396,482.82142761775424,4312.2,1035.3214133126396,482.82142761775424,4412.2,1035.3214133126396,482.82142761775424,4513.5,1035.3214133126396,482.82142761775424,4616.5,1035.3214133126396,482.82142761775424,4716.7,1035.3214133126396,482.82142761775424,4823,1035.3214133126396,482.82142761775424,4926.8]","[1344.9,1344.9,1000,0,345,""smooth"",""down"",""down"",""good_move"",3935.6,2590,2303.3,1345.6,286.7,""smooth"",""left"",""left"",""good_move"",6587.7,2651.6,2273.7,3936.1,377.9,""smooth"",""left"",""left"",""good_move"",9230.2,2641.9,2357.9,6588.3,284,""smooth"",""down"",""down"",""good_move""]","",""
"2236","","<div style=""width:500px;"">
  <p>What determined the result of this run?</p>
  </div>","81","html-slider-response","20","190512","0.0-5.0-1.2","106","1","2025-07-16 11:13:23","1f75c3e559b7213887762d5229550c2b","94.3.17.192","Mozilla/5.0 (X11; CrOS x86_64 14541.0.0) AppleWebKit/537.36 (KHTML, like Gecko) Chrome/137.0.0.0 Safari/537.36","WebKit","Chrome","137.0.0.0","ChromeOS","14541.0.0","https://app.prolific.com/","en-GB,en-US;q=0.9,en;q=0.8","5b5f23420085cb0001872849","68764874ac79eee8c1d4cb03","68778949510d44451f44c61b","2","0","5b5f23420085cb0001872849","2","0","2025-07-16T11:16:34.376Z","","","","","","","","","","","AttribQ","","50","","","","","","","","","","","","","","","","","","","","","","","","","","","","",""
"2150","","<div style=""width:500px;"">
  <p>How much control did you have over the ball?</p>
  </div>","88","html-slider-response","21","192663","0.0-5.0-2.2","106","1","2025-07-16 11:13:23","1f75c3e559b7213887762d5229550c2b","94.3.17.192","Mozilla/5.0 (X11; CrOS x86_64 14541.0.0) AppleWebKit/537.36 (KHTML, like Gecko) Chrome/137.0.0.0 Safari/537.36","WebKit","Chrome","137.0.0.0","ChromeOS","14541.0.0","https://app.prolific.com/","en-GB,en-US;q=0.9,en;q=0.8","5b5f23420085cb0001872849","68764874ac79eee8c1d4cb03","68778949510d44451f44c61b","2","0","5b5f23420085cb0001872849","2","0","2025-07-16T11:16:36.527Z","","","","","","","","","","","ControlQ","","50","","","","","","","","","","","","","","","","","","","","","","","","","","","","",""
"2081","","<div style=""width:500px;"">
  <p>How would you describe your current emotional state?</p>
  </div>","27","html-slider-response","22","194746","0.0-5.0-3.2","106","1","2025-07-16 11:13:23","1f75c3e559b7213887762d5229550c2b","94.3.17.192","Mozilla/5.0 (X11; CrOS x86_64 14541.0.0) AppleWebKit/537.36 (KHTML, like Gecko) Chrome/137.0.0.0 Safari/537.36","WebKit","Chrome","137.0.0.0","ChromeOS","14541.0.0","https://app.prolific.com/","en-GB,en-US;q=0.9,en;q=0.8","5b5f23420085cb0001872849","68764874ac79eee8c1d4cb03","68778949510d44451f44c61b","2","0","5b5f23420085cb0001872849","2","0","2025-07-16T11:16:38.610Z","","","","","","","","","","","StressQ","","50","","","","","","","","","","","","","","","","","","","","","","","","","","","","",""
"2104","","<div style=""width:500px;"">
  <p>What best describes how you currently feel?</p>
  </div>","85","html-slider-response","23","196852","0.0-5.0-4.2","106","1","2025-07-16 11:13:23","1f75c3e559b7213887762d5229550c2b","94.3.17.192","Mozilla/5.0 (X11; CrOS x86_64 14541.0.0) AppleWebKit/537.36 (KHTML, like Gecko) Chrome/137.0.0.0 Safari/537.36","WebKit","Chrome","137.0.0.0","ChromeOS","14541.0.0","https://app.prolific.com/","en-GB,en-US;q=0.9,en;q=0.8","5b5f23420085cb0001872849","68764874ac79eee8c1d4cb03","68778949510d44451f44c61b","2","0","5b5f23420085cb0001872849","2","0","2025-07-16T11:16:40.717Z","","","","","","","","","","","MotivationQ","","50","","","","","","","","","","","","","","","","","","","","","","","","","","","","",""
"","","","","ctl-task-cpt","24","221079","0.0-5.0-0.3","106","1","2025-07-16 11:13:23","1f75c3e559b7213887762d5229550c2b","94.3.17.192","Mozilla/5.0 (X11; CrOS x86_64 14541.0.0) AppleWebKit/537.36 (KHTML, like Gecko) Chrome/137.0.0.0 Safari/537.36","WebKit","Chrome","137.0.0.0","ChromeOS","14541.0.0","https://app.prolific.com/","en-GB,en-US;q=0.9,en;q=0.8","5b5f23420085cb0001872849","68764874ac79eee8c1d4cb03","68778949510d44451f44c61b","2","0","5b5f23420085cb0001872849","2","0","2025-07-16T11:17:04.943Z","","","","","","","","","","","","","","win-only","1","g1:NE,g2:SW","0.7","4","0","198176.5","958.3","5966.4","21207.8","1","4","8","6","2","8","8","21","13","0.1590909090909091","1227.4","3000","1475","[""down"",""left""]","{""num_key_presses"":6,""num_perfect"":6,""num_errors"":0,""num_randdir"":0,""num_randdir_good_moves"":0,""num_whilered"":0,""num_whileblue"":0,""num_blue"":0,""num_good_moves"":6}","[414.0714133126395,414.07142761775424,0.4,414.0714133126395,414.07142761775424,109.4,414.0714133126395,414.07142761775424,212.4,414.0714133126395,414.07142761775424,313.6,414.0714133126395,414.07142761775424,419.5,414.0714133126395,414.07142761775424,522.9,414.0714133126395,414.07142761775424,624.4,120.3214133126395,641.5714276177542,727.2,-3.428586687360493,717.8214276177542,827.7,-5.928586687360493,727.8214276177542,934.9,4.071413312639507,744.0714276177542,1037.4,7.821413312639507,745.3214276177542,1137.4,7.821413312639507,745.3214276177542,1242,7.821413312639507,745.3214276177542,1342.6,7.821413312639507,745.3214276177542,1446,7.821413312639507,745.3214276177542,1550.6,955.3214133126395,484.07142761775424,1652.5,1216.5714133126396,501.57142761775424,1752.6,1216.5714133126396,501.57142761775424,1857.2,1216.5714133126396,501.57142761775424,1958.1,1216.5714133126396,501.57142761775424,2062,1216.5714133126396,501.57142761775424,2166.6,1216.5714133126396,501.57142761775424,2275.3,1216.5714133126396,501.57142761775424,2378.9,1216.5714133126396,501.57142761775424,2492.3,1216.5714133126396,501.57142761775424,2597.5,1216.5714133126396,501.57142761775424,2704.8,1216.5714133126396,501.57142761775424,2807.5,1216.5714133126396,501.57142761775424,2908.5,1216.5714133126396,501.57142761775424,3013.7,1216.5714133126396,501.57142761775424,3115.2,1216.5714133126396,501.57142761775424,3221.3,1216.5714133126396,501.57142761775424,3324.8,1216.5714133126396,501.57142761775424,3427.1,1216.5714133126396,501.57142761775424,3527.2,1216.5714133126396,501.57142761775424,3634.3,1216.5714133126396,501.57142761775424,3737.1,1216.5714133126396,501.57142761775424,3839.2,1216.5714133126396,501.57142761775424,3944.7,1216.5714133126396,501.57142761775424,4045.7,1216.5714133126396,501.57142761775424,4147.4,1216.5714133126396,501.57142761775424,4255.7,1216.5714133126396,501.57142761775424,4356.6,1216.5714133126396,501.57142761775424,4458,1216.5714133126396,501.57142761775424,4562.1,1216.5714133126396,501.57142761775424,4662.2,1216.5714133126396,501.57142761775424,4768.3,1216.5714133126396,501.57142761775424,4870,1216.5714133126396,501.57142761775424,4980.1]","[1342.1,1342.1,1000,0,342.1,""smooth"",""down"",""down"",""good_move"",4061,2717.7,2390.6,1343.4,327.1,""smooth"",""left"",""left"",""good_move"",6560.9,2498.7,2229.7,4062.3,268.9,""smooth"",""down"",""down"",""good_move"",9705,3143.8,2837.4,6561.3,306.4,""smooth"",""left"",""left"",""good_move"",12013.7,2307.8,2000.6,9705.9,307.2,""smooth"",""left"",""left"",""good_move"",15134.5,3120.1,2808,12014.4,312.1,""smooth"",""down"",""down"",""good_move""]","",""
"3028","","<div style=""width:500px;"">
  <p>What determined the result of this run?</p>
  </div>","86","html-slider-response","25","224109","0.0-5.0-1.3","106","1","2025-07-16 11:13:23","1f75c3e559b7213887762d5229550c2b","94.3.17.192","Mozilla/5.0 (X11; CrOS x86_64 14541.0.0) AppleWebKit/537.36 (KHTML, like Gecko) Chrome/137.0.0.0 Safari/537.36","WebKit","Chrome","137.0.0.0","ChromeOS","14541.0.0","https://app.prolific.com/","en-GB,en-US;q=0.9,en;q=0.8","5b5f23420085cb0001872849","68764874ac79eee8c1d4cb03","68778949510d44451f44c61b","2","0","5b5f23420085cb0001872849","2","0","2025-07-16T11:17:07.973Z","","","","","","","","","","","AttribQ","","50","","","","","","","","","","","","","","","","","","","","","","","","","","","","",""
"1989","","<div style=""width:500px;"">
  <p>How much control did you have over the ball?</p>
  </div>","89","html-slider-response","26","226100","0.0-5.0-2.3","106","1","2025-07-16 11:13:23","1f75c3e559b7213887762d5229550c2b","94.3.17.192","Mozilla/5.0 (X11; CrOS x86_64 14541.0.0) AppleWebKit/537.36 (KHTML, like Gecko) Chrome/137.0.0.0 Safari/537.36","WebKit","Chrome","137.0.0.0","ChromeOS","14541.0.0","https://app.prolific.com/","en-GB,en-US;q=0.9,en;q=0.8","5b5f23420085cb0001872849","68764874ac79eee8c1d4cb03","68778949510d44451f44c61b","2","0","5b5f23420085cb0001872849","2","0","2025-07-16T11:17:09.964Z","","","","","","","","","","","ControlQ","","50","","","","","","","","","","","","","","","","","","","","","","","","","","","","",""
"2071","","<div style=""width:500px;"">
  <p>How would you describe your current emotional state?</p>
  </div>","21","html-slider-response","27","228172","0.0-5.0-3.3","106","1","2025-07-16 11:13:23","1f75c3e559b7213887762d5229550c2b","94.3.17.192","Mozilla/5.0 (X11; CrOS x86_64 14541.0.0) AppleWebKit/537.36 (KHTML, like Gecko) Chrome/137.0.0.0 Safari/537.36","WebKit","Chrome","137.0.0.0","ChromeOS","14541.0.0","https://app.prolific.com/","en-GB,en-US;q=0.9,en;q=0.8","5b5f23420085cb0001872849","68764874ac79eee8c1d4cb03","68778949510d44451f44c61b","2","0","5b5f23420085cb0001872849","2","0","2025-07-16T11:17:12.036Z","","","","","","","","","","","StressQ","","50","","","","","","","","","","","","","","","","","","","","","","","","","","","","",""
"1697","","<div style=""width:500px;"">
  <p>What best describes how you currently feel?</p>
  </div>","75","html-slider-response","28","229870","0.0-5.0-4.3","106","1","2025-07-16 11:13:23","1f75c3e559b7213887762d5229550c2b","94.3.17.192","Mozilla/5.0 (X11; CrOS x86_64 14541.0.0) AppleWebKit/537.36 (KHTML, like Gecko) Chrome/137.0.0.0 Safari/537.36","WebKit","Chrome","137.0.0.0","ChromeOS","14541.0.0","https://app.prolific.com/","en-GB,en-US;q=0.9,en;q=0.8","5b5f23420085cb0001872849","68764874ac79eee8c1d4cb03","68778949510d44451f44c61b","2","0","5b5f23420085cb0001872849","2","0","2025-07-16T11:17:13.734Z","","","","","","","","","","","MotivationQ","","50","","","","","","","","","","","","","","","","","","","","","","","","","","","","",""
"","","","","ctl-task-cpt","29","283465","0.0-5.0-0.4","106","1","2025-07-16 11:13:23","1f75c3e559b7213887762d5229550c2b","94.3.17.192","Mozilla/5.0 (X11; CrOS x86_64 14541.0.0) AppleWebKit/537.36 (KHTML, like Gecko) Chrome/137.0.0.0 Safari/537.36","WebKit","Chrome","137.0.0.0","ChromeOS","14541.0.0","https://app.prolific.com/","en-GB,en-US;q=0.9,en;q=0.8","5b5f23420085cb0001872849","68764874ac79eee8c1d4cb03","68778949510d44451f44c61b","2","0","5b5f23420085cb0001872849","2","0","2025-07-16T11:18:07.329Z","","","","","","","","","","","","","","win-only","3","g1:SW,g2:NE","0.6","5","0","231192.1","924.8","5933.2","50584.3","1","4","4","6","2","-4","-4","17","21","0.12878787878787878","1270.7","3000","-2500","[""up"",""right""]","{""num_key_presses"":11,""num_perfect"":7,""num_errors"":0,""num_randdir"":4,""num_randdir_good_moves"":1,""num_whilered"":0,""num_whileblue"":0,""num_blue"":3,""num_good_moves"":8}","[416.5714133126395,416.57142761775424,0.6,416.5714133126395,416.57142761775424,100.5,416.5714133126395,416.57142761775424,200.5,416.5714133126395,416.57142761775424,300.5,416.5714133126395,416.57142761775424,414.8,416.5714133126395,416.57142761775424,518.5,416.5714133126395,416.57142761775424,618.5,525.3214133126395,294.07142761775424,719.5,714.0714133126395,100.32142761775425,820.9,796.5714133126395,46.57142761775425,925.6,797.8214133126395,45.32142761775425,1025.9,797.8214133126395,45.32142761775425,1131.1,797.8214133126395,45.32142761775425,1231.1,797.8214133126395,45.32142761775425,1340.3,797.8214133126395,45.32142761775425,1441.3,797.8214133126395,45.32142761775425,1543.4,1079.0714133126396,200.32142761775424,1649.4,1095.3214133126396,216.57142761775424,1757.3,1095.3214133126396,216.57142761775424,1862.9,1095.3214133126396,216.57142761775424,1975.1,1095.3214133126396,216.57142761775424,2076.1,1095.3214133126396,216.57142761775424,2180.8,1095.3214133126396,216.57142761775424,2281.6,1095.3214133126396,216.57142761775424,2385.6,1095.3214133126396,216.57142761775424,2485.8,1095.3214133126396,216.57142761775424,2586.3,1095.3214133126396,216.57142761775424,2690.5,1095.3214133126396,216.57142761775424,2790.5,1095.3214133126396,216.57142761775424,2891.1,1095.3214133126396,216.57142761775424,2993.5,1095.3214133126396,216.57142761775424,3102.3,1095.3214133126396,216.57142761775424,3202.9,1095.3214133126396,216.57142761775424,3302.9,1095.3214133126396,216.57142761775424,3407.7,1095.3214133126396,216.57142761775424,3508.1,1095.3214133126396,216.57142761775424,3612.7,1095.3214133126396,216.57142761775424,3715.6,1095.3214133126396,216.57142761775424,3821.3,1095.3214133126396,216.57142761775424,3928.2,1095.3214133126396,216.57142761775424,4031.4,1095.3214133126396,216.57142761775424,4135.5,1095.3214133126396,216.57142761775424,4235.7,1095.3214133126396,216.57142761775424,4340.5,1095.3214133126396,216.57142761775424,4441.4,1095.3214133126396,216.57142761775424,4541.5,1095.3214133126396,216.57142761775424,4642.7,1095.3214133126396,216.57142761775424,4744.7,1095.3214133126396,216.57142761775424,4847.5,1095.3214133126396,216.57142761775424,4947.8]","[5079.7,5079.7,2758.8,2002.3,318.6,""oops"",""up"",""up"",""good_move"",10800.4,5720.2,2024.6,8436.8,339,""smooth"",""right"",""right"",""good_move"",14215.8,3414.5,2995.8,10801.3,418.7,""smooth"",""up"",""up"",""good_move"",17272.5,3056.3,2711.2,14216.3,345.1,""smooth"",""right"",""right"",""good_move"",20821.2,3548.1,3245.7,17273.1,302.5,""oops"",""up"",""down"",""bad_move"",27767.6,6945.4,2916.1,24543.9,307.7,""smooth"",""up"",""up"",""good_move"",30370.2,2601.5,2257.1,27768.7,344.5,""oops"",""up"",""down"",""bad_move"",33508.3,3137.7,2810,30370.7,327.7,""smooth"",""up"",""up"",""good_move"",36380.9,2872,2599.8,33508.9,272.2,""smooth"",""right"",""right"",""good_move"",39560.4,3179,2865.8,36381.4,313.2,""oops"",""up"",""down"",""bad_move"",42104.5,2543.5,2243.6,39561,299.9,""smooth"",""up"",""up"",""good_move""]","",""
"9913","","<div style=""width:500px;"">
  <p>What determined the result of this run?</p>
  </div>","26","html-slider-response","30","293379","0.0-5.0-1.4","106","1","2025-07-16 11:13:23","1f75c3e559b7213887762d5229550c2b","94.3.17.192","Mozilla/5.0 (X11; CrOS x86_64 14541.0.0) AppleWebKit/537.36 (KHTML, like Gecko) Chrome/137.0.0.0 Safari/537.36","WebKit","Chrome","137.0.0.0","ChromeOS","14541.0.0","https://app.prolific.com/","en-GB,en-US;q=0.9,en;q=0.8","5b5f23420085cb0001872849","68764874ac79eee8c1d4cb03","68778949510d44451f44c61b","2","0","5b5f23420085cb0001872849","2","0","2025-07-16T11:18:17.243Z","","","","","","","","","","","AttribQ","","50","","","","","","","","","","","","","","","","","","","","","","","","","","","","",""
"2016","","<div style=""width:500px;"">
  <p>How much control did you have over the ball?</p>
  </div>","57","html-slider-response","31","295396","0.0-5.0-2.4","106","1","2025-07-16 11:13:23","1f75c3e559b7213887762d5229550c2b","94.3.17.192","Mozilla/5.0 (X11; CrOS x86_64 14541.0.0) AppleWebKit/537.36 (KHTML, like Gecko) Chrome/137.0.0.0 Safari/537.36","WebKit","Chrome","137.0.0.0","ChromeOS","14541.0.0","https://app.prolific.com/","en-GB,en-US;q=0.9,en;q=0.8","5b5f23420085cb0001872849","68764874ac79eee8c1d4cb03","68778949510d44451f44c61b","2","0","5b5f23420085cb0001872849","2","0","2025-07-16T11:18:19.260Z","","","","","","","","","","","ControlQ","","50","","","","","","","","","","","","","","","","","","","","","","","","","","","","",""
"3097","","<div style=""width:500px;"">
  <p>How would you describe your current emotional state?</p>
  </div>","43","html-slider-response","32","298494","0.0-5.0-3.4","106","1","2025-07-16 11:13:23","1f75c3e559b7213887762d5229550c2b","94.3.17.192","Mozilla/5.0 (X11; CrOS x86_64 14541.0.0) AppleWebKit/537.36 (KHTML, like Gecko) Chrome/137.0.0.0 Safari/537.36","WebKit","Chrome","137.0.0.0","ChromeOS","14541.0.0","https://app.prolific.com/","en-GB,en-US;q=0.9,en;q=0.8","5b5f23420085cb0001872849","68764874ac79eee8c1d4cb03","68778949510d44451f44c61b","2","0","5b5f23420085cb0001872849","2","0","2025-07-16T11:18:22.358Z","","","","","","","","","","","StressQ","","50","","","","","","","","","","","","","","","","","","","","","","","","","","","","",""
"1661","","<div style=""width:500px;"">
  <p>What best describes how you currently feel?</p>
  </div>","69","html-slider-response","33","300156","0.0-5.0-4.4","106","1","2025-07-16 11:13:23","1f75c3e559b7213887762d5229550c2b","94.3.17.192","Mozilla/5.0 (X11; CrOS x86_64 14541.0.0) AppleWebKit/537.36 (KHTML, like Gecko) Chrome/137.0.0.0 Safari/537.36","WebKit","Chrome","137.0.0.0","ChromeOS","14541.0.0","https://app.prolific.com/","en-GB,en-US;q=0.9,en;q=0.8","5b5f23420085cb0001872849","68764874ac79eee8c1d4cb03","68778949510d44451f44c61b","2","0","5b5f23420085cb0001872849","2","0","2025-07-16T11:18:24.020Z","","","","","","","","","","","MotivationQ","","50","","","","","","","","","","","","","","","","","","","","","","","","","","","","",""
"","","","","ctl-task-cpt","34","343126","0.0-5.0-0.5","106","1","2025-07-16 11:13:23","1f75c3e559b7213887762d5229550c2b","94.3.17.192","Mozilla/5.0 (X11; CrOS x86_64 14541.0.0) AppleWebKit/537.36 (KHTML, like Gecko) Chrome/137.0.0.0 Safari/537.36","WebKit","Chrome","137.0.0.0","ChromeOS","14541.0.0","https://app.prolific.com/","en-GB,en-US;q=0.9,en;q=0.8","5b5f23420085cb0001872849","68764874ac79eee8c1d4cb03","68778949510d44451f44c61b","2","0","5b5f23420085cb0001872849","2","0","2025-07-16T11:19:06.991Z","","","","","","","","","","","","","","win-only","2","g1:SE,g2:NW","0.5","6","0","301478.2","997.2","6000.9","39945.4","1","4","8","6","2","8","7","24","17","0.18181818181818182","1180.4","3000","1005","[""left"",""up""]","{""num_key_presses"":10,""num_perfect"":4,""num_errors"":1,""num_randdir"":5,""num_randdir_good_moves"":4,""num_whilered"":0,""num_whileblue"":1,""num_blue"":3,""num_good_moves"":8}","[415.3214133126395,406.57142761775424,0.3,415.3214133126395,406.57142761775424,104.5,415.3214133126395,406.57142761775424,205,415.3214133126395,406.57142761775424,308.5,415.3214133126395,406.57142761775424,416.5,415.3214133126395,406.57142761775424,518.7,64.0714133126395,90.32142761775425,623.6,17.821413312639507,19.071427617754253,723.7,15.321413312639507,15.321427617754253,830.9,27.821413312639507,27.821427617754253,933.7,36.57141331263951,36.57142761775425,1033.9,36.57141331263951,36.57142761775425,1138.5,36.57141331263951,36.57142761775425,1238.9,36.57141331263951,36.57142761775425,1339.2,36.57141331263951,36.57142761775425,1447.1,-180.9285866873605,129.07142761775424,1549.1,-214.6785866873605,145.32142761775424,1649.5,-214.6785866873605,145.32142761775424,1754.1,-214.6785866873605,145.32142761775424,1859,-214.6785866873605,145.32142761775424,1963.8,-214.6785866873605,145.32142761775424,2065.8,-214.6785866873605,145.32142761775424,2168.7,-214.6785866873605,145.32142761775424,2269.1,-214.6785866873605,145.32142761775424,2369.5,-214.6785866873605,145.32142761775424,2473.4,-214.6785866873605,145.32142761775424,2579.3,-214.6785866873605,145.32142761775424,2686.4,-214.6785866873605,145.32142761775424,2789.6,-214.6785866873605,145.32142761775424,2889.8,-214.6785866873605,145.32142761775424,2990.5,-214.6785866873605,145.32142761775424,3091.7,-214.6785866873605,145.32142761775424,3193.4,-214.6785866873605,145.32142761775424,3294.2,-214.6785866873605,145.32142761775424,3399.8,-214.6785866873605,145.32142761775424,3508.5,-214.6785866873605,145.32142761775424,3616,-214.6785866873605,145.32142761775424,3719.2,-214.6785866873605,145.32142761775424,3823.2,-214.6785866873605,145.32142761775424,3925.3,-214.6785866873605,145.32142761775424,4037.5,-214.6785866873605,145.32142761775424,4141.6,-214.6785866873605,145.32142761775424,4244.7,-214.6785866873605,145.32142761775424,4348.7,-214.6785866873605,145.32142761775424,4448.9,-214.6785866873605,145.32142761775424,4555.1,-214.6785866873605,145.32142761775424,4658.5,-214.6785866873605,145.32142761775424,4759.5,-214.6785866873605,145.32142761775424,4860.3,-214.6785866873605,145.32142761775424,4963.4]","[1341.1,1341.1,1000,0,341.1,""smooth"",""up"",""up"",""good_move"",3769,2426.7,2148.7,1342.3,278.1,""smooth"",""left"",""left"",""good_move"",6243.5,2474,2175.5,3769.5,298.5,""oops"",""up"",""up"",""good_move"",9403,3158.9,2884,6244.1,274.9,""oops"",""left"",""down"",""bad_move"",11744.1,2340.7,2021.6,9403.4,319.1,""oops"",""left"",""up"",""good_move"",14277.8,2533.3,2279.6,11744.7,253.6,""oops"",""left"",""left"",""good_move"",17530.2,3251.8,2966.2,14278.4,285.6,""while_blue"",""up"",""down"",""bad_move"",23747.9,6216.9,2059.1,21320.6,368.3,""oops"",""up"",""up"",""good_move"",30429.4,6680.5,2271.4,27759.8,398.2,""smooth"",""up"",""up"",""good_move"",33825.8,3396.3,3074.1,30429.6,322.2,""smooth"",""left"",""left"",""good_move""]","",""
"2487","","<div style=""width:500px;"">
  <p>What determined the result of this run?</p>
  </div>","68","html-slider-response","35","345616","0.0-5.0-1.5","106","1","2025-07-16 11:13:23","1f75c3e559b7213887762d5229550c2b","94.3.17.192","Mozilla/5.0 (X11; CrOS x86_64 14541.0.0) AppleWebKit/537.36 (KHTML, like Gecko) Chrome/137.0.0.0 Safari/537.36","WebKit","Chrome","137.0.0.0","ChromeOS","14541.0.0","https://app.prolific.com/","en-GB,en-US;q=0.9,en;q=0.8","5b5f23420085cb0001872849","68764874ac79eee8c1d4cb03","68778949510d44451f44c61b","2","0","5b5f23420085cb0001872849","2","0","2025-07-16T11:19:09.480Z","","","","","","","","","","","AttribQ","","50","","","","","","","","","","","","","","","","","","","","","","","","","","","","",""
"2206","","<div style=""width:500px;"">
  <p>How much control did you have over the ball?</p>
  </div>","58","html-slider-response","36","347823","0.0-5.0-2.5","106","1","2025-07-16 11:13:23","1f75c3e559b7213887762d5229550c2b","94.3.17.192","Mozilla/5.0 (X11; CrOS x86_64 14541.0.0) AppleWebKit/537.36 (KHTML, like Gecko) Chrome/137.0.0.0 Safari/537.36","WebKit","Chrome","137.0.0.0","ChromeOS","14541.0.0","https://app.prolific.com/","en-GB,en-US;q=0.9,en;q=0.8","5b5f23420085cb0001872849","68764874ac79eee8c1d4cb03","68778949510d44451f44c61b","2","0","5b5f23420085cb0001872849","2","0","2025-07-16T11:19:11.687Z","","","","","","","","","","","ControlQ","","50","","","","","","","","","","","","","","","","","","","","","","","","","","","","",""
"2434","","<div style=""width:500px;"">
  <p>How would you describe your current emotional state?</p>
  </div>","30","html-slider-response","37","350258","0.0-5.0-3.5","106","1","2025-07-16 11:13:23","1f75c3e559b7213887762d5229550c2b","94.3.17.192","Mozilla/5.0 (X11; CrOS x86_64 14541.0.0) AppleWebKit/537.36 (KHTML, like Gecko) Chrome/137.0.0.0 Safari/537.36","WebKit","Chrome","137.0.0.0","ChromeOS","14541.0.0","https://app.prolific.com/","en-GB,en-US;q=0.9,en;q=0.8","5b5f23420085cb0001872849","68764874ac79eee8c1d4cb03","68778949510d44451f44c61b","2","0","5b5f23420085cb0001872849","2","0","2025-07-16T11:19:14.123Z","","","","","","","","","","","StressQ","","50","","","","","","","","","","","","","","","","","","","","","","","","","","","","",""
"1842","","<div style=""width:500px;"">
  <p>What best describes how you currently feel?</p>
  </div>","74","html-slider-response","38","352101","0.0-5.0-4.5","106","1","2025-07-16 11:13:23","1f75c3e559b7213887762d5229550c2b","94.3.17.192","Mozilla/5.0 (X11; CrOS x86_64 14541.0.0) AppleWebKit/537.36 (KHTML, like Gecko) Chrome/137.0.0.0 Safari/537.36","WebKit","Chrome","137.0.0.0","ChromeOS","14541.0.0","https://app.prolific.com/","en-GB,en-US;q=0.9,en;q=0.8","5b5f23420085cb0001872849","68764874ac79eee8c1d4cb03","68778949510d44451f44c61b","2","0","5b5f23420085cb0001872849","2","0","2025-07-16T11:19:15.966Z","","","","","","","","","","","MotivationQ","","50","","","","","","","","","","","","","","","","","","","","","","","","","","","","",""
"","","","","ctl-task-cpt","39","392112","0.0-5.0-0.6","106","1","2025-07-16 11:13:23","1f75c3e559b7213887762d5229550c2b","94.3.17.192","Mozilla/5.0 (X11; CrOS x86_64 14541.0.0) AppleWebKit/537.36 (KHTML, like Gecko) Chrome/137.0.0.0 Safari/537.36","WebKit","Chrome","137.0.0.0","ChromeOS","14541.0.0","https://app.prolific.com/","en-GB,en-US;q=0.9,en;q=0.8","5b5f23420085cb0001872849","68764874ac79eee8c1d4cb03","68778949510d44451f44c61b","2","0","5b5f23420085cb0001872849","2","0","2025-07-16T11:19:55.976Z","","","","","","","","","","","","","","win-only","3","g1:SW,g2:NE","0.4","7","0","353423.4","1407.4","6420.5","36991","1","4","4","6","1","1","1","25","24","0.1893939393939394","2305.1","3000","325","[""down"",""left""]","{""num_key_presses"":10,""num_perfect"":4,""num_errors"":0,""num_randdir"":6,""num_randdir_good_moves"":3,""num_whilered"":0,""num_whileblue"":0,""num_blue"":1,""num_good_moves"":7}","[420.3214133126395,411.57142761775424,0.8,420.3214133126395,411.57142761775424,101.6,420.3214133126395,411.57142761775424,206,420.3214133126395,411.57142761775424,313.4,420.3214133126395,411.57142761775424,425.5,420.3214133126395,411.57142761775424,528.1,420.3214133126395,411.57142761775424,628.3,421.5714133126395,409.07142761775424,728.3,420.3214133126395,409.07142761775424,833.8,420.3214133126395,409.07142761775424,935.8,420.3214133126395,409.07142761775424,1036.8,420.3214133126395,409.07142761775424,1138.3,420.3214133126395,409.07142761775424,1238.3,420.3214133126395,409.07142761775424,1343.6,420.3214133126395,409.07142761775424,1449,420.3214133126395,409.07142761775424,1554.1,420.3214133126395,409.07142761775424,1665.7,115.3214133126395,655.3214276177542,1779.5,110.3214133126395,664.0714276177542,1885.4,97.8214133126395,687.8214276177542,1985.4,84.0714133126395,736.5714276177542,2088.4,82.8214133126395,742.8214276177542,2188.9,82.8214133126395,742.8214276177542,2293.5,82.8214133126395,742.8214276177542,2405,82.8214133126395,742.8214276177542,2507.4,82.8214133126395,742.8214276177542,2610.6,999.0714133126395,511.57142761775424,2715.3,1285.3214133126396,512.8214276177542,2819.8,1285.3214133126396,512.8214276177542,2923.7,1285.3214133126396,512.8214276177542,3023.8,1285.3214133126396,512.8214276177542,3128.2,1285.3214133126396,512.8214276177542,3228.5,1285.3214133126396,512.8214276177542,3328.5,1285.3214133126396,512.8214276177542,3428.9,1285.3214133126396,512.8214276177542,3534.3,1285.3214133126396,512.8214276177542,3638,1285.3214133126396,512.8214276177542,3741.4,1285.3214133126396,512.8214276177542,3843.4,1285.3214133126396,512.8214276177542,3946.6,1285.3214133126396,512.8214276177542,4058.6,1285.3214133126396,512.8214276177542,4158.7,1285.3214133126396,512.8214276177542,4262.9,1285.3214133126396,512.8214276177542,4364.4,1285.3214133126396,512.8214276177542,4468.7,1285.3214133126396,512.8214276177542,4568.8,1285.3214133126396,512.8214276177542,4673.7,1285.3214133126396,512.8214276177542,4785.5,1285.3214133126396,512.8214276177542,4887.4,1285.3214133126396,512.8214276177542,4990.2]","[1422.3,1422.3,1000,0,422.3,""oops"",""down"",""right"",""bad_move"",4586.5,3163.3,2840.1,1423.2,323.2,""smooth"",""down"",""down"",""good_move"",7249.5,2662.3,2341.8,4587.2,320.5,""smooth"",""left"",""left"",""good_move"",9930.6,2680.6,2398.2,7250,282.4,""oops"",""left"",""down"",""good_move"",15735,5803.8,2178.6,13225.2,331.2,""smooth"",""left"",""left"",""good_move"",18102.8,2366.8,2014,15736,352.8,""oops"",""left"",""right"",""bad_move"",22035.1,3932,3609.2,18103.1,322.8,""oops"",""left"",""up"",""bad_move"",25073.4,3037.9,2742.5,22035.5,295.4,""smooth"",""left"",""left"",""good_move"",27600.1,2525.6,2190.4,25074.6,335.1,""oops"",""left"",""down"",""good_move"",30483.7,2882.3,2561.6,27601.4,320.7,""oops"",""left"",""left"",""good_move""]","",""
"3926","","<div style=""width:500px;"">
  <p>What determined the result of this run?</p>
  </div>","31","html-slider-response","40","396041","0.0-5.0-1.6","106","1","2025-07-16 11:13:23","1f75c3e559b7213887762d5229550c2b","94.3.17.192","Mozilla/5.0 (X11; CrOS x86_64 14541.0.0) AppleWebKit/537.36 (KHTML, like Gecko) Chrome/137.0.0.0 Safari/537.36","WebKit","Chrome","137.0.0.0","ChromeOS","14541.0.0","https://app.prolific.com/","en-GB,en-US;q=0.9,en;q=0.8","5b5f23420085cb0001872849","68764874ac79eee8c1d4cb03","68778949510d44451f44c61b","2","0","5b5f23420085cb0001872849","2","0","2025-07-16T11:19:59.905Z","","","","","","","","","","","AttribQ","","50","","","","","","","","","","","","","","","","","","","","","","","","","","","","",""
"1662","","<div style=""width:500px;"">
  <p>How much control did you have over the ball?</p>
  </div>","39","html-slider-response","41","397704","0.0-5.0-2.6","106","1","2025-07-16 11:13:23","1f75c3e559b7213887762d5229550c2b","94.3.17.192","Mozilla/5.0 (X11; CrOS x86_64 14541.0.0) AppleWebKit/537.36 (KHTML, like Gecko) Chrome/137.0.0.0 Safari/537.36","WebKit","Chrome","137.0.0.0","ChromeOS","14541.0.0","https://app.prolific.com/","en-GB,en-US;q=0.9,en;q=0.8","5b5f23420085cb0001872849","68764874ac79eee8c1d4cb03","68778949510d44451f44c61b","2","0","5b5f23420085cb0001872849","2","0","2025-07-16T11:20:01.568Z","","","","","","","","","","","ControlQ","","50","","","","","","","","","","","","","","","","","","","","","","","","","","","","",""
"3188","","<div style=""width:500px;"">
  <p>How would you describe your current emotional state?</p>
  </div>","45","html-slider-response","42","400892","0.0-5.0-3.6","106","1","2025-07-16 11:13:23","1f75c3e559b7213887762d5229550c2b","94.3.17.192","Mozilla/5.0 (X11; CrOS x86_64 14541.0.0) AppleWebKit/537.36 (KHTML, like Gecko) Chrome/137.0.0.0 Safari/537.36","WebKit","Chrome","137.0.0.0","ChromeOS","14541.0.0","https://app.prolific.com/","en-GB,en-US;q=0.9,en;q=0.8","5b5f23420085cb0001872849","68764874ac79eee8c1d4cb03","68778949510d44451f44c61b","2","0","5b5f23420085cb0001872849","2","0","2025-07-16T11:20:04.757Z","","","","","","","","","","","StressQ","","50","","","","","","","","","","","","","","","","","","","","","","","","","","","","",""
"2978","","<div style=""width:500px;"">
  <p>What best describes how you currently feel?</p>
  </div>","74","html-slider-response","43","403872","0.0-5.0-4.6","106","1","2025-07-16 11:13:23","1f75c3e559b7213887762d5229550c2b","94.3.17.192","Mozilla/5.0 (X11; CrOS x86_64 14541.0.0) AppleWebKit/537.36 (KHTML, like Gecko) Chrome/137.0.0.0 Safari/537.36","WebKit","Chrome","137.0.0.0","ChromeOS","14541.0.0","https://app.prolific.com/","en-GB,en-US;q=0.9,en;q=0.8","5b5f23420085cb0001872849","68764874ac79eee8c1d4cb03","68778949510d44451f44c61b","2","0","5b5f23420085cb0001872849","2","0","2025-07-16T11:20:07.736Z","","","","","","","","","","","MotivationQ","","50","","","","","","","","","","","","","","","","","","","","","","","","","","","","",""
"","","","","ctl-task-cpt","44","456735","0.0-5.0-0.7","106","1","2025-07-16 11:13:23","1f75c3e559b7213887762d5229550c2b","94.3.17.192","Mozilla/5.0 (X11; CrOS x86_64 14541.0.0) AppleWebKit/537.36 (KHTML, like Gecko) Chrome/137.0.0.0 Safari/537.36","WebKit","Chrome","137.0.0.0","ChromeOS","14541.0.0","https://app.prolific.com/","en-GB,en-US;q=0.9,en;q=0.8","5b5f23420085cb0001872849","68764874ac79eee8c1d4cb03","68778949510d44451f44c61b","2","0","5b5f23420085cb0001872849","2","0","2025-07-16T11:21:00.599Z","","","","","","","","","","","","","","win-only","2","g1:SE,g2:NW","0.3","8","0","405193.5","1208.8","6211.4","49848.5","1","4","8","6","2","-8","-8","17","25","0.12878787878787878","1041.9","3000","-2730","[""left"",""up""]","{""num_key_presses"":11,""num_perfect"":4,""num_errors"":0,""num_randdir"":7,""num_randdir_good_moves"":4,""num_whilered"":0,""num_whileblue"":0,""num_blue"":3,""num_good_moves"":8}","[417.8214133126395,420.32142761775424,1,417.8214133126395,420.32142761775424,102,417.8214133126395,420.32142761775424,203.3,417.8214133126395,420.32142761775424,308.1,417.8214133126395,420.32142761775424,409.3,289.0714133126395,269.07142761775424,512.8,156.5714133126395,60.32142761775425,618.4,155.3214133126395,59.07142761775425,723.7,46.57141331263951,82.82142761775425,824.4,46.57141331263951,82.82142761775425,927.5,46.57141331263951,82.82142761775425,1028.3,46.57141331263951,82.82142761775425,1136.8,46.57141331263951,82.82142761775425,1248.6,46.57141331263951,82.82142761775425,1355.8,-340.9285866873605,142.82142761775424,1455.8,-340.9285866873605,142.82142761775424,1555.9,-340.9285866873605,142.82142761775424,1657.8,-340.9285866873605,142.82142761775424,1758.4,-340.9285866873605,142.82142761775424,1862.5,-340.9285866873605,142.82142761775424,1967.4,-340.9285866873605,142.82142761775424,2067.9,-340.9285866873605,142.82142761775424,2169.4,-340.9285866873605,142.82142761775424,2272.4,-340.9285866873605,142.82142761775424,2379.8,-340.9285866873605,142.82142761775424,2482.1,-340.9285866873605,142.82142761775424,2582.4,-340.9285866873605,142.82142761775424,2690.1,-340.9285866873605,142.82142761775424,2792.7,-340.9285866873605,142.82142761775424,2897,-340.9285866873605,142.82142761775424,3005.9,-340.9285866873605,142.82142761775424,3109.2,-340.9285866873605,142.82142761775424,3212.7,-340.9285866873605,142.82142761775424,3319,-340.9285866873605,142.82142761775424,3423.1,-340.9285866873605,142.82142761775424,3524.7,-340.9285866873605,142.82142761775424,3625,-340.9285866873605,142.82142761775424,3725.6,-340.9285866873605,142.82142761775424,3827.6,-340.9285866873605,142.82142761775424,3931.1,-340.9285866873605,142.82142761775424,4039.2,-340.9285866873605,142.82142761775424,4142.5,-340.9285866873605,142.82142761775424,4244.5,-340.9285866873605,142.82142761775424,4348.9,-340.9285866873605,142.82142761775424,4450.3,-340.9285866873605,142.82142761775424,4553.9,-340.9285866873605,142.82142761775424,4661,-340.9285866873605,142.82142761775424,4762,-340.9285866873605,142.82142761775424,4868.3,-340.9285866873605,142.82142761775424,4973.1]","[1393.5,1393.5,1000,0,393.5,""smooth"",""up"",""up"",""good_move"",5098.2,3703.9,3408,1394.3,295.9,""oops"",""up"",""down"",""bad_move"",8261.6,3163,2846.6,5098.6,316.4,""oops"",""left"",""right"",""bad_move"",11681.8,3419.9,3111.8,8261.9,308.1,""smooth"",""up"",""up"",""good_move"",13825.1,2142.8,1842.2,11682.3,300.6,""oops"",""left"",""left"",""good_move"",16389.3,2563.3,2311.9,13826.1,251.4,""oops"",""up"",""up"",""good_move"",29200,12810.4,2254.4,26561,384.6,""oops"",""left"",""right"",""bad_move"",32672.7,3471.9,3188.3,29200.9,283.6,""oops"",""left"",""up"",""good_move"",35501.3,2827,2552.4,32674.3,274.6,""oops"",""left"",""left"",""good_move"",38660.7,3159.1,2876,35501.6,283.1,""smooth"",""left"",""left"",""good_move"",41108.7,2447.5,2139.7,38661.3,307.7,""smooth"",""left"",""left"",""good_move""]","",""
"3861","","<div style=""width:500px;"">
  <p>What determined the result of this run?</p>
  </div>","18","html-slider-response","45","460597","0.0-5.0-1.7","106","1","2025-07-16 11:13:23","1f75c3e559b7213887762d5229550c2b","94.3.17.192","Mozilla/5.0 (X11; CrOS x86_64 14541.0.0) AppleWebKit/537.36 (KHTML, like Gecko) Chrome/137.0.0.0 Safari/537.36","WebKit","Chrome","137.0.0.0","ChromeOS","14541.0.0","https://app.prolific.com/","en-GB,en-US;q=0.9,en;q=0.8","5b5f23420085cb0001872849","68764874ac79eee8c1d4cb03","68778949510d44451f44c61b","2","0","5b5f23420085cb0001872849","2","0","2025-07-16T11:21:04.461Z","","","","","","","","","","","AttribQ","","50","","","","","","","","","","","","","","","","","","","","","","","","","","","","",""
"2988","","<div style=""width:500px;"">
  <p>How much control did you have over the ball?</p>
  </div>","36","html-slider-response","46","463586","0.0-5.0-2.7","106","1","2025-07-16 11:13:23","1f75c3e559b7213887762d5229550c2b","94.3.17.192","Mozilla/5.0 (X11; CrOS x86_64 14541.0.0) AppleWebKit/537.36 (KHTML, like Gecko) Chrome/137.0.0.0 Safari/537.36","WebKit","Chrome","137.0.0.0","ChromeOS","14541.0.0","https://app.prolific.com/","en-GB,en-US;q=0.9,en;q=0.8","5b5f23420085cb0001872849","68764874ac79eee8c1d4cb03","68778949510d44451f44c61b","2","0","5b5f23420085cb0001872849","2","0","2025-07-16T11:21:07.450Z","","","","","","","","","","","ControlQ","","50","","","","","","","","","","","","","","","","","","","","","","","","","","","","",""
"3589","","<div style=""width:500px;"">
  <p>How would you describe your current emotional state?</p>
  </div>","66","html-slider-response","47","467176","0.0-5.0-3.7","106","1","2025-07-16 11:13:23","1f75c3e559b7213887762d5229550c2b","94.3.17.192","Mozilla/5.0 (X11; CrOS x86_64 14541.0.0) AppleWebKit/537.36 (KHTML, like Gecko) Chrome/137.0.0.0 Safari/537.36","WebKit","Chrome","137.0.0.0","ChromeOS","14541.0.0","https://app.prolific.com/","en-GB,en-US;q=0.9,en;q=0.8","5b5f23420085cb0001872849","68764874ac79eee8c1d4cb03","68778949510d44451f44c61b","2","0","5b5f23420085cb0001872849","2","0","2025-07-16T11:21:11.040Z","","","","","","","","","","","StressQ","","50","","","","","","","","","","","","","","","","","","","","","","","","","","","","",""
"3388","","<div style=""width:500px;"">
  <p>What best describes how you currently feel?</p>
  </div>","62","html-slider-response","48","470565","0.0-5.0-4.7","106","1","2025-07-16 11:13:23","1f75c3e559b7213887762d5229550c2b","94.3.17.192","Mozilla/5.0 (X11; CrOS x86_64 14541.0.0) AppleWebKit/537.36 (KHTML, like Gecko) Chrome/137.0.0.0 Safari/537.36","WebKit","Chrome","137.0.0.0","ChromeOS","14541.0.0","https://app.prolific.com/","en-GB,en-US;q=0.9,en;q=0.8","5b5f23420085cb0001872849","68764874ac79eee8c1d4cb03","68778949510d44451f44c61b","2","0","5b5f23420085cb0001872849","2","0","2025-07-16T11:21:14.429Z","","","","","","","","","","","MotivationQ","","50","","","","","","","","","","","","","","","","","","","","","","","","","","","","",""
"","","","","ctl-task-cpt","49","525870","0.0-5.0-0.8","106","1","2025-07-16 11:13:23","1f75c3e559b7213887762d5229550c2b","94.3.17.192","Mozilla/5.0 (X11; CrOS x86_64 14541.0.0) AppleWebKit/537.36 (KHTML, like Gecko) Chrome/137.0.0.0 Safari/537.36","WebKit","Chrome","137.0.0.0","ChromeOS","14541.0.0","https://app.prolific.com/","en-GB,en-US;q=0.9,en;q=0.8","5b5f23420085cb0001872849","68764874ac79eee8c1d4cb03","68778949510d44451f44c61b","2","0","5b5f23420085cb0001872849","2","0","2025-07-16T11:22:09.734Z","","","","","","","","","","","","","","win-only","2","g1:SE,g2:NW","0.2","9","0","471886.5","1123.7","6131.9","52295.4","1","4","8","6","2","-8","-10","7","17","0.05303030303030303","999","3000","-2670","[""left"",""up""]","{""num_key_presses"":14,""num_perfect"":2,""num_errors"":2,""num_randdir"":10,""num_randdir_good_moves"":5,""num_whilered"":0,""num_whileblue"":1,""num_blue"":2,""num_good_moves"":8}","[414.0714133126395,404.07142761775424,0.5,414.0714133126395,404.07142761775424,104.4,414.0714133126395,404.07142761775424,206.2,414.0714133126395,404.07142761775424,311.9,414.0714133126395,404.07142761775424,412.1,61.57141331263951,16.571427617754253,512.3,52.82141331263951,5.321427617754253,614.2,52.82141331263951,5.321427617754253,717.1,61.57141331263951,21.571427617754253,817.1,62.82141331263951,24.071427617754253,917.5,62.82141331263951,24.071427617754253,1022.7,62.82141331263951,24.071427617754253,1127,62.82141331263951,24.071427617754253,1237.7,-78.4285866873605,81.57142761775425,1342.1,-268.4285866873605,164.07142761775424,1444.3,-268.4285866873605,164.07142761775424,1547.2,-268.4285866873605,164.07142761775424,1649.3,-268.4285866873605,164.07142761775424,1753.3,-268.4285866873605,164.07142761775424,1858.1,-268.4285866873605,164.07142761775424,1961.9,-268.4285866873605,164.07142761775424,2062.6,-268.4285866873605,164.07142761775424,2167.6,-268.4285866873605,164.07142761775424,2272.7,-268.4285866873605,164.07142761775424,2374.5,-268.4285866873605,164.07142761775424,2475.5,-268.4285866873605,164.07142761775424,2578.6,-268.4285866873605,164.07142761775424,2679.7,-268.4285866873605,164.07142761775424,2785.2,-268.4285866873605,164.07142761775424,2889.2,-268.4285866873605,164.07142761775424,2994.2,-268.4285866873605,164.07142761775424,3097.2,-268.4285866873605,164.07142761775424,3206.4,-268.4285866873605,164.07142761775424,3316.5,-268.4285866873605,164.07142761775424,3417.3,-268.4285866873605,164.07142761775424,3517.3,-268.4285866873605,164.07142761775424,3618.1,-268.4285866873605,164.07142761775424,3719,-268.4285866873605,164.07142761775424,3820,-268.4285866873605,164.07142761775424,3923.5,-268.4285866873605,164.07142761775424,4024,-268.4285866873605,164.07142761775424,4127.9,-268.4285866873605,164.07142761775424,4229.6,-268.4285866873605,164.07142761775424,4335,-268.4285866873605,164.07142761775424,4441.1,-268.4285866873605,164.07142761775424,4542.7,-268.4285866873605,164.07142761775424,4642.7,-268.4285866873605,164.07142761775424,4742.8,-268.4285866873605,164.07142761775424,4846.9,-268.4285866873605,164.07142761775424,4950.1]","[1318.9,1318.9,1000,0,318.9,""oops"",""up"",""up"",""good_move"",4543.8,3224.1,2911.8,1319.8,312.3,""oops"",""left"",""left"",""good_move"",7398.9,2854.5,2546.7,4544.4,307.8,""oops"",""up"",""up"",""good_move"",10484.6,3085.4,2779.9,7399.2,305.5,""oops"",""left"",""down"",""bad_move"",17111.9,6627,2239.4,14544.7,327.8,""oops"",""left"",""right"",""bad_move"",20362.6,3250,2917,17112.6,333,""oops"",""up"",""down"",""bad_move"",23152.4,2789.4,2521.7,20363,267.7,""while_blue"",""up"",""left"",""good_move"",26309,3156.1,2842.7,23153,313.3,""smooth"",""up"",""up"",""good_move"",29696.6,3387.2,3056.2,26309.4,331,""oops"",""up"",""up"",""good_move"",31864.6,2167.9,1831,29696.8,336.8,""oops"",""up"",""left"",""good_move"",34867.2,3002.1,2684.3,31865.1,317.8,""smooth"",""up"",""up"",""good_move"",37604.7,2737.3,2460.5,34867.4,276.8,""oops"",""left"",""down"",""bad_move"",40476.4,2871,2564.4,37605.4,306.6,""oops"",""up"",""down"",""bad_move"",42295.8,1819,2293.1,40476.8,-474.1,""error"",""-"",""-"",""no_move""]","",""
"2560","","<div style=""width:500px;"">
  <p>What determined the result of this run?</p>
  </div>","21","html-slider-response","50","528432","0.0-5.0-1.8","106","1","2025-07-16 11:13:23","1f75c3e559b7213887762d5229550c2b","94.3.17.192","Mozilla/5.0 (X11; CrOS x86_64 14541.0.0) AppleWebKit/537.36 (KHTML, like Gecko) Chrome/137.0.0.0 Safari/537.36","WebKit","Chrome","137.0.0.0","ChromeOS","14541.0.0","https://app.prolific.com/","en-GB,en-US;q=0.9,en;q=0.8","5b5f23420085cb0001872849","68764874ac79eee8c1d4cb03","68778949510d44451f44c61b","2","0","5b5f23420085cb0001872849","2","0","2025-07-16T11:22:12.296Z","","","","","","","","","","","AttribQ","","50","","","","","","","","","","","","","","","","","","","","","","","","","","","","",""
"2133","","<div style=""width:500px;"">
  <p>How much control did you have over the ball?</p>
  </div>","23","html-slider-response","51","530567","0.0-5.0-2.8","106","1","2025-07-16 11:13:23","1f75c3e559b7213887762d5229550c2b","94.3.17.192","Mozilla/5.0 (X11; CrOS x86_64 14541.0.0) AppleWebKit/537.36 (KHTML, like Gecko) Chrome/137.0.0.0 Safari/537.36","WebKit","Chrome","137.0.0.0","ChromeOS","14541.0.0","https://app.prolific.com/","en-GB,en-US;q=0.9,en;q=0.8","5b5f23420085cb0001872849","68764874ac79eee8c1d4cb03","68778949510d44451f44c61b","2","0","5b5f23420085cb0001872849","2","0","2025-07-16T11:22:14.431Z","","","","","","","","","","","ControlQ","","50","","","","","","","","","","","","","","","","","","","","","","","","","","","","",""
"3188","","<div style=""width:500px;"">
  <p>How would you describe your current emotional state?</p>
  </div>","79","html-slider-response","52","533756","0.0-5.0-3.8","106","1","2025-07-16 11:13:23","1f75c3e559b7213887762d5229550c2b","94.3.17.192","Mozilla/5.0 (X11; CrOS x86_64 14541.0.0) AppleWebKit/537.36 (KHTML, like Gecko) Chrome/137.0.0.0 Safari/537.36","WebKit","Chrome","137.0.0.0","ChromeOS","14541.0.0","https://app.prolific.com/","en-GB,en-US;q=0.9,en;q=0.8","5b5f23420085cb0001872849","68764874ac79eee8c1d4cb03","68778949510d44451f44c61b","2","0","5b5f23420085cb0001872849","2","0","2025-07-16T11:22:17.620Z","","","","","","","","","","","StressQ","","50","","","","","","","","","","","","","","","","","","","","","","","","","","","","",""
"2697","","<div style=""width:500px;"">
  <p>What best describes how you currently feel?</p>
  </div>","43","html-slider-response","53","536454","0.0-5.0-4.8","106","1","2025-07-16 11:13:23","1f75c3e559b7213887762d5229550c2b","94.3.17.192","Mozilla/5.0 (X11; CrOS x86_64 14541.0.0) AppleWebKit/537.36 (KHTML, like Gecko) Chrome/137.0.0.0 Safari/537.36","WebKit","Chrome","137.0.0.0","ChromeOS","14541.0.0","https://app.prolific.com/","en-GB,en-US;q=0.9,en;q=0.8","5b5f23420085cb0001872849","68764874ac79eee8c1d4cb03","68778949510d44451f44c61b","2","0","5b5f23420085cb0001872849","2","0","2025-07-16T11:22:20.318Z","","","","","","","","","","","MotivationQ","","50","","","","","","","","","","","","","","","","","","","","","","","","","","","","",""
"","","","","ctl-task-cpt","54","600232","0.0-5.0-0.9","106","1","2025-07-16 11:13:23","1f75c3e559b7213887762d5229550c2b","94.3.17.192","Mozilla/5.0 (X11; CrOS x86_64 14541.0.0) AppleWebKit/537.36 (KHTML, like Gecko) Chrome/137.0.0.0 Safari/537.36","WebKit","Chrome","137.0.0.0","ChromeOS","14541.0.0","https://app.prolific.com/","en-GB,en-US;q=0.9,en;q=0.8","5b5f23420085cb0001872849","68764874ac79eee8c1d4cb03","68778949510d44451f44c61b","2","0","5b5f23420085cb0001872849","2","0","2025-07-16T11:23:24.096Z","","","","","","","","","","","","","","win-only","2","g1:SE,g2:NW","0.4","10","0","537776.4","1132.6","6135.6","60761.2","1","4","4","6","2","-4","-8","0","7","0","1389.3","3000","-2490","[""left"",""up""]","{""num_key_presses"":16,""num_perfect"":5,""num_errors"":4,""num_randdir"":6,""num_randdir_good_moves"":3,""num_whilered"":1,""num_whileblue"":0,""num_blue"":5,""num_good_moves"":8}","[406.5714133126395,414.07142761775424,0.3,406.5714133126395,414.07142761775424,101.3,406.5714133126395,414.07142761775424,203.5,406.5714133126395,414.07142761775424,307.9,406.5714133126395,414.07142761775424,408.1,406.5714133126395,414.07142761775424,512.9,184.0714133126395,104.07142761775425,615.3,181.5714133126395,100.32142761775425,723,-45.92858668736049,47.82142761775425,823.6,-47.17858668736049,46.57142761775425,926.4,-47.17858668736049,46.57142761775425,1029.7,-47.17858668736049,46.57142761775425,1130.5,49.07141331263951,59.07142761775425,1239.4,49.07141331263951,59.07142761775425,1343.7,49.07141331263951,59.07142761775425,1453,49.07141331263951,59.07142761775425,1556.3,49.07141331263951,59.07142761775425,1664.3,-219.6785866873605,241.57142761775424,1768.1,-225.9285866873605,249.07142761775424,1870.5,-225.9285866873605,249.07142761775424,1974.7,-225.9285866873605,249.07142761775424,2078.5,-225.9285866873605,249.07142761775424,2179,-225.9285866873605,249.07142761775424,2285,-225.9285866873605,249.07142761775424,2388.2,-225.9285866873605,249.07142761775424,2488.9,-225.9285866873605,249.07142761775424,2597.7,-225.9285866873605,249.07142761775424,2698.1,-225.9285866873605,249.07142761775424,2801.2,-225.9285866873605,249.07142761775424,2905.7,-225.9285866873605,249.07142761775424,3007.8,-225.9285866873605,249.07142761775424,3114.3,-225.9285866873605,249.07142761775424,3221.9,-225.9285866873605,249.07142761775424,3323.2,-225.9285866873605,249.07142761775424,3425,-225.9285866873605,249.07142761775424,3530.8,-225.9285866873605,249.07142761775424,3636,-225.9285866873605,249.07142761775424,3736.8,-225.9285866873605,249.07142761775424,3839.4,-225.9285866873605,249.07142761775424,3943.4,-225.9285866873605,249.07142761775424,4043.6,-225.9285866873605,249.07142761775424,4147.3,-225.9285866873605,249.07142761775424,4247.5,-225.9285866873605,249.07142761775424,4352.4,-225.9285866873605,249.07142761775424,4456.1,-225.9285866873605,249.07142761775424,4556.5,-225.9285866873605,249.07142761775424,4659,-225.9285866873605,249.07142761775424,4760.3,-225.9285866873605,249.07142761775424,4860.6,-225.9285866873605,249.07142761775424,4965.8]","[1361.7,1361.7,1000,0,361.7,""smooth"",""up"",""up"",""good_move"",12860,11497.9,2606.7,9897.5,355.8,""smooth"",""up"",""up"",""good_move"",19280.2,6419.7,2702.4,16214.7,363.1,""oops"",""left"",""down"",""bad_move"",26306.1,7025.5,2832,23134.6,339.6,""smooth"",""left"",""left"",""good_move"",29392.1,3084.6,2735.3,26307.5,349.3,""oops"",""up"",""right"",""bad_move"",31831.3,2438.7,2054.3,29392.6,384.4,""oops"",""up"",""up"",""good_move"",34494.7,2663.1,2343.8,31831.7,319.3,""oops"",""left"",""left"",""good_move"",36625.7,2130.4,1834.4,34495.3,296,""oops"",""left"",""down"",""bad_move"",39385.7,2759.6,2493.6,36626.2,266,""oops"",""left"",""left"",""good_move"",42096.2,2710.1,2430.3,39386.1,279.8,""smooth"",""up"",""up"",""good_move"",44777.8,2681.3,2404.1,42096.6,277.2,""smooth"",""up"",""up"",""good_move"",46713,1934.9,2543,44778.1,-608.1,""error"",""-"",""-"",""no_move"",47292.5,579.2,2543,44778.1,-28.6,""while_red"",""-"",""-"",""no_move"",47998.8,1285.5,2708.6,47715.4,-2425.2,""error"",""-"",""-"",""no_move"",49308.6,1309.6,2843.8,49001.3,-2536.5,""error"",""-"",""-"",""no_move"",51356.2,2047.4,2364.5,50310.8,-1319.1,""error"",""-"",""-"",""no_move""]","",""
"2779","","<div style=""width:500px;"">
  <p>What determined the result of this run?</p>
  </div>","75","html-slider-response","55","603012","0.0-5.0-1.9","106","1","2025-07-16 11:13:23","1f75c3e559b7213887762d5229550c2b","94.3.17.192","Mozilla/5.0 (X11; CrOS x86_64 14541.0.0) AppleWebKit/537.36 (KHTML, like Gecko) Chrome/137.0.0.0 Safari/537.36","WebKit","Chrome","137.0.0.0","ChromeOS","14541.0.0","https://app.prolific.com/","en-GB,en-US;q=0.9,en;q=0.8","5b5f23420085cb0001872849","68764874ac79eee8c1d4cb03","68778949510d44451f44c61b","2","0","5b5f23420085cb0001872849","2","0","2025-07-16T11:23:26.876Z","","","","","","","","","","","AttribQ","","50","","","","","","","","","","","","","","","","","","","","","","","","","","","","",""
"1842","","<div style=""width:500px;"">
  <p>How much control did you have over the ball?</p>
  </div>","30","html-slider-response","56","604856","0.0-5.0-2.9","106","1","2025-07-16 11:13:23","1f75c3e559b7213887762d5229550c2b","94.3.17.192","Mozilla/5.0 (X11; CrOS x86_64 14541.0.0) AppleWebKit/537.36 (KHTML, like Gecko) Chrome/137.0.0.0 Safari/537.36","WebKit","Chrome","137.0.0.0","ChromeOS","14541.0.0","https://app.prolific.com/","en-GB,en-US;q=0.9,en;q=0.8","5b5f23420085cb0001872849","68764874ac79eee8c1d4cb03","68778949510d44451f44c61b","2","0","5b5f23420085cb0001872849","2","0","2025-07-16T11:23:28.720Z","","","","","","","","","","","ControlQ","","50","","","","","","","","","","","","","","","","","","","","","","","","","","","","",""
"2814","","<div style=""width:500px;"">
  <p>How would you describe your current emotional state?</p>
  </div>","85","html-slider-response","57","607671","0.0-5.0-3.9","106","1","2025-07-16 11:13:23","1f75c3e559b7213887762d5229550c2b","94.3.17.192","Mozilla/5.0 (X11; CrOS x86_64 14541.0.0) AppleWebKit/537.36 (KHTML, like Gecko) Chrome/137.0.0.0 Safari/537.36","WebKit","Chrome","137.0.0.0","ChromeOS","14541.0.0","https://app.prolific.com/","en-GB,en-US;q=0.9,en;q=0.8","5b5f23420085cb0001872849","68764874ac79eee8c1d4cb03","68778949510d44451f44c61b","2","0","5b5f23420085cb0001872849","2","0","2025-07-16T11:23:31.535Z","","","","","","","","","","","StressQ","","50","","","","","","","","","","","","","","","","","","","","","","","","","","","","",""
"1916","","<div style=""width:500px;"">
  <p>What best describes how you currently feel?</p>
  </div>","39","html-slider-response","58","609589","0.0-5.0-4.9","106","1","2025-07-16 11:13:23","1f75c3e559b7213887762d5229550c2b","94.3.17.192","Mozilla/5.0 (X11; CrOS x86_64 14541.0.0) AppleWebKit/537.36 (KHTML, like Gecko) Chrome/137.0.0.0 Safari/537.36","WebKit","Chrome","137.0.0.0","ChromeOS","14541.0.0","https://app.prolific.com/","en-GB,en-US;q=0.9,en;q=0.8","5b5f23420085cb0001872849","68764874ac79eee8c1d4cb03","68778949510d44451f44c61b","2","0","5b5f23420085cb0001872849","2","0","2025-07-16T11:23:33.453Z","","","","","","","","","","","MotivationQ","","50","","","","","","","","","","","","","","","","","","","","","","","","","","","","",""
"","","","","ctl-task-cpt","59","639546","0.0-5.0-0.10","106","1","2025-07-16 11:13:23","1f75c3e559b7213887762d5229550c2b","94.3.17.192","Mozilla/5.0 (X11; CrOS x86_64 14541.0.0) AppleWebKit/537.36 (KHTML, like Gecko) Chrome/137.0.0.0 Safari/537.36","WebKit","Chrome","137.0.0.0","ChromeOS","14541.0.0","https://app.prolific.com/","en-GB,en-US;q=0.9,en;q=0.8","5b5f23420085cb0001872849","68764874ac79eee8c1d4cb03","68778949510d44451f44c61b","2","0","5b5f23420085cb0001872849","2","0","2025-07-16T11:24:03.410Z","","","","","","","","","","","","","","win-only","0","g1:NW,g2:SE","0.5","11","0","610910.7","960.1","5962.3","26939.8","1","4","4","6","2","4","4","4","0","0.030303030303030304","1362.5","3000","1520","[""down"",""right""]","{""num_key_presses"":6,""num_perfect"":3,""num_errors"":0,""num_randdir"":3,""num_randdir_good_moves"":3,""num_whilered"":0,""num_whileblue"":0,""num_blue"":2,""num_good_moves"":6}","[421.5714133126395,407.82142761775424,0.4,421.5714133126395,407.82142761775424,103.8,421.5714133126395,407.82142761775424,205.4,421.5714133126395,407.82142761775424,309,421.5714133126395,407.82142761775424,412,421.5714133126395,407.82142761775424,516.4,421.5714133126395,407.82142761775424,623.2,421.5714133126395,407.82142761775424,723.8,832.8214133126395,744.0714276177542,830,871.5714133126395,797.8214276177542,931.4,874.0714133126395,802.8214276177542,1031.9,755.3214133126395,730.3214276177542,1134.8,754.0714133126395,730.3214276177542,1237.6,754.0714133126395,730.3214276177542,1337.7,754.0714133126395,730.3214276177542,1444.6,754.0714133126395,730.3214276177542,1551.9,754.0714133126395,730.3214276177542,1652.5,1072.8214133126396,554.0714276177542,1756.4,1089.0714133126396,544.0714276177542,1859.4,1089.0714133126396,544.0714276177542,1960.4,1089.0714133126396,544.0714276177542,2061.6,1089.0714133126396,544.0714276177542,2168.8,1089.0714133126396,544.0714276177542,2270.7,1089.0714133126396,544.0714276177542,2374,1089.0714133126396,544.0714276177542,2474,1089.0714133126396,544.0714276177542,2578.1,1089.0714133126396,544.0714276177542,2683.5,1089.0714133126396,544.0714276177542,2786.5,1089.0714133126396,544.0714276177542,2888.1,1089.0714133126396,544.0714276177542,2995,1089.0714133126396,544.0714276177542,3106,1089.0714133126396,544.0714276177542,3206.1,1089.0714133126396,544.0714276177542,3309,1089.0714133126396,544.0714276177542,3415.8,1089.0714133126396,544.0714276177542,3516.3,1089.0714133126396,544.0714276177542,3619.1,1089.0714133126396,544.0714276177542,3720,1089.0714133126396,544.0714276177542,3821.7,1089.0714133126396,544.0714276177542,3927.2,1089.0714133126396,544.0714276177542,4031.2,1089.0714133126396,544.0714276177542,4134.6,1089.0714133126396,544.0714276177542,4235.8,1089.0714133126396,544.0714276177542,4343.4,1089.0714133126396,544.0714276177542,4455.1,1089.0714133126396,544.0714276177542,4558.5,1089.0714133126396,544.0714276177542,4658.8,1089.0714133126396,544.0714276177542,4764,1089.0714133126396,544.0714276177542,4867.6,1089.0714133126396,544.0714276177542,4984.8]","[1362,1362,1000,0,362,""oops"",""down"",""right"",""good_move"",3575.8,2212.9,1884.8,1363,328.1,""smooth"",""down"",""down"",""good_move"",6381.6,2805.4,2502.5,3576.3,302.8,""oops"",""down"",""down"",""good_move"",8714.7,2332.8,2062.6,6381.9,270.2,""smooth"",""right"",""right"",""good_move"",14549.8,5834.7,1786.5,12432.7,330.7,""oops"",""right"",""right"",""good_move"",20872.4,6322.3,2605,17961,306.5,""smooth"",""down"",""down"",""good_move""]","",""
"1945","","<div style=""width:500px;"">
  <p>What determined the result of this run?</p>
  </div>","64","html-slider-response","60","641492","0.0-5.0-1.10","106","1","2025-07-16 11:13:23","1f75c3e559b7213887762d5229550c2b","94.3.17.192","Mozilla/5.0 (X11; CrOS x86_64 14541.0.0) AppleWebKit/537.36 (KHTML, like Gecko) Chrome/137.0.0.0 Safari/537.36","WebKit","Chrome","137.0.0.0","ChromeOS","14541.0.0","https://app.prolific.com/","en-GB,en-US;q=0.9,en;q=0.8","5b5f23420085cb0001872849","68764874ac79eee8c1d4cb03","68778949510d44451f44c61b","2","0","5b5f23420085cb0001872849","2","0","2025-07-16T11:24:05.356Z","","","","","","","","","","","AttribQ","","50","","","","","","","","","","","","","","","","","","","","","","","","","","","","",""
"1988","","<div style=""width:500px;"">
  <p>How much control did you have over the ball?</p>
  </div>","72","html-slider-response","61","643481","0.0-5.0-2.10","106","1","2025-07-16 11:13:23","1f75c3e559b7213887762d5229550c2b","94.3.17.192","Mozilla/5.0 (X11; CrOS x86_64 14541.0.0) AppleWebKit/537.36 (KHTML, like Gecko) Chrome/137.0.0.0 Safari/537.36","WebKit","Chrome","137.0.0.0","ChromeOS","14541.0.0","https://app.prolific.com/","en-GB,en-US;q=0.9,en;q=0.8","5b5f23420085cb0001872849","68764874ac79eee8c1d4cb03","68778949510d44451f44c61b","2","0","5b5f23420085cb0001872849","2","0","2025-07-16T11:24:07.345Z","","","","","","","","","","","ControlQ","","50","","","","","","","","","","","","","","","","","","","","","","","","","","","","",""
"4131","","<div style=""width:500px;"">
  <p>How would you describe your current emotional state?</p>
  </div>","70","html-slider-response","62","647614","0.0-5.0-3.10","106","1","2025-07-16 11:13:23","1f75c3e559b7213887762d5229550c2b","94.3.17.192","Mozilla/5.0 (X11; CrOS x86_64 14541.0.0) AppleWebKit/537.36 (KHTML, like Gecko) Chrome/137.0.0.0 Safari/537.36","WebKit","Chrome","137.0.0.0","ChromeOS","14541.0.0","https://app.prolific.com/","en-GB,en-US;q=0.9,en;q=0.8","5b5f23420085cb0001872849","68764874ac79eee8c1d4cb03","68778949510d44451f44c61b","2","0","5b5f23420085cb0001872849","2","0","2025-07-16T11:24:11.478Z","","","","","","","","","","","StressQ","","50","","","","","","","","","","","","","","","","","","","","","","","","","","","","",""
"2016","","<div style=""width:500px;"">
  <p>What best describes how you currently feel?</p>
  </div>","63","html-slider-response","63","649631","0.0-5.0-4.10","106","1","2025-07-16 11:13:23","1f75c3e559b7213887762d5229550c2b","94.3.17.192","Mozilla/5.0 (X11; CrOS x86_64 14541.0.0) AppleWebKit/537.36 (KHTML, like Gecko) Chrome/137.0.0.0 Safari/537.36","WebKit","Chrome","137.0.0.0","ChromeOS","14541.0.0","https://app.prolific.com/","en-GB,en-US;q=0.9,en;q=0.8","5b5f23420085cb0001872849","68764874ac79eee8c1d4cb03","68778949510d44451f44c61b","2","0","5b5f23420085cb0001872849","2","0","2025-07-16T11:24:13.495Z","","","","","","","","","","","MotivationQ","","50","","","","","","","","","","","","","","","","","","","","","","","","","","","","",""
"","","","","ctl-task-cpt","64","684035","0.0-5.0-0.11","106","1","2025-07-16 11:13:23","1f75c3e559b7213887762d5229550c2b","94.3.17.192","Mozilla/5.0 (X11; CrOS x86_64 14541.0.0) AppleWebKit/537.36 (KHTML, like Gecko) Chrome/137.0.0.0 Safari/537.36","WebKit","Chrome","137.0.0.0","ChromeOS","14541.0.0","https://app.prolific.com/","en-GB,en-US;q=0.9,en;q=0.8","5b5f23420085cb0001872849","68764874ac79eee8c1d4cb03","68778949510d44451f44c61b","2","0","5b5f23420085cb0001872849","2","0","2025-07-16T11:24:47.899Z","","","","","","","","","","","","","","win-only","0","g1:NW,g2:SE","0.6","12","0","650952.8","1826.1","6829.3","31391.1","1","4","8","6","2","8","8","12","4","0.09090909090909091","1250.4","3000","1205","[""down"",""right""]","{""num_key_presses"":8,""num_perfect"":5,""num_errors"":0,""num_randdir"":3,""num_randdir_good_moves"":2,""num_whilered"":0,""num_whileblue"":0,""num_blue"":1,""num_good_moves"":7}","[417.8214133126395,417.82142761775424,0.6,417.8214133126395,417.82142761775424,104.6,417.8214133126395,417.82142761775424,205.1,417.8214133126395,417.82142761775424,315.3,417.8214133126395,417.82142761775424,424.1,417.8214133126395,417.82142761775424,528.1,417.8214133126395,417.82142761775424,636.5,761.5714133126395,647.8214276177542,740.9,815.3214133126395,724.0714276177542,843.9,836.5714133126395,760.3214276177542,949,762.8214133126395,740.3214276177542,1053.8,761.5714133126395,739.0714276177542,1160.4,761.5714133126395,739.0714276177542,1265.2,761.5714133126395,739.0714276177542,1365.8,761.5714133126395,739.0714276177542,1471.6,761.5714133126395,739.0714276177542,1571.6,1067.8214133126396,609.0714276177542,1679.4,1067.8214133126396,609.0714276177542,1782.2,1067.8214133126396,609.0714276177542,1889.5,1067.8214133126396,609.0714276177542,1999.9,1067.8214133126396,609.0714276177542,2113.4,1067.8214133126396,609.0714276177542,2217.3,1067.8214133126396,609.0714276177542,2320.4,1067.8214133126396,609.0714276177542,2437.1,1067.8214133126396,609.0714276177542,2540.4,1067.8214133126396,609.0714276177542,2643.4,1067.8214133126396,609.0714276177542,2748.1,1067.8214133126396,609.0714276177542,2855.1,1067.8214133126396,609.0714276177542,2955.7,1067.8214133126396,609.0714276177542,3062.8,1067.8214133126396,609.0714276177542,3167.2,1067.8214133126396,609.0714276177542,3269,1067.8214133126396,609.0714276177542,3375.2,1067.8214133126396,609.0714276177542,3481.7,1067.8214133126396,609.0714276177542,3583,1067.8214133126396,609.0714276177542,3690.9,1067.8214133126396,609.0714276177542,3797.4,1067.8214133126396,609.0714276177542,3904.6,1067.8214133126396,609.0714276177542,4008.7,1067.8214133126396,609.0714276177542,4114.3,1067.8214133126396,609.0714276177542,4216.6,1067.8214133126396,609.0714276177542,4320.8,1067.8214133126396,609.0714276177542,4423.4,1067.8214133126396,609.0714276177542,4531.8,1067.8214133126396,609.0714276177542,4636.9,1067.8214133126396,609.0714276177542,4743.6,1067.8214133126396,609.0714276177542,4844.3,1067.8214133126396,609.0714276177542,4952.7]","[1396.3,1396.3,1000,0,396.3,""smooth"",""down"",""down"",""good_move"",4245.9,2849.1,2502.3,1396.8,346.8,""oops"",""down"",""right"",""good_move"",11097.6,6851.3,2619.7,8138.6,339.4,""oops"",""down"",""right"",""good_move"",13574.7,2476.7,2148.4,11098,328.3,""oops"",""down"",""left"",""bad_move"",16569.2,2994,2636.9,13575.2,357.1,""smooth"",""down"",""down"",""good_move"",18992,2422.4,2127.5,16569.7,294.8,""smooth"",""right"",""right"",""good_move"",21718.6,2726,2445.7,18992.7,280.2,""smooth"",""right"",""right"",""good_move"",24392.1,2673.4,2358.8,21718.9,314.5,""smooth"",""down"",""down"",""good_move""]","",""
"2458","","<div style=""width:500px;"">
  <p>What determined the result of this run?</p>
  </div>","78","html-slider-response","65","686494","0.0-5.0-1.11","106","1","2025-07-16 11:13:23","1f75c3e559b7213887762d5229550c2b","94.3.17.192","Mozilla/5.0 (X11; CrOS x86_64 14541.0.0) AppleWebKit/537.36 (KHTML, like Gecko) Chrome/137.0.0.0 Safari/537.36","WebKit","Chrome","137.0.0.0","ChromeOS","14541.0.0","https://app.prolific.com/","en-GB,en-US;q=0.9,en;q=0.8","5b5f23420085cb0001872849","68764874ac79eee8c1d4cb03","68778949510d44451f44c61b","2","0","5b5f23420085cb0001872849","2","0","2025-07-16T11:24:50.358Z","","","","","","","","","","","AttribQ","","50","","","","","","","","","","","","","","","","","","","","","","","","","","","","",""
"2315","","<div style=""width:500px;"">
  <p>How much control did you have over the ball?</p>
  </div>","75","html-slider-response","66","688811","0.0-5.0-2.11","106","1","2025-07-16 11:13:23","1f75c3e559b7213887762d5229550c2b","94.3.17.192","Mozilla/5.0 (X11; CrOS x86_64 14541.0.0) AppleWebKit/537.36 (KHTML, like Gecko) Chrome/137.0.0.0 Safari/537.36","WebKit","Chrome","137.0.0.0","ChromeOS","14541.0.0","https://app.prolific.com/","en-GB,en-US;q=0.9,en;q=0.8","5b5f23420085cb0001872849","68764874ac79eee8c1d4cb03","68778949510d44451f44c61b","2","0","5b5f23420085cb0001872849","2","0","2025-07-16T11:24:52.675Z","","","","","","","","","","","ControlQ","","50","","","","","","","","","","","","","","","","","","","","","","","","","","","","",""
"2333","","<div style=""width:500px;"">
  <p>How would you describe your current emotional state?</p>
  </div>","66","html-slider-response","67","691145","0.0-5.0-3.11","106","1","2025-07-16 11:13:23","1f75c3e559b7213887762d5229550c2b","94.3.17.192","Mozilla/5.0 (X11; CrOS x86_64 14541.0.0) AppleWebKit/537.36 (KHTML, like Gecko) Chrome/137.0.0.0 Safari/537.36","WebKit","Chrome","137.0.0.0","ChromeOS","14541.0.0","https://app.prolific.com/","en-GB,en-US;q=0.9,en;q=0.8","5b5f23420085cb0001872849","68764874ac79eee8c1d4cb03","68778949510d44451f44c61b","2","0","5b5f23420085cb0001872849","2","0","2025-07-16T11:24:55.009Z","","","","","","","","","","","StressQ","","50","","","","","","","","","","","","","","","","","","","","","","","","","","","","",""
"1888","","<div style=""width:500px;"">
  <p>What best describes how you currently feel?</p>
  </div>","46","html-slider-response","68","693034","0.0-5.0-4.11","106","1","2025-07-16 11:13:23","1f75c3e559b7213887762d5229550c2b","94.3.17.192","Mozilla/5.0 (X11; CrOS x86_64 14541.0.0) AppleWebKit/537.36 (KHTML, like Gecko) Chrome/137.0.0.0 Safari/537.36","WebKit","Chrome","137.0.0.0","ChromeOS","14541.0.0","https://app.prolific.com/","en-GB,en-US;q=0.9,en;q=0.8","5b5f23420085cb0001872849","68764874ac79eee8c1d4cb03","68778949510d44451f44c61b","2","0","5b5f23420085cb0001872849","2","0","2025-07-16T11:24:56.899Z","","","","","","","","","","","MotivationQ","","50","","","","","","","","","","","","","","","","","","","","","","","","","","","","",""
"","","","","ctl-task-cpt","69","718281","0.0-5.0-0.12","106","1","2025-07-16 11:13:23","1f75c3e559b7213887762d5229550c2b","94.3.17.192","Mozilla/5.0 (X11; CrOS x86_64 14541.0.0) AppleWebKit/537.36 (KHTML, like Gecko) Chrome/137.0.0.0 Safari/537.36","WebKit","Chrome","137.0.0.0","ChromeOS","14541.0.0","https://app.prolific.com/","en-GB,en-US;q=0.9,en;q=0.8","5b5f23420085cb0001872849","68764874ac79eee8c1d4cb03","68778949510d44451f44c61b","2","0","5b5f23420085cb0001872849","2","0","2025-07-16T11:25:22.145Z","","","","","","","","","","","","","","win-only","2","g1:SE,g2:NW","0.7","13","0","694356.6","1495.7","6496.5","22230","1","4","4","6","2","4","4","16","12","0.12121212121212122","1063.4","3000","1860","[""left"",""up""]","{""num_key_presses"":6,""num_perfect"":4,""num_errors"":0,""num_randdir"":2,""num_randdir_good_moves"":2,""num_whilered"":0,""num_whileblue"":0,""num_blue"":0,""num_good_moves"":6}","[421.5714133126395,417.82142761775424,0.2,421.5714133126395,417.82142761775424,106.2,421.5714133126395,417.82142761775424,207.5,421.5714133126395,417.82142761775424,308.5,421.5714133126395,417.82142761775424,412.5,217.8214133126395,206.57142761775424,530.2,184.0714133126395,166.57142761775424,633.7,136.5714133126395,97.82142761775425,738.1,82.8214133126395,56.57142761775425,840.8,81.5714133126395,55.32142761775425,941.8,81.5714133126395,55.32142761775425,1048.3,81.5714133126395,55.32142761775425,1155.5,81.5714133126395,55.32142761775425,1260.9,81.5714133126395,55.32142761775425,1368.8,-289.6785866873605,221.57142761775424,1473.8,-343.4285866873605,242.82142761775424,1575.8,-343.4285866873605,242.82142761775424,1676.7,-343.4285866873605,242.82142761775424,1781.9,-343.4285866873605,242.82142761775424,1886.9,-343.4285866873605,242.82142761775424,1987.5,-343.4285866873605,242.82142761775424,2093.8,-343.4285866873605,242.82142761775424,2198,-343.4285866873605,242.82142761775424,2302.3,-343.4285866873605,242.82142761775424,2405.3,-343.4285866873605,242.82142761775424,2512.6,-343.4285866873605,242.82142761775424,2613.4,-343.4285866873605,242.82142761775424,2726.4,-343.4285866873605,242.82142761775424,2832.2,-343.4285866873605,242.82142761775424,2940.5,-343.4285866873605,242.82142761775424,3042.7,-343.4285866873605,242.82142761775424,3148.1,-343.4285866873605,242.82142761775424,3251,-343.4285866873605,242.82142761775424,3360.7,-343.4285866873605,242.82142761775424,3462.8,-343.4285866873605,242.82142761775424,3563,-343.4285866873605,242.82142761775424,3669.5,-343.4285866873605,242.82142761775424,3776,-343.4285866873605,242.82142761775424,3876.4,-343.4285866873605,242.82142761775424,3981.8,-343.4285866873605,242.82142761775424,4092,-343.4285866873605,242.82142761775424,4193.5,-343.4285866873605,242.82142761775424,4300.7,-343.4285866873605,242.82142761775424,4401.3,-343.4285866873605,242.82142761775424,4501.7,-343.4285866873605,242.82142761775424,4605.1,-343.4285866873605,242.82142761775424,4706.7,-343.4285866873605,242.82142761775424,4809.1,-343.4285866873605,242.82142761775424,4910.4]","[1328.5,1328.5,1000,0,328.5,""smooth"",""up"",""up"",""good_move"",4686.4,3357.6,3025.6,1328.9,332,""oops"",""left"",""up"",""good_move"",7471,2784.1,2461.2,4686.9,322.9,""smooth"",""left"",""left"",""good_move"",10396.1,2924.7,2631,7471.5,293.6,""oops"",""up"",""up"",""good_move"",12916.5,2520.1,2224.7,10396.4,295.4,""smooth"",""left"",""left"",""good_move"",15539.3,2622.2,2310.1,12917.2,312,""smooth"",""left"",""left"",""good_move""]","",""
"1866","","<div style=""width:500px;"">
  <p>What determined the result of this run?</p>
  </div>","71","html-slider-response","70","720148","0.0-5.0-1.12","106","1","2025-07-16 11:13:23","1f75c3e559b7213887762d5229550c2b","94.3.17.192","Mozilla/5.0 (X11; CrOS x86_64 14541.0.0) AppleWebKit/537.36 (KHTML, like Gecko) Chrome/137.0.0.0 Safari/537.36","WebKit","Chrome","137.0.0.0","ChromeOS","14541.0.0","https://app.prolific.com/","en-GB,en-US;q=0.9,en;q=0.8","5b5f23420085cb0001872849","68764874ac79eee8c1d4cb03","68778949510d44451f44c61b","2","0","5b5f23420085cb0001872849","2","0","2025-07-16T11:25:24.012Z","","","","","","","","","","","AttribQ","","50","","","","","","","","","","","","","","","","","","","","","","","","","","","","",""
"2215","","<div style=""width:500px;"">
  <p>How much control did you have over the ball?</p>
  </div>","76","html-slider-response","71","722365","0.0-5.0-2.12","106","1","2025-07-16 11:13:23","1f75c3e559b7213887762d5229550c2b","94.3.17.192","Mozilla/5.0 (X11; CrOS x86_64 14541.0.0) AppleWebKit/537.36 (KHTML, like Gecko) Chrome/137.0.0.0 Safari/537.36","WebKit","Chrome","137.0.0.0","ChromeOS","14541.0.0","https://app.prolific.com/","en-GB,en-US;q=0.9,en;q=0.8","5b5f23420085cb0001872849","68764874ac79eee8c1d4cb03","68778949510d44451f44c61b","2","0","5b5f23420085cb0001872849","2","0","2025-07-16T11:25:26.229Z","","","","","","","","","","","ControlQ","","50","","","","","","","","","","","","","","","","","","","","","","","","","","","","",""
"2877","","<div style=""width:500px;"">
  <p>How would you describe your current emotional state?</p>
  </div>","39","html-slider-response","72","725244","0.0-5.0-3.12","106","1","2025-07-16 11:13:23","1f75c3e559b7213887762d5229550c2b","94.3.17.192","Mozilla/5.0 (X11; CrOS x86_64 14541.0.0) AppleWebKit/537.36 (KHTML, like Gecko) Chrome/137.0.0.0 Safari/537.36","WebKit","Chrome","137.0.0.0","ChromeOS","14541.0.0","https://app.prolific.com/","en-GB,en-US;q=0.9,en;q=0.8","5b5f23420085cb0001872849","68764874ac79eee8c1d4cb03","68778949510d44451f44c61b","2","0","5b5f23420085cb0001872849","2","0","2025-07-16T11:25:29.108Z","","","","","","","","","","","StressQ","","50","","","","","","","","","","","","","","","","","","","","","","","","","","","","",""
"1815","","<div style=""width:500px;"">
  <p>What best describes how you currently feel?</p>
  </div>","65","html-slider-response","73","727061","0.0-5.0-4.12","106","1","2025-07-16 11:13:23","1f75c3e559b7213887762d5229550c2b","94.3.17.192","Mozilla/5.0 (X11; CrOS x86_64 14541.0.0) AppleWebKit/537.36 (KHTML, like Gecko) Chrome/137.0.0.0 Safari/537.36","WebKit","Chrome","137.0.0.0","ChromeOS","14541.0.0","https://app.prolific.com/","en-GB,en-US;q=0.9,en;q=0.8","5b5f23420085cb0001872849","68764874ac79eee8c1d4cb03","68778949510d44451f44c61b","2","0","5b5f23420085cb0001872849","2","0","2025-07-16T11:25:30.925Z","","","","","","","","","","","MotivationQ","","50","","","","","","","","","","","","","","","","","","","","","","","","","","","","",""
