"rt","response_timestamp","stimulus","response","trial_type","trial_index","time_elapsed","internal_node_id","run_id","condition","recorded_at","source_code_version","ip","user_agent","device","browser","browser_version","platform","platform_version","referer","accept_language","PROLIFIC_PID","STUDY_ID","SESSION_ID","WEEK","BATCH","prolific_id","week","batch","realtime","success","responses","item_order","radio_event_ids","radio_event_times","key_event_times","mouse_event_times","straightlining","zigzagging","honeypot","eventType","view_history","slider_start","which_type","canvas_config","goals_layout","control_level","trial_number","tutorial_trial_number","trial_start_time","phase1_start_time","phase2_start_time","phase3_start_time","goal_1_value","goal_1_distance","goal_2_value","goal_2_distance","goal_selected","outcome","outcome_total","participant_final_score","participant_initial_score","participant_final_score_prop","goal_choice_rt","allocated_time","allocated_time_remaining","goal_direction","counts","mouse_movements","key_presses","question_order","question_id"
"22840","1753254487691","<p style='font-size:40px;line-height:1.25'><strong>Welcome to the experiment!</strong></p><p style='font-size:1.1em;line-height:1.25'>Thank you for participanting in our experiment again! You will be asked to play the Dysfunctional Ball Game again. We will briefly recap the rules before we start.</p><p style='font-size:1.1em;line-height:1.25'>Press <strong>Next</strong> to continue.</p>","0","custom-html-button-response","0","22843","0.0-0.0","169","1","2025-07-23 07:07:42","1f75c3e559b7213887762d5229550c2b","41.150.227.71","Mozilla/5.0 (Windows NT 10.0; Win64; x64) AppleWebKit/537.36 (KHTML, like Gecko) Chrome/138.0.0.0 Safari/537.36","WebKit","Chrome","138.0.0.0","Windows","10.0","https://app.prolific.com/","en-ZA,en-GB;q=0.9,en-US;q=0.8,en;q=0.7","5a9aa66a35237b000112937b","683db9eb0562dbf637994deb","68808a251d842e76fb22ebae","2","1","5a9aa66a35237b000112937b","2","1","2025-07-23T07:08:07.693Z","","","","","","","","","","","","","","","","","","","","","","","","","","","","","","","","","","","","","","","","","",""
"14380","","","","fullscreen","1","38243","0.0-1.0","169","1","2025-07-23 07:07:42","1f75c3e559b7213887762d5229550c2b","41.150.227.71","Mozilla/5.0 (Windows NT 10.0; Win64; x64) AppleWebKit/537.36 (KHTML, like Gecko) Chrome/138.0.0.0 Safari/537.36","WebKit","Chrome","138.0.0.0","Windows","10.0","https://app.prolific.com/","en-ZA,en-GB;q=0.9,en-US;q=0.8,en;q=0.7","5a9aa66a35237b000112937b","683db9eb0562dbf637994deb","68808a251d842e76fb22ebae","2","1","5a9aa66a35237b000112937b","2","1","","true","","","","","","","","","","","","","","","","","","","","","","","","","","","","","","","","","","","","","","","","",""
"4677","1753254507772","<p style='font-size:1.1em;line-height:1.25'>In the following, we will ask you a few questions relating to your feelings in the last 24 hours.<br></p><p style='font-size:1.1em;line-height:1.25'>Press the <strong>Next</strong> button to continue.</p>","0","custom-html-button-response","2","42922","0.0-2.0-0.0","169","1","2025-07-23 07:07:42","1f75c3e559b7213887762d5229550c2b","41.150.227.71","Mozilla/5.0 (Windows NT 10.0; Win64; x64) AppleWebKit/537.36 (KHTML, like Gecko) Chrome/138.0.0.0 Safari/537.36","WebKit","Chrome","138.0.0.0","Windows","10.0","https://app.prolific.com/","en-ZA,en-GB;q=0.9,en-US;q=0.8,en;q=0.7","5a9aa66a35237b000112937b","683db9eb0562dbf637994deb","68808a251d842e76fb22ebae","2","1","5a9aa66a35237b000112937b","2","1","2025-07-23T07:08:27.772Z","","","","","","","","","","","","","","","","","","","","","","","","","","","","","","","","","","","","","","","","","",""
"63676.40000000596","","","","survey-template","3","106604","0.0-2.0-1.0","169","1","2025-07-23 07:07:42","1f75c3e559b7213887762d5229550c2b","41.150.227.71","Mozilla/5.0 (Windows NT 10.0; Win64; x64) AppleWebKit/537.36 (KHTML, like Gecko) Chrome/138.0.0.0 Safari/537.36","WebKit","Chrome","138.0.0.0","Windows","10.0","https://app.prolific.com/","en-ZA,en-GB;q=0.9,en-US;q=0.8,en;q=0.7","5a9aa66a35237b000112937b","683db9eb0562dbf637994deb","68808a251d842e76fb22ebae","2","1","5a9aa66a35237b000112937b","2","1","2025-07-23T07:09:31.454Z","","{""Q01"":""0"",""Q02"":""0"",""Q03"":""0"",""Q04"":""0"",""Q05"":""0"",""Q06"":""0"",""Q07"":""0"",""Q08"":""1"",""Q09"":""0"",""Q10"":""0"",""Q11"":""0"",""Q12"":""0"",""Q13"":""5"",""Q14"":""0"",""Q15"":""0"",""Q16"":""0"",""Q17"":""0"",""Q18"":""0"",""Q19"":""1"",""Q20"":""0"",""Q21"":""0"",""Q22"":""0""}","[0,1,2,3,4,5,6,7,8,9,10,11,12,13,14,15,16,17,18,19,20,21]","[""Q01"",""Q02"",""Q03"",""Q04"",""Q05"",""Q06"",""Q07"",""Q08"",""Q08"",""Q09"",""Q10"",""Q11"",""Q12"",""Q13"",""Q14"",""Q15"",""Q16"",""Q17"",""Q18"",""Q19"",""Q20"",""Q21"",""Q22""]","[5556.5,6948.300000011921,8116.5,9132.40000000596,10564.09999999404,12644.700000017881,16084,19092.59999999404,23628.5,27748.70000001788,29917.20000001788,31685.20000001788,33229.20000001788,36789.20000001788,38973.30000001192,40757.40000000596,42389.40000000596,43741,45805.59999999404,52293.70000001788,56269.90000000596,59550,61013.90000000596]","[]","[1.5999999940395355,5556.5,6948.300000011921,8116.5,9132.40000000596,10564.09999999404,12644.700000017881,16084,19092.59999999404,23628.5,27748.70000001788,29917.20000001788,31685.20000001788,33229.20000001788,36789.20000001788,38973.30000001192,40757.40000000596,42389.40000000596,43741,45805.59999999404,52293.70000001788,56269.90000000596,58197.90000000596,59550,61013.90000000596,63670.5]","0.8636363636363636","0.2857142857142857","0","drsp","","","","","","","","","","","","","","","","","","","","","","","","","","","","","","",""
"14743.59999999404","","","","survey-template","4","121351","0.0-2.0-2.0","169","1","2025-07-23 07:07:42","1f75c3e559b7213887762d5229550c2b","41.150.227.71","Mozilla/5.0 (Windows NT 10.0; Win64; x64) AppleWebKit/537.36 (KHTML, like Gecko) Chrome/138.0.0.0 Safari/537.36","WebKit","Chrome","138.0.0.0","Windows","10.0","https://app.prolific.com/","en-ZA,en-GB;q=0.9,en-US;q=0.8,en;q=0.7","5a9aa66a35237b000112937b","683db9eb0562dbf637994deb","68808a251d842e76fb22ebae","2","1","5a9aa66a35237b000112937b","2","1","2025-07-23T07:09:46.201Z","","{""Q01"":""0"",""Q02"":""2"",""Q03"":""0""}","[0,1,2]","[""Q01"",""Q02"",""Q03""]","[3181.9000000059605,8653.799999982119,13366.299999982119]","[]","[3181.9000000059605,8653.799999982119,13366.299999982119,14742.299999982119]","0.6666666666666666","0","0","stress","","","","","","","","","","","","","","","","","","","","","","","","","","","","","","",""
"8749","","","","instructions","5","130101","0.0-3.0-0.0","169","1","2025-07-23 07:07:42","1f75c3e559b7213887762d5229550c2b","41.150.227.71","Mozilla/5.0 (Windows NT 10.0; Win64; x64) AppleWebKit/537.36 (KHTML, like Gecko) Chrome/138.0.0.0 Safari/537.36","WebKit","Chrome","138.0.0.0","Windows","10.0","https://app.prolific.com/","en-ZA,en-GB;q=0.9,en-US;q=0.8,en;q=0.7","5a9aa66a35237b000112937b","683db9eb0562dbf637994deb","68808a251d842e76fb22ebae","2","1","5a9aa66a35237b000112937b","2","1","","","","","","","","","","","","","[{""page_index"":0,""viewing_time"":8749}]","","","","","","","","","","","","","","","","","","","","","","","","","","","","","",""
"8406","","<p>Before you start with this game please answer the following three questions yourself. </p>
  <p>Through this game, we measure several aspects of your cognitive performance, such as reaction times, multi-tasking capabilities </p>
  <p>and the ability to assess the situation you are in.</p>
  <p></p>
  <p><b>How good do you usually are in such tasks?</b></p>","90","html-slider-response","6","138510","0.0-4.0-0.0","169","1","2025-07-23 07:07:42","1f75c3e559b7213887762d5229550c2b","41.150.227.71","Mozilla/5.0 (Windows NT 10.0; Win64; x64) AppleWebKit/537.36 (KHTML, like Gecko) Chrome/138.0.0.0 Safari/537.36","WebKit","Chrome","138.0.0.0","Windows","10.0","https://app.prolific.com/","en-ZA,en-GB;q=0.9,en-US;q=0.8,en;q=0.7","5a9aa66a35237b000112937b","683db9eb0562dbf637994deb","68808a251d842e76fb22ebae","2","1","5a9aa66a35237b000112937b","2","1","2025-07-23T07:10:03.360Z","","","","","","","","","","","PreSkillQ","","50","","","","","","","","","","","","","","","","","","","","","","","","","","","","",""
"6854","","<div style=""width:500px;"">
  <p>How well do you think you will perform in this task compared to other participants?</p>
  </div>","70","html-slider-response","7","145366","0.0-4.0-1.0","169","1","2025-07-23 07:07:42","1f75c3e559b7213887762d5229550c2b","41.150.227.71","Mozilla/5.0 (Windows NT 10.0; Win64; x64) AppleWebKit/537.36 (KHTML, like Gecko) Chrome/138.0.0.0 Safari/537.36","WebKit","Chrome","138.0.0.0","Windows","10.0","https://app.prolific.com/","en-ZA,en-GB;q=0.9,en-US;q=0.8,en;q=0.7","5a9aa66a35237b000112937b","683db9eb0562dbf637994deb","68808a251d842e76fb22ebae","2","1","5a9aa66a35237b000112937b","2","1","2025-07-23T07:10:10.216Z","","","","","","","","","","","PrePerfQ","","50","","","","","","","","","","","","","","","","","","","","","","","","","","","","",""
"6870","","<div style=""width:500px;"">
  <p>What best describes how you currently feel?</p>
  </div>","100","html-slider-response","8","152238","0.0-4.0-2.0","169","1","2025-07-23 07:07:42","1f75c3e559b7213887762d5229550c2b","41.150.227.71","Mozilla/5.0 (Windows NT 10.0; Win64; x64) AppleWebKit/537.36 (KHTML, like Gecko) Chrome/138.0.0.0 Safari/537.36","WebKit","Chrome","138.0.0.0","Windows","10.0","https://app.prolific.com/","en-ZA,en-GB;q=0.9,en-US;q=0.8,en;q=0.7","5a9aa66a35237b000112937b","683db9eb0562dbf637994deb","68808a251d842e76fb22ebae","2","1","5a9aa66a35237b000112937b","2","1","2025-07-23T07:10:17.088Z","","","","","","","","","","","PreMotivationQ","","50","","","","","","","","","","","","","","","","","","","","","","","","","","","","",""
"","","","","ctl-task-cpt","9","176389","0.0-5.0-0.0","169","1","2025-07-23 07:07:42","1f75c3e559b7213887762d5229550c2b","41.150.227.71","Mozilla/5.0 (Windows NT 10.0; Win64; x64) AppleWebKit/537.36 (KHTML, like Gecko) Chrome/138.0.0.0 Safari/537.36","WebKit","Chrome","138.0.0.0","Windows","10.0","https://app.prolific.com/","en-ZA,en-GB;q=0.9,en-US;q=0.8,en;q=0.7","5a9aa66a35237b000112937b","683db9eb0562dbf637994deb","68808a251d842e76fb22ebae","2","1","5a9aa66a35237b000112937b","2","1","2025-07-23T07:10:41.240Z","","","","","","","","","","","","","","win-only","3","g1:SW,g2:NE","1","1","0","156141.1","1654.7","6658.8","21130.8","1","4","4","6","2","4","4","4","0","0.030303030303030304","1414.2","3000","1230","[""up"",""right""]","{""num_key_presses"":6,""num_perfect"":6,""num_errors"":0,""num_randdir"":0,""num_randdir_good_moves"":0,""num_whilered"":0,""num_whileblue"":0,""num_blue"":0,""num_good_moves"":6}","[410.3214133126395,424.07142761775424,0.2,410.3214133126395,424.07142761775424,103.3,410.3214133126395,424.07142761775424,204.6,410.3214133126395,424.07142761775424,308.6,410.3214133126395,424.07142761775424,410.4,407.8214133126395,439.07142761775424,515.2,396.5714133126395,455.32142761775424,616.8,385.3214133126395,471.57142761775424,720.9,385.3214133126395,471.57142761775424,821.9,656.5714133126395,241.57142761775424,922.1,831.5714133126395,-33.42857238224575,1024,829.0714133126395,-34.67857238224575,1125.4,815.3214133126395,-33.42857238224575,1230.1,771.5714133126395,50.32142761775425,1338.3,774.0714133126395,71.57142761775425,1442.4,774.0714133126395,71.57142761775425,1543.5,774.0714133126395,71.57142761775425,1648,774.0714133126395,71.57142761775425,1749.8,774.0714133126395,71.57142761775425,1852,774.0714133126395,71.57142761775425,1956,774.0714133126395,71.57142761775425,2056.1,774.0714133126395,71.57142761775425,2161.1,774.0714133126395,71.57142761775425,2271.6,774.0714133126395,71.57142761775425,2373.3,774.0714133126395,71.57142761775425,2480,774.0714133126395,71.57142761775425,2586.1,774.0714133126395,71.57142761775425,2691.2,774.0714133126395,71.57142761775425,2796.5,774.0714133126395,71.57142761775425,2903.4,774.0714133126395,71.57142761775425,3007.9,774.0714133126395,71.57142761775425,3109.1,774.0714133126395,71.57142761775425,3210.5,774.0714133126395,71.57142761775425,3312.6,774.0714133126395,71.57142761775425,3418,774.0714133126395,71.57142761775425,3524.7,774.0714133126395,71.57142761775425,3632.6,774.0714133126395,71.57142761775425,3739.4,774.0714133126395,71.57142761775425,3843.1,774.0714133126395,71.57142761775425,3947.9,774.0714133126395,71.57142761775425,4054.4,774.0714133126395,71.57142761775425,4156.1,774.0714133126395,71.57142761775425,4258,774.0714133126395,71.57142761775425,4362.6,774.0714133126395,71.57142761775425,4468.5,774.0714133126395,71.57142761775425,4572.6,774.0714133126395,71.57142761775425,4674.4,774.0714133126395,71.57142761775425,4774.8,774.0714133126395,71.57142761775425,4876.8,774.0714133126395,71.57142761775425,4986.1]","[1458.2,1458.1,1000,0.1,458.1,""smooth"",""up"",""up"",""good_move"",4210.3,2751.4,2334.9,1459,416.4,""smooth"",""up"",""up"",""good_move"",7043.6,2832.9,2466.3,4210.7,366.6,""smooth"",""up"",""up"",""good_move"",9338.9,2295,1882.1,7043.9,412.9,""smooth"",""right"",""right"",""good_move"",11487.1,2147.6,1752,9339.5,395.6,""smooth"",""right"",""right"",""good_move"",14340,2852.5,2484.8,11487.5,367.7,""smooth"",""right"",""right"",""good_move""]","",""
"4768","","<div style=""width:500px;"">
  <p>What determined the result of this run?</p>
  </div>","100","html-slider-response","10","181159","0.0-5.0-1.0","169","1","2025-07-23 07:07:42","1f75c3e559b7213887762d5229550c2b","41.150.227.71","Mozilla/5.0 (Windows NT 10.0; Win64; x64) AppleWebKit/537.36 (KHTML, like Gecko) Chrome/138.0.0.0 Safari/537.36","WebKit","Chrome","138.0.0.0","Windows","10.0","https://app.prolific.com/","en-ZA,en-GB;q=0.9,en-US;q=0.8,en;q=0.7","5a9aa66a35237b000112937b","683db9eb0562dbf637994deb","68808a251d842e76fb22ebae","2","1","5a9aa66a35237b000112937b","2","1","2025-07-23T07:10:46.009Z","","","","","","","","","","","AttribQ","","50","","","","","","","","","","","","","","","","","","","","","","","","","","","","",""
"4623","","<div style=""width:500px;"">
  <p>How much control did you have over the ball?</p>
  </div>","100","html-slider-response","11","185784","0.0-5.0-2.0","169","1","2025-07-23 07:07:42","1f75c3e559b7213887762d5229550c2b","41.150.227.71","Mozilla/5.0 (Windows NT 10.0; Win64; x64) AppleWebKit/537.36 (KHTML, like Gecko) Chrome/138.0.0.0 Safari/537.36","WebKit","Chrome","138.0.0.0","Windows","10.0","https://app.prolific.com/","en-ZA,en-GB;q=0.9,en-US;q=0.8,en;q=0.7","5a9aa66a35237b000112937b","683db9eb0562dbf637994deb","68808a251d842e76fb22ebae","2","1","5a9aa66a35237b000112937b","2","1","2025-07-23T07:10:50.634Z","","","","","","","","","","","ControlQ","","50","","","","","","","","","","","","","","","","","","","","","","","","","","","","",""
"5678","","<div style=""width:500px;"">
  <p>How would you describe your current emotional state?</p>
  </div>","0","html-slider-response","12","191464","0.0-5.0-3.0","169","1","2025-07-23 07:07:42","1f75c3e559b7213887762d5229550c2b","41.150.227.71","Mozilla/5.0 (Windows NT 10.0; Win64; x64) AppleWebKit/537.36 (KHTML, like Gecko) Chrome/138.0.0.0 Safari/537.36","WebKit","Chrome","138.0.0.0","Windows","10.0","https://app.prolific.com/","en-ZA,en-GB;q=0.9,en-US;q=0.8,en;q=0.7","5a9aa66a35237b000112937b","683db9eb0562dbf637994deb","68808a251d842e76fb22ebae","2","1","5a9aa66a35237b000112937b","2","1","2025-07-23T07:10:56.314Z","","","","","","","","","","","StressQ","","50","","","","","","","","","","","","","","","","","","","","","","","","","","","","",""
"5414","","<div style=""width:500px;"">
  <p>What best describes how you currently feel?</p>
  </div>","100","html-slider-response","13","196879","0.0-5.0-4.0","169","1","2025-07-23 07:07:42","1f75c3e559b7213887762d5229550c2b","41.150.227.71","Mozilla/5.0 (Windows NT 10.0; Win64; x64) AppleWebKit/537.36 (KHTML, like Gecko) Chrome/138.0.0.0 Safari/537.36","WebKit","Chrome","138.0.0.0","Windows","10.0","https://app.prolific.com/","en-ZA,en-GB;q=0.9,en-US;q=0.8,en;q=0.7","5a9aa66a35237b000112937b","683db9eb0562dbf637994deb","68808a251d842e76fb22ebae","2","1","5a9aa66a35237b000112937b","2","1","2025-07-23T07:11:01.729Z","","","","","","","","","","","MotivationQ","","50","","","","","","","","","","","","","","","","","","","","","","","","","","","","",""
"","","","","ctl-task-cpt","14","239735","0.0-5.0-0.1","169","1","2025-07-23 07:07:42","1f75c3e559b7213887762d5229550c2b","41.150.227.71","Mozilla/5.0 (Windows NT 10.0; Win64; x64) AppleWebKit/537.36 (KHTML, like Gecko) Chrome/138.0.0.0 Safari/537.36","WebKit","Chrome","138.0.0.0","Windows","10.0","https://app.prolific.com/","en-ZA,en-GB;q=0.9,en-US;q=0.8,en;q=0.7","5a9aa66a35237b000112937b","683db9eb0562dbf637994deb","68808a251d842e76fb22ebae","2","1","5a9aa66a35237b000112937b","2","1","2025-07-23T07:11:44.585Z","","","","","","","","","","","","","","win-only","1","g1:NE,g2:SW","0.9","2","0","200780.4","1167.5","6175.3","39838.3","1","4","8","6","2","8","7","11","4","0.08333333333333333","1290.5","3000","865","[""down"",""left""]","{""num_key_presses"":7,""num_perfect"":5,""num_errors"":1,""num_randdir"":1,""num_randdir_good_moves"":1,""num_whilered"":0,""num_whileblue"":0,""num_blue"":4,""num_good_moves"":6}","[412.8214133126395,407.82142761775424,0.3,412.8214133126395,407.82142761775424,105.1,412.8214133126395,407.82142761775424,205.1,412.8214133126395,407.82142761775424,308.3,412.8214133126395,407.82142761775424,412,412.8214133126395,407.82142761775424,522.7,411.5714133126395,427.82142761775424,626.2,400.3214133126395,479.07142761775424,734.4,311.5714133126395,550.3214276177542,842.2,219.0714133126395,736.5714276177542,943.6,110.3214133126395,812.8214276177542,1047.7,110.3214133126395,812.8214276177542,1148.4,109.0714133126395,771.5714276177542,1250.4,109.0714133126395,771.5714276177542,1355.3,109.0714133126395,771.5714276177542,1461.2,109.0714133126395,771.5714276177542,1562.7,171.5714133126395,770.3214276177542,1663.7,404.0714133126395,781.5714276177542,1767.8,789.0714133126395,812.8214276177542,1872.6,801.5714133126395,811.5714276177542,1973.6,800.3214133126395,865.3214276177542,2078.3,800.3214133126395,865.3214276177542,2180.4,800.3214133126395,865.3214276177542,2288.3,800.3214133126395,865.3214276177542,2388.8,800.3214133126395,865.3214276177542,2501.4,800.3214133126395,865.3214276177542,2602.3,800.3214133126395,865.3214276177542,2705.2,800.3214133126395,865.3214276177542,2806,800.3214133126395,865.3214276177542,2914.8,800.3214133126395,865.3214276177542,3016.2,800.3214133126395,865.3214276177542,3118.5,800.3214133126395,865.3214276177542,3222.3,800.3214133126395,865.3214276177542,3323,800.3214133126395,865.3214276177542,3423,800.3214133126395,865.3214276177542,3524.3,800.3214133126395,865.3214276177542,3627.1,800.3214133126395,865.3214276177542,3733.5,800.3214133126395,865.3214276177542,3834.9,800.3214133126395,865.3214276177542,3938.3,800.3214133126395,865.3214276177542,4043.4,800.3214133126395,865.3214276177542,4150.2,800.3214133126395,865.3214276177542,4256,800.3214133126395,865.3214276177542,4359.2,800.3214133126395,865.3214276177542,4459.6,800.3214133126395,865.3214276177542,4561.3,800.3214133126395,865.3214276177542,4666.9,800.3214133126395,865.3214276177542,4772.1,800.3214133126395,865.3214276177542,4873.6,800.3214133126395,865.3214276177542,4974.6]","[440.3,440.3,1000,0,-559.7,""error"",""-"",""-"",""no_move"",4122.8,3682.1,2214,1445.3,463.5,""smooth"",""left"",""left"",""good_move"",10409.2,6285.7,2643.8,7425.1,340.3,""smooth"",""left"",""left"",""good_move"",17619.1,7209.5,2764.6,14362,492.5,""oops"",""left"",""down"",""good_move"",20285.1,2665.7,2083.4,17619.5,582.3,""smooth"",""left"",""left"",""good_move"",27201.1,6915.6,2021.9,24705.3,473.9,""smooth"",""down"",""down"",""good_move"",33554,6352.6,2604.2,30518.1,431.8,""smooth"",""down"",""down"",""good_move""]","",""
"4479","","<div style=""width:500px;"">
  <p>What determined the result of this run?</p>
  </div>","100","html-slider-response","15","244217","0.0-5.0-1.1","169","1","2025-07-23 07:07:42","1f75c3e559b7213887762d5229550c2b","41.150.227.71","Mozilla/5.0 (Windows NT 10.0; Win64; x64) AppleWebKit/537.36 (KHTML, like Gecko) Chrome/138.0.0.0 Safari/537.36","WebKit","Chrome","138.0.0.0","Windows","10.0","https://app.prolific.com/","en-ZA,en-GB;q=0.9,en-US;q=0.8,en;q=0.7","5a9aa66a35237b000112937b","683db9eb0562dbf637994deb","68808a251d842e76fb22ebae","2","1","5a9aa66a35237b000112937b","2","1","2025-07-23T07:11:49.067Z","","","","","","","","","","","AttribQ","","50","","","","","","","","","","","","","","","","","","","","","","","","","","","","",""
"9191","","<div style=""width:500px;"">
  <p>How much control did you have over the ball?</p>
  </div>","99","html-slider-response","16","253409","0.0-5.0-2.1","169","1","2025-07-23 07:07:42","1f75c3e559b7213887762d5229550c2b","41.150.227.71","Mozilla/5.0 (Windows NT 10.0; Win64; x64) AppleWebKit/537.36 (KHTML, like Gecko) Chrome/138.0.0.0 Safari/537.36","WebKit","Chrome","138.0.0.0","Windows","10.0","https://app.prolific.com/","en-ZA,en-GB;q=0.9,en-US;q=0.8,en;q=0.7","5a9aa66a35237b000112937b","683db9eb0562dbf637994deb","68808a251d842e76fb22ebae","2","1","5a9aa66a35237b000112937b","2","1","2025-07-23T07:11:58.260Z","","","","","","","","","","","ControlQ","","50","","","","","","","","","","","","","","","","","","","","","","","","","","","","",""
"3238","","<div style=""width:500px;"">
  <p>How would you describe your current emotional state?</p>
  </div>","0","html-slider-response","17","256649","0.0-5.0-3.1","169","1","2025-07-23 07:07:42","1f75c3e559b7213887762d5229550c2b","41.150.227.71","Mozilla/5.0 (Windows NT 10.0; Win64; x64) AppleWebKit/537.36 (KHTML, like Gecko) Chrome/138.0.0.0 Safari/537.36","WebKit","Chrome","138.0.0.0","Windows","10.0","https://app.prolific.com/","en-ZA,en-GB;q=0.9,en-US;q=0.8,en;q=0.7","5a9aa66a35237b000112937b","683db9eb0562dbf637994deb","68808a251d842e76fb22ebae","2","1","5a9aa66a35237b000112937b","2","1","2025-07-23T07:12:01.499Z","","","","","","","","","","","StressQ","","50","","","","","","","","","","","","","","","","","","","","","","","","","","","","",""
"3136","","<div style=""width:500px;"">
  <p>What best describes how you currently feel?</p>
  </div>","100","html-slider-response","18","259786","0.0-5.0-4.1","169","1","2025-07-23 07:07:42","1f75c3e559b7213887762d5229550c2b","41.150.227.71","Mozilla/5.0 (Windows NT 10.0; Win64; x64) AppleWebKit/537.36 (KHTML, like Gecko) Chrome/138.0.0.0 Safari/537.36","WebKit","Chrome","138.0.0.0","Windows","10.0","https://app.prolific.com/","en-ZA,en-GB;q=0.9,en-US;q=0.8,en;q=0.7","5a9aa66a35237b000112937b","683db9eb0562dbf637994deb","68808a251d842e76fb22ebae","2","1","5a9aa66a35237b000112937b","2","1","2025-07-23T07:12:04.636Z","","","","","","","","","","","MotivationQ","","50","","","","","","","","","","","","","","","","","","","","","","","","","","","","",""
"","","","","ctl-task-cpt","19","290372","0.0-5.0-0.2","169","1","2025-07-23 07:07:42","1f75c3e559b7213887762d5229550c2b","41.150.227.71","Mozilla/5.0 (Windows NT 10.0; Win64; x64) AppleWebKit/537.36 (KHTML, like Gecko) Chrome/138.0.0.0 Safari/537.36","WebKit","Chrome","138.0.0.0","Windows","10.0","https://app.prolific.com/","en-ZA,en-GB;q=0.9,en-US;q=0.8,en;q=0.7","5a9aa66a35237b000112937b","683db9eb0562dbf637994deb","68808a251d842e76fb22ebae","2","1","5a9aa66a35237b000112937b","2","1","2025-07-23T07:12:35.222Z","","","","","","","","","","","","","","win-only","1","g1:NE,g2:SW","0.8","3","0","263689.2","2886.4","7894.3","27568.4","1","4","8","6","2","8","8","19","11","0.14393939393939395","1070","3000","1080","[""down"",""left""]","{""num_key_presses"":6,""num_perfect"":6,""num_errors"":0,""num_randdir"":0,""num_randdir_good_moves"":0,""num_whilered"":0,""num_whileblue"":0,""num_blue"":1,""num_good_moves"":6}","[420.3214133126395,416.57142761775424,0.2,420.3214133126395,416.57142761775424,100.4,420.3214133126395,416.57142761775424,204.5,420.3214133126395,416.57142761775424,305.2,420.3214133126395,416.57142761775424,412.7,414.0714133126395,420.32142761775424,517.8,187.8214133126395,666.5714276177542,619.2,174.0714133126395,760.3214276177542,719.4,174.0714133126395,762.8214276177542,819.9,154.0714133126395,760.3214276177542,925.3,122.8214133126395,755.3214276177542,1027.2,117.8214133126395,751.5714276177542,1131.8,117.8214133126395,750.3214276177542,1233,126.5714133126395,746.5714276177542,1334.9,310.3214133126395,739.0714276177542,1435.4,1136.5714133126396,739.0714276177542,1536.8,1212.8214133126396,647.8214276177542,1644.6,1141.5714133126396,681.5714276177542,1745.2,1141.5714133126396,681.5714276177542,1845.9,1141.5714133126396,681.5714276177542,1952.2,1141.5714133126396,681.5714276177542,2059.6,1141.5714133126396,681.5714276177542,2165.6,1141.5714133126396,681.5714276177542,2269,1141.5714133126396,681.5714276177542,2369,1141.5714133126396,681.5714276177542,2469.6,1141.5714133126396,681.5714276177542,2570.3,1141.5714133126396,681.5714276177542,2674.5,1141.5714133126396,681.5714276177542,2781.3,1141.5714133126396,681.5714276177542,2881.3,1141.5714133126396,681.5714276177542,2985.4,1141.5714133126396,681.5714276177542,3087,1141.5714133126396,681.5714276177542,3188.9,1141.5714133126396,681.5714276177542,3296.2,1141.5714133126396,681.5714276177542,3403,1141.5714133126396,681.5714276177542,3510,1141.5714133126396,681.5714276177542,3610.2,1141.5714133126396,681.5714276177542,3714.1,1141.5714133126396,681.5714276177542,3819.6,1141.5714133126396,681.5714276177542,3927.5,1141.5714133126396,681.5714276177542,4028.7,1141.5714133126396,681.5714276177542,4128.7,1141.5714133126396,681.5714276177542,4229.8,1141.5714133126396,681.5714276177542,4329.9,1141.5714133126396,681.5714276177542,4429.9,1141.5714133126396,681.5714276177542,4536.5,1141.5714133126396,681.5714276177542,4642.6,1141.5714133126396,681.5714276177542,4747,1141.5714133126396,681.5714276177542,4852.1,1141.5714133126396,681.5714276177542,4954.5]","[5476.4,5476.4,2990.9,2010.5,475,""smooth"",""left"",""left"",""good_move"",8219.3,2742.3,2256.9,5477,485.4,""smooth"",""left"",""left"",""good_move"",10802.2,2582.6,2144.3,8219.6,438.3,""smooth"",""left"",""left"",""good_move"",13496.9,2694.3,2246.2,10802.6,448.1,""smooth"",""down"",""down"",""good_move"",16493,2995.5,2635.7,13497.5,359.8,""smooth"",""down"",""down"",""good_move"",19562.1,3068.7,2721.4,16493.4,347.3,""smooth"",""down"",""down"",""good_move""]","",""
"3438","","<div style=""width:500px;"">
  <p>What determined the result of this run?</p>
  </div>","100","html-slider-response","20","293812","0.0-5.0-1.2","169","1","2025-07-23 07:07:42","1f75c3e559b7213887762d5229550c2b","41.150.227.71","Mozilla/5.0 (Windows NT 10.0; Win64; x64) AppleWebKit/537.36 (KHTML, like Gecko) Chrome/138.0.0.0 Safari/537.36","WebKit","Chrome","138.0.0.0","Windows","10.0","https://app.prolific.com/","en-ZA,en-GB;q=0.9,en-US;q=0.8,en;q=0.7","5a9aa66a35237b000112937b","683db9eb0562dbf637994deb","68808a251d842e76fb22ebae","2","1","5a9aa66a35237b000112937b","2","1","2025-07-23T07:12:38.662Z","","","","","","","","","","","AttribQ","","50","","","","","","","","","","","","","","","","","","","","","","","","","","","","",""
"2757","","<div style=""width:500px;"">
  <p>How much control did you have over the ball?</p>
  </div>","100","html-slider-response","21","296571","0.0-5.0-2.2","169","1","2025-07-23 07:07:42","1f75c3e559b7213887762d5229550c2b","41.150.227.71","Mozilla/5.0 (Windows NT 10.0; Win64; x64) AppleWebKit/537.36 (KHTML, like Gecko) Chrome/138.0.0.0 Safari/537.36","WebKit","Chrome","138.0.0.0","Windows","10.0","https://app.prolific.com/","en-ZA,en-GB;q=0.9,en-US;q=0.8,en;q=0.7","5a9aa66a35237b000112937b","683db9eb0562dbf637994deb","68808a251d842e76fb22ebae","2","1","5a9aa66a35237b000112937b","2","1","2025-07-23T07:12:41.421Z","","","","","","","","","","","ControlQ","","50","","","","","","","","","","","","","","","","","","","","","","","","","","","","",""
"3230","","<div style=""width:500px;"">
  <p>How would you describe your current emotional state?</p>
  </div>","0","html-slider-response","22","299804","0.0-5.0-3.2","169","1","2025-07-23 07:07:42","1f75c3e559b7213887762d5229550c2b","41.150.227.71","Mozilla/5.0 (Windows NT 10.0; Win64; x64) AppleWebKit/537.36 (KHTML, like Gecko) Chrome/138.0.0.0 Safari/537.36","WebKit","Chrome","138.0.0.0","Windows","10.0","https://app.prolific.com/","en-ZA,en-GB;q=0.9,en-US;q=0.8,en;q=0.7","5a9aa66a35237b000112937b","683db9eb0562dbf637994deb","68808a251d842e76fb22ebae","2","1","5a9aa66a35237b000112937b","2","1","2025-07-23T07:12:44.654Z","","","","","","","","","","","StressQ","","50","","","","","","","","","","","","","","","","","","","","","","","","","","","","",""
"2629","","<div style=""width:500px;"">
  <p>What best describes how you currently feel?</p>
  </div>","100","html-slider-response","23","302435","0.0-5.0-4.2","169","1","2025-07-23 07:07:42","1f75c3e559b7213887762d5229550c2b","41.150.227.71","Mozilla/5.0 (Windows NT 10.0; Win64; x64) AppleWebKit/537.36 (KHTML, like Gecko) Chrome/138.0.0.0 Safari/537.36","WebKit","Chrome","138.0.0.0","Windows","10.0","https://app.prolific.com/","en-ZA,en-GB;q=0.9,en-US;q=0.8,en;q=0.7","5a9aa66a35237b000112937b","683db9eb0562dbf637994deb","68808a251d842e76fb22ebae","2","1","5a9aa66a35237b000112937b","2","1","2025-07-23T07:12:47.285Z","","","","","","","","","","","MotivationQ","","50","","","","","","","","","","","","","","","","","","","","","","","","","","","","",""
"","","","","ctl-task-cpt","24","336310","0.0-5.0-0.3","169","1","2025-07-23 07:07:42","1f75c3e559b7213887762d5229550c2b","41.150.227.71","Mozilla/5.0 (Windows NT 10.0; Win64; x64) AppleWebKit/537.36 (KHTML, like Gecko) Chrome/138.0.0.0 Safari/537.36","WebKit","Chrome","138.0.0.0","Windows","10.0","https://app.prolific.com/","en-ZA,en-GB;q=0.9,en-US;q=0.8,en;q=0.7","5a9aa66a35237b000112937b","683db9eb0562dbf637994deb","68808a251d842e76fb22ebae","2","1","5a9aa66a35237b000112937b","2","1","2025-07-23T07:13:21.160Z","","","","","","","","","","","","","","win-only","1","g1:NE,g2:SW","0.7","4","0","306337.6","1088.3","6091.3","30862.6","1","4","4","6","2","4","4","23","19","0.17424242424242425","1085.8","3000","1050","[""down"",""left""]","{""num_key_presses"":6,""num_perfect"":4,""num_errors"":0,""num_randdir"":2,""num_randdir_good_moves"":2,""num_whilered"":0,""num_whileblue"":0,""num_blue"":2,""num_good_moves"":6}","[426.5714133126395,419.07142761775424,0.3,426.5714133126395,419.07142761775424,103.8,426.5714133126395,419.07142761775424,205.1,457.8214133126395,402.82142761775424,307.5,702.8214133126395,222.82142761775424,407.5,476.5714133126395,296.57142761775424,508.3,71.5714133126395,562.8214276177542,608.8,36.57141331263951,646.5714276177542,719.4,17.821413312639507,692.8214276177542,822.7,47.82141331263951,731.5714276177542,924.3,82.8214133126395,781.5714276177542,1030,82.8214133126395,781.5714276177542,1133.7,81.5714133126395,780.3214276177542,1236.1,89.0714133126395,771.5714276177542,1337.3,611.5714133126395,829.0714276177542,1445.4,1375.3214133126396,960.3214276177542,1548.1,1336.5714133126396,935.3214276177542,1655.5,1214.0714133126396,939.0714276177542,1756.1,1214.0714133126396,939.0714276177542,1857.6,1214.0714133126396,939.0714276177542,1963.7,1214.0714133126396,939.0714276177542,2067.2,1214.0714133126396,939.0714276177542,2170.4,1214.0714133126396,939.0714276177542,2277.6,1214.0714133126396,939.0714276177542,2377.9,1214.0714133126396,939.0714276177542,2478.7,1214.0714133126396,939.0714276177542,2583.1,1214.0714133126396,939.0714276177542,2688,1214.0714133126396,939.0714276177542,2788.4,1214.0714133126396,939.0714276177542,2889.6,1214.0714133126396,939.0714276177542,2998.3,1214.0714133126396,939.0714276177542,3106,1214.0714133126396,939.0714276177542,3208.5,1214.0714133126396,939.0714276177542,3312.6,1214.0714133126396,939.0714276177542,3414.6,1214.0714133126396,939.0714276177542,3519.9,1214.0714133126396,939.0714276177542,3623.2,1214.0714133126396,939.0714276177542,3732.3,1214.0714133126396,939.0714276177542,3833.7,1214.0714133126396,939.0714276177542,3934,1214.0714133126396,939.0714276177542,4043.5,1214.0714133126396,939.0714276177542,4145.8,1214.0714133126396,939.0714276177542,4247.4,1214.0714133126396,939.0714276177542,4347.7,1214.0714133126396,939.0714276177542,4449.4,1214.0714133126396,939.0714276177542,4551.8,1214.0714133126396,939.0714276177542,4659.9,1214.0714133126396,939.0714276177542,4760.5,1214.0714133126396,939.0714276177542,4861.2,1214.0714133126396,939.0714276177542,4962]","[1464.7,1464.7,1000,0,464.7,""smooth"",""left"",""left"",""good_move"",4465.2,2999.8,2549.1,1465.4,450.7,""smooth"",""left"",""left"",""good_move"",11447.6,6982.1,2596.4,8379.3,471.9,""oops"",""left"",""left"",""good_move"",17165.3,5717.3,1843.4,14893.9,428,""smooth"",""down"",""down"",""good_move"",21385,4219.2,3797,17165.8,422.2,""oops"",""down"",""down"",""good_move"",24651.5,3266,2919.2,21385.5,346.8,""smooth"",""down"",""down"",""good_move""]","",""
"3509","","<div style=""width:500px;"">
  <p>What determined the result of this run?</p>
  </div>","100","html-slider-response","25","339821","0.0-5.0-1.3","169","1","2025-07-23 07:07:42","1f75c3e559b7213887762d5229550c2b","41.150.227.71","Mozilla/5.0 (Windows NT 10.0; Win64; x64) AppleWebKit/537.36 (KHTML, like Gecko) Chrome/138.0.0.0 Safari/537.36","WebKit","Chrome","138.0.0.0","Windows","10.0","https://app.prolific.com/","en-ZA,en-GB;q=0.9,en-US;q=0.8,en;q=0.7","5a9aa66a35237b000112937b","683db9eb0562dbf637994deb","68808a251d842e76fb22ebae","2","1","5a9aa66a35237b000112937b","2","1","2025-07-23T07:13:24.671Z","","","","","","","","","","","AttribQ","","50","","","","","","","","","","","","","","","","","","","","","","","","","","","","",""
"3517","","<div style=""width:500px;"">
  <p>How much control did you have over the ball?</p>
  </div>","100","html-slider-response","26","343340","0.0-5.0-2.3","169","1","2025-07-23 07:07:42","1f75c3e559b7213887762d5229550c2b","41.150.227.71","Mozilla/5.0 (Windows NT 10.0; Win64; x64) AppleWebKit/537.36 (KHTML, like Gecko) Chrome/138.0.0.0 Safari/537.36","WebKit","Chrome","138.0.0.0","Windows","10.0","https://app.prolific.com/","en-ZA,en-GB;q=0.9,en-US;q=0.8,en;q=0.7","5a9aa66a35237b000112937b","683db9eb0562dbf637994deb","68808a251d842e76fb22ebae","2","1","5a9aa66a35237b000112937b","2","1","2025-07-23T07:13:28.191Z","","","","","","","","","","","ControlQ","","50","","","","","","","","","","","","","","","","","","","","","","","","","","","","",""
"6775","","<div style=""width:500px;"">
  <p>How would you describe your current emotional state?</p>
  </div>","0","html-slider-response","27","350118","0.0-5.0-3.3","169","1","2025-07-23 07:07:42","1f75c3e559b7213887762d5229550c2b","41.150.227.71","Mozilla/5.0 (Windows NT 10.0; Win64; x64) AppleWebKit/537.36 (KHTML, like Gecko) Chrome/138.0.0.0 Safari/537.36","WebKit","Chrome","138.0.0.0","Windows","10.0","https://app.prolific.com/","en-ZA,en-GB;q=0.9,en-US;q=0.8,en;q=0.7","5a9aa66a35237b000112937b","683db9eb0562dbf637994deb","68808a251d842e76fb22ebae","2","1","5a9aa66a35237b000112937b","2","1","2025-07-23T07:13:34.968Z","","","","","","","","","","","StressQ","","50","","","","","","","","","","","","","","","","","","","","","","","","","","","","",""
"7462","","<div style=""width:500px;"">
  <p>What best describes how you currently feel?</p>
  </div>","100","html-slider-response","28","357581","0.0-5.0-4.3","169","1","2025-07-23 07:07:42","1f75c3e559b7213887762d5229550c2b","41.150.227.71","Mozilla/5.0 (Windows NT 10.0; Win64; x64) AppleWebKit/537.36 (KHTML, like Gecko) Chrome/138.0.0.0 Safari/537.36","WebKit","Chrome","138.0.0.0","Windows","10.0","https://app.prolific.com/","en-ZA,en-GB;q=0.9,en-US;q=0.8,en;q=0.7","5a9aa66a35237b000112937b","683db9eb0562dbf637994deb","68808a251d842e76fb22ebae","2","1","5a9aa66a35237b000112937b","2","1","2025-07-23T07:13:42.431Z","","","","","","","","","","","MotivationQ","","50","","","","","","","","","","","","","","","","","","","","","","","","","","","","",""
"","","","","ctl-task-cpt","29","405777","0.0-5.0-0.4","169","1","2025-07-23 07:07:42","1f75c3e559b7213887762d5229550c2b","41.150.227.71","Mozilla/5.0 (Windows NT 10.0; Win64; x64) AppleWebKit/537.36 (KHTML, like Gecko) Chrome/138.0.0.0 Safari/537.36","WebKit","Chrome","138.0.0.0","Windows","10.0","https://app.prolific.com/","en-ZA,en-GB;q=0.9,en-US;q=0.8,en;q=0.7","5a9aa66a35237b000112937b","683db9eb0562dbf637994deb","68808a251d842e76fb22ebae","2","1","5a9aa66a35237b000112937b","2","1","2025-07-23T07:14:30.627Z","","","","","","","","","","","","","","win-only","3","g1:SW,g2:NE","0.6","5","0","361484.2","1333.9","6338.6","45187","1","4","4","6","2","-4","-5","18","23","0.13636363636363635","1311.8","3000","-2195","[""up"",""right""]","{""num_key_presses"":11,""num_perfect"":6,""num_errors"":1,""num_randdir"":4,""num_randdir_good_moves"":2,""num_whilered"":0,""num_whileblue"":1,""num_blue"":3,""num_good_moves"":8}","[416.5714133126395,416.57142761775424,0.5,416.5714133126395,416.57142761775424,108,416.5714133126395,416.57142761775424,212.6,416.5714133126395,416.57142761775424,319.4,417.8214133126395,416.57142761775424,421.3,697.8214133126395,371.57142761775424,522.3,811.5714133126395,271.57142761775424,628.7,760.3214133126395,192.82142761775424,735.7,746.5714133126395,171.57142761775424,840.6,747.8214133126395,139.07142761775424,947,747.8214133126395,120.32142761775425,1047,749.0714133126395,119.07142761775425,1148.1,749.0714133126395,119.07142761775425,1249.5,749.0714133126395,119.07142761775425,1356,749.0714133126395,119.07142761775425,1459.7,749.0714133126395,119.07142761775425,1562.8,749.0714133126395,119.07142761775425,1663.6,765.3214133126395,141.57142761775424,1765.4,1057.8214133126396,281.57142761775424,1869.4,1375.3214133126396,654.0714276177542,1976.7,1375.3214133126396,701.5714276177542,2083.3,1375.3214133126396,815.3214276177542,2189,1375.3214133126396,926.5714276177542,2291.8,1375.3214133126396,926.5714276177542,2400.6,1375.3214133126396,926.5714276177542,2507.6,1375.3214133126396,926.5714276177542,2611.7,1375.3214133126396,926.5714276177542,2719.4,1375.3214133126396,926.5714276177542,2824.1,1375.3214133126396,926.5714276177542,2930,1375.3214133126396,926.5714276177542,3032.4,1375.3214133126396,926.5714276177542,3135.4,1375.3214133126396,926.5714276177542,3241.2,1375.3214133126396,926.5714276177542,3347.7,1375.3214133126396,926.5714276177542,3450.7,1375.3214133126396,926.5714276177542,3556,1375.3214133126396,926.5714276177542,3658.6,1375.3214133126396,926.5714276177542,3761.8,1375.3214133126396,939.0714276177542,3863.6,1375.3214133126396,939.0714276177542,3967.5,1375.3214133126396,939.0714276177542,4068.1,1375.3214133126396,939.0714276177542,4171.9,1375.3214133126396,939.0714276177542,4274.4,1375.3214133126396,939.0714276177542,4376.7,1375.3214133126396,939.0714276177542,4476.8,1375.3214133126396,939.0714276177542,4582,1375.3214133126396,939.0714276177542,4688.9,1375.3214133126396,939.0714276177542,4794.8,1375.3214133126396,939.0714276177542,4896.9]","[1428.8,1428.8,1000,0,428.8,""smooth"",""right"",""right"",""good_move"",4387.6,2958.2,2549.7,1429.4,408.5,""smooth"",""right"",""right"",""good_move"",10311.9,5923.9,3007.6,6927.9,376.4,""oops"",""right"",""up"",""good_move"",15780.5,5468.1,2514.1,12928.7,337.7,""oops"",""up"",""left"",""bad_move"",18606.7,2825.7,2193.8,15781,631.9,""smooth"",""up"",""up"",""good_move"",21891.3,3284.3,2952.6,18607,331.7,""oops"",""up"",""up"",""good_move"",24955.4,3063.7,2726.5,21891.7,337.2,""smooth"",""right"",""right"",""good_move"",27948.5,2992.4,2650.7,24956.1,341.7,""oops"",""right"",""left"",""bad_move"",30057.6,2108.7,1661.4,27948.9,447.3,""smooth"",""right"",""right"",""good_move"",32673.5,2615.4,2278.2,30058.1,337.2,""while_blue"",""right"",""down"",""bad_move"",35938.1,3264,2837.4,32674.1,426.6,""smooth"",""right"",""right"",""good_move""]","",""
"5548","","<div style=""width:500px;"">
  <p>What determined the result of this run?</p>
  </div>","87","html-slider-response","30","411327","0.0-5.0-1.4","169","1","2025-07-23 07:07:42","1f75c3e559b7213887762d5229550c2b","41.150.227.71","Mozilla/5.0 (Windows NT 10.0; Win64; x64) AppleWebKit/537.36 (KHTML, like Gecko) Chrome/138.0.0.0 Safari/537.36","WebKit","Chrome","138.0.0.0","Windows","10.0","https://app.prolific.com/","en-ZA,en-GB;q=0.9,en-US;q=0.8,en;q=0.7","5a9aa66a35237b000112937b","683db9eb0562dbf637994deb","68808a251d842e76fb22ebae","2","1","5a9aa66a35237b000112937b","2","1","2025-07-23T07:14:36.177Z","","","","","","","","","","","AttribQ","","50","","","","","","","","","","","","","","","","","","","","","","","","","","","","",""
"3847","","<div style=""width:500px;"">
  <p>How much control did you have over the ball?</p>
  </div>","86","html-slider-response","31","415175","0.0-5.0-2.4","169","1","2025-07-23 07:07:42","1f75c3e559b7213887762d5229550c2b","41.150.227.71","Mozilla/5.0 (Windows NT 10.0; Win64; x64) AppleWebKit/537.36 (KHTML, like Gecko) Chrome/138.0.0.0 Safari/537.36","WebKit","Chrome","138.0.0.0","Windows","10.0","https://app.prolific.com/","en-ZA,en-GB;q=0.9,en-US;q=0.8,en;q=0.7","5a9aa66a35237b000112937b","683db9eb0562dbf637994deb","68808a251d842e76fb22ebae","2","1","5a9aa66a35237b000112937b","2","1","2025-07-23T07:14:40.025Z","","","","","","","","","","","ControlQ","","50","","","","","","","","","","","","","","","","","","","","","","","","","","","","",""
"3342","","<div style=""width:500px;"">
  <p>How would you describe your current emotional state?</p>
  </div>","1","html-slider-response","32","418520","0.0-5.0-3.4","169","1","2025-07-23 07:07:42","1f75c3e559b7213887762d5229550c2b","41.150.227.71","Mozilla/5.0 (Windows NT 10.0; Win64; x64) AppleWebKit/537.36 (KHTML, like Gecko) Chrome/138.0.0.0 Safari/537.36","WebKit","Chrome","138.0.0.0","Windows","10.0","https://app.prolific.com/","en-ZA,en-GB;q=0.9,en-US;q=0.8,en;q=0.7","5a9aa66a35237b000112937b","683db9eb0562dbf637994deb","68808a251d842e76fb22ebae","2","1","5a9aa66a35237b000112937b","2","1","2025-07-23T07:14:43.370Z","","","","","","","","","","","StressQ","","50","","","","","","","","","","","","","","","","","","","","","","","","","","","","",""
"2605","","<div style=""width:500px;"">
  <p>What best describes how you currently feel?</p>
  </div>","100","html-slider-response","33","421127","0.0-5.0-4.4","169","1","2025-07-23 07:07:42","1f75c3e559b7213887762d5229550c2b","41.150.227.71","Mozilla/5.0 (Windows NT 10.0; Win64; x64) AppleWebKit/537.36 (KHTML, like Gecko) Chrome/138.0.0.0 Safari/537.36","WebKit","Chrome","138.0.0.0","Windows","10.0","https://app.prolific.com/","en-ZA,en-GB;q=0.9,en-US;q=0.8,en;q=0.7","5a9aa66a35237b000112937b","683db9eb0562dbf637994deb","68808a251d842e76fb22ebae","2","1","5a9aa66a35237b000112937b","2","1","2025-07-23T07:14:45.977Z","","","","","","","","","","","MotivationQ","","50","","","","","","","","","","","","","","","","","","","","","","","","","","","","",""
"","","","","ctl-task-cpt","34","447850","0.0-5.0-0.5","169","1","2025-07-23 07:07:42","1f75c3e559b7213887762d5229550c2b","41.150.227.71","Mozilla/5.0 (Windows NT 10.0; Win64; x64) AppleWebKit/537.36 (KHTML, like Gecko) Chrome/138.0.0.0 Safari/537.36","WebKit","Chrome","138.0.0.0","Windows","10.0","https://app.prolific.com/","en-ZA,en-GB;q=0.9,en-US;q=0.8,en;q=0.7","5a9aa66a35237b000112937b","683db9eb0562dbf637994deb","68808a251d842e76fb22ebae","2","1","5a9aa66a35237b000112937b","2","1","2025-07-23T07:15:12.700Z","","","","","","","","","","","","","","win-only","0","g1:NW,g2:SE","0.5","6","0","425029.5","1118.3","6122.9","23705.9","1","4","8","6","2","8","8","26","18","0.19696969696969696","1296.1","3000","1410","[""down"",""right""]","{""num_key_presses"":6,""num_perfect"":4,""num_errors"":0,""num_randdir"":2,""num_randdir_good_moves"":2,""num_whilered"":0,""num_whileblue"":0,""num_blue"":0,""num_good_moves"":6}","[404.0714133126395,411.57142761775424,0.3,404.0714133126395,411.57142761775424,114.3,404.0714133126395,414.07142761775424,215,405.3214133126395,417.82142761775424,320.9,434.0714133126395,457.82142761775424,420.9,472.8214133126395,519.0714276177542,521.9,465.3214133126395,576.5714276177542,631.7,492.8214133126395,611.5714276177542,740.8,750.3214133126395,746.5714276177542,845.4,762.8214133126395,761.5714276177542,947.4,761.5714133126395,760.3214276177542,1048.9,761.5714133126395,760.3214276177542,1153,761.5714133126395,760.3214276177542,1255.1,761.5714133126395,760.3214276177542,1365.7,759.0714133126395,759.0714276177542,1471.8,759.0714133126395,759.0714276177542,1574.7,759.0714133126395,759.0714276177542,1676.2,759.0714133126395,759.0714276177542,1782.6,754.0714133126395,754.0714276177542,1884.2,752.8214133126395,751.5714276177542,1985.7,679.0714133126395,794.0714276177542,2086.1,675.3214133126395,796.5714276177542,2187.9,675.3214133126395,796.5714276177542,2290.3,675.3214133126395,796.5714276177542,2393.5,675.3214133126395,796.5714276177542,2494.3,675.3214133126395,796.5714276177542,2599.2,675.3214133126395,796.5714276177542,2705.8,671.5714133126395,809.0714276177542,2807.7,671.5714133126395,839.0714276177542,2915.8,671.5714133126395,839.0714276177542,3023,671.5714133126395,839.0714276177542,3128.6,671.5714133126395,839.0714276177542,3237.2,671.5714133126395,839.0714276177542,3338.6,671.5714133126395,839.0714276177542,3443,671.5714133126395,839.0714276177542,3547.8,671.5714133126395,839.0714276177542,3653.6,671.5714133126395,839.0714276177542,3756.5,671.5714133126395,839.0714276177542,3860.9,671.5714133126395,839.0714276177542,3964,671.5714133126395,839.0714276177542,4064.6,671.5714133126395,839.0714276177542,4165,671.5714133126395,839.0714276177542,4270.8,671.5714133126395,839.0714276177542,4373.2,671.5714133126395,839.0714276177542,4480.9,671.5714133126395,839.0714276177542,4589.8,671.5714133126395,839.0714276177542,4693.7,671.5714133126395,839.0714276177542,4795.3,671.5714133126395,839.0714276177542,4898.7]","[1445.5,1445.5,1000,0,445.5,""oops"",""right"",""down"",""good_move"",4699,3252.8,2887.9,1446.2,364.9,""oops"",""right"",""right"",""good_move"",8163.6,3463.8,3034.4,4699.8,429.4,""smooth"",""right"",""right"",""good_move"",11465.1,3301.3,2922.2,8163.8,379.1,""smooth"",""right"",""right"",""good_move"",14847.4,3382,3024.7,11465.4,357.3,""smooth"",""down"",""down"",""good_move"",17453,2605.1,2216.4,14848,388.6,""smooth"",""down"",""down"",""good_move""]","",""
"3140","","<div style=""width:500px;"">
  <p>What determined the result of this run?</p>
  </div>","100","html-slider-response","35","450992","0.0-5.0-1.5","169","1","2025-07-23 07:07:42","1f75c3e559b7213887762d5229550c2b","41.150.227.71","Mozilla/5.0 (Windows NT 10.0; Win64; x64) AppleWebKit/537.36 (KHTML, like Gecko) Chrome/138.0.0.0 Safari/537.36","WebKit","Chrome","138.0.0.0","Windows","10.0","https://app.prolific.com/","en-ZA,en-GB;q=0.9,en-US;q=0.8,en;q=0.7","5a9aa66a35237b000112937b","683db9eb0562dbf637994deb","68808a251d842e76fb22ebae","2","1","5a9aa66a35237b000112937b","2","1","2025-07-23T07:15:15.842Z","","","","","","","","","","","AttribQ","","50","","","","","","","","","","","","","","","","","","","","","","","","","","","","",""
"3494","","<div style=""width:500px;"">
  <p>How much control did you have over the ball?</p>
  </div>","100","html-slider-response","36","454488","0.0-5.0-2.5","169","1","2025-07-23 07:07:42","1f75c3e559b7213887762d5229550c2b","41.150.227.71","Mozilla/5.0 (Windows NT 10.0; Win64; x64) AppleWebKit/537.36 (KHTML, like Gecko) Chrome/138.0.0.0 Safari/537.36","WebKit","Chrome","138.0.0.0","Windows","10.0","https://app.prolific.com/","en-ZA,en-GB;q=0.9,en-US;q=0.8,en;q=0.7","5a9aa66a35237b000112937b","683db9eb0562dbf637994deb","68808a251d842e76fb22ebae","2","1","5a9aa66a35237b000112937b","2","1","2025-07-23T07:15:19.338Z","","","","","","","","","","","ControlQ","","50","","","","","","","","","","","","","","","","","","","","","","","","","","","","",""
"2527","","<div style=""width:500px;"">
  <p>How would you describe your current emotional state?</p>
  </div>","0","html-slider-response","37","457017","0.0-5.0-3.5","169","1","2025-07-23 07:07:42","1f75c3e559b7213887762d5229550c2b","41.150.227.71","Mozilla/5.0 (Windows NT 10.0; Win64; x64) AppleWebKit/537.36 (KHTML, like Gecko) Chrome/138.0.0.0 Safari/537.36","WebKit","Chrome","138.0.0.0","Windows","10.0","https://app.prolific.com/","en-ZA,en-GB;q=0.9,en-US;q=0.8,en;q=0.7","5a9aa66a35237b000112937b","683db9eb0562dbf637994deb","68808a251d842e76fb22ebae","2","1","5a9aa66a35237b000112937b","2","1","2025-07-23T07:15:21.867Z","","","","","","","","","","","StressQ","","50","","","","","","","","","","","","","","","","","","","","","","","","","","","","",""
"3110","","<div style=""width:500px;"">
  <p>What best describes how you currently feel?</p>
  </div>","100","html-slider-response","38","460128","0.0-5.0-4.5","169","1","2025-07-23 07:07:42","1f75c3e559b7213887762d5229550c2b","41.150.227.71","Mozilla/5.0 (Windows NT 10.0; Win64; x64) AppleWebKit/537.36 (KHTML, like Gecko) Chrome/138.0.0.0 Safari/537.36","WebKit","Chrome","138.0.0.0","Windows","10.0","https://app.prolific.com/","en-ZA,en-GB;q=0.9,en-US;q=0.8,en;q=0.7","5a9aa66a35237b000112937b","683db9eb0562dbf637994deb","68808a251d842e76fb22ebae","2","1","5a9aa66a35237b000112937b","2","1","2025-07-23T07:15:24.978Z","","","","","","","","","","","MotivationQ","","50","","","","","","","","","","","","","","","","","","","","","","","","","","","","",""
"","","","","ctl-task-cpt","39","534135","0.0-5.0-0.6","169","1","2025-07-23 07:07:42","1f75c3e559b7213887762d5229550c2b","41.150.227.71","Mozilla/5.0 (Windows NT 10.0; Win64; x64) AppleWebKit/537.36 (KHTML, like Gecko) Chrome/138.0.0.0 Safari/537.36","WebKit","Chrome","138.0.0.0","Windows","10.0","https://app.prolific.com/","en-ZA,en-GB;q=0.9,en-US;q=0.8,en;q=0.7","5a9aa66a35237b000112937b","683db9eb0562dbf637994deb","68808a251d842e76fb22ebae","2","1","5a9aa66a35237b000112937b","2","1","2025-07-23T07:16:38.985Z","","","","","","","","","","","","","","win-only","2","g1:SE,g2:NW","0.4","7","0","464031.1","1184.7","6185.1","70981.7","1","4","4","6","2","-4","-4","22","26","0.16666666666666666","1118.1","3000","-1950","[""left"",""up""]","{""num_key_presses"":10,""num_perfect"":4,""num_errors"":0,""num_randdir"":6,""num_randdir_good_moves"":3,""num_whilered"":0,""num_whileblue"":0,""num_blue"":10,""num_good_moves"":7}","[405.3214133126395,415.32142761775424,0.5,405.3214133126395,415.32142761775424,101.8,405.3214133126395,415.32142761775424,213.9,405.3214133126395,415.32142761775424,319.1,431.5714133126395,421.57142761775424,423.3,436.5714133126395,420.32142761775424,531.1,101.5714133126395,146.57142761775424,632.5,-19.678586687360493,51.57142761775425,738.1,-20.928586687360493,51.57142761775425,846.2,26.571413312639507,74.07142761775425,949.1,42.82141331263951,71.57142761775425,1052.6,49.07141331263951,70.32142761775425,1155.7,49.07141331263951,70.32142761775425,1256.1,49.07141331263951,70.32142761775425,1359.6,49.07141331263951,70.32142761775425,1474.1,49.07141331263951,70.32142761775425,1580.3,36.57141331263951,75.32142761775425,1687.5,9.071413312639507,86.57142761775425,1787.5,1.571413312639507,87.82142761775425,1892.6,1.571413312639507,87.82142761775425,2002.8,1.571413312639507,87.82142761775425,2109.4,1.571413312639507,87.82142761775425,2216.7,1.571413312639507,87.82142761775425,2322.5,1.571413312639507,87.82142761775425,2428.4,1.571413312639507,87.82142761775425,2531.6,1.571413312639507,87.82142761775425,2633.5,1.571413312639507,87.82142761775425,2736.7,1.571413312639507,87.82142761775425,2839.5,1.571413312639507,87.82142761775425,2941.2,1.571413312639507,87.82142761775425,3042.5,1.571413312639507,87.82142761775425,3149.1,1.571413312639507,87.82142761775425,3256.3,1.571413312639507,87.82142761775425,3364.4,1.571413312639507,87.82142761775425,3464.5,1.571413312639507,87.82142761775425,3570.3,1.571413312639507,87.82142761775425,3670.4,1.571413312639507,87.82142761775425,3770.6,1.571413312639507,87.82142761775425,3876.9,1.571413312639507,87.82142761775425,3987.3,1.571413312639507,87.82142761775425,4089.1,1.571413312639507,87.82142761775425,4194.3,1.571413312639507,87.82142761775425,4299.9,1.571413312639507,87.82142761775425,4404.5,1.571413312639507,87.82142761775425,4507.2,1.571413312639507,87.82142761775425,4616.4,1.571413312639507,87.82142761775425,4724.5,1.571413312639507,87.82142761775425,4827.6,1.571413312639507,87.82142761775425,4931.6]","[5160.5,5160.5,2735.8,2004.4,420.3,""oops"",""up"",""right"",""bad_move"",7810.2,2649.2,2170.5,5161.1,478.7,""oops"",""up"",""down"",""bad_move"",10781,2970.1,2533.9,7811,436.2,""oops"",""up"",""up"",""good_move"",12703.2,1921.5,1479.6,10781.7,441.9,""smooth"",""up"",""up"",""good_move"",15640.5,2936.9,2600,12703.6,336.9,""oops"",""up"",""up"",""good_move"",40643.5,25002.5,2548.2,37616.9,478.4,""smooth"",""up"",""up"",""good_move"",47167.8,6523.5,2529.3,44166.8,471.7,""oops"",""left"",""down"",""bad_move"",50232.3,3063.9,2582.7,47168.4,481.2,""smooth"",""left"",""left"",""good_move"",53135.6,2902.4,2442.7,50233.2,459.7,""smooth"",""left"",""left"",""good_move"",61868.2,8732.2,1487.7,59953.2,427.3,""oops"",""left"",""left"",""good_move""]","",""
"8410","","<div style=""width:500px;"">
  <p>What determined the result of this run?</p>
  </div>","61","html-slider-response","40","542547","0.0-5.0-1.6","169","1","2025-07-23 07:07:42","1f75c3e559b7213887762d5229550c2b","41.150.227.71","Mozilla/5.0 (Windows NT 10.0; Win64; x64) AppleWebKit/537.36 (KHTML, like Gecko) Chrome/138.0.0.0 Safari/537.36","WebKit","Chrome","138.0.0.0","Windows","10.0","https://app.prolific.com/","en-ZA,en-GB;q=0.9,en-US;q=0.8,en;q=0.7","5a9aa66a35237b000112937b","683db9eb0562dbf637994deb","68808a251d842e76fb22ebae","2","1","5a9aa66a35237b000112937b","2","1","2025-07-23T07:16:47.398Z","","","","","","","","","","","AttribQ","","50","","","","","","","","","","","","","","","","","","","","","","","","","","","","",""
"15142","","<div style=""width:500px;"">
  <p>How much control did you have over the ball?</p>
  </div>","27","html-slider-response","41","557692","0.0-5.0-2.6","169","1","2025-07-23 07:07:42","1f75c3e559b7213887762d5229550c2b","41.150.227.71","Mozilla/5.0 (Windows NT 10.0; Win64; x64) AppleWebKit/537.36 (KHTML, like Gecko) Chrome/138.0.0.0 Safari/537.36","WebKit","Chrome","138.0.0.0","Windows","10.0","https://app.prolific.com/","en-ZA,en-GB;q=0.9,en-US;q=0.8,en;q=0.7","5a9aa66a35237b000112937b","683db9eb0562dbf637994deb","68808a251d842e76fb22ebae","2","1","5a9aa66a35237b000112937b","2","1","2025-07-23T07:17:02.542Z","","","","","","","","","","","ControlQ","","50","","","","","","","","","","","","","","","","","","","","","","","","","","","","",""
"2981","","<div style=""width:500px;"">
  <p>How would you describe your current emotional state?</p>
  </div>","0","html-slider-response","42","560676","0.0-5.0-3.6","169","1","2025-07-23 07:07:42","1f75c3e559b7213887762d5229550c2b","41.150.227.71","Mozilla/5.0 (Windows NT 10.0; Win64; x64) AppleWebKit/537.36 (KHTML, like Gecko) Chrome/138.0.0.0 Safari/537.36","WebKit","Chrome","138.0.0.0","Windows","10.0","https://app.prolific.com/","en-ZA,en-GB;q=0.9,en-US;q=0.8,en;q=0.7","5a9aa66a35237b000112937b","683db9eb0562dbf637994deb","68808a251d842e76fb22ebae","2","1","5a9aa66a35237b000112937b","2","1","2025-07-23T07:17:05.526Z","","","","","","","","","","","StressQ","","50","","","","","","","","","","","","","","","","","","","","","","","","","","","","",""
"3479","","<div style=""width:500px;"">
  <p>What best describes how you currently feel?</p>
  </div>","100","html-slider-response","43","564156","0.0-5.0-4.6","169","1","2025-07-23 07:07:42","1f75c3e559b7213887762d5229550c2b","41.150.227.71","Mozilla/5.0 (Windows NT 10.0; Win64; x64) AppleWebKit/537.36 (KHTML, like Gecko) Chrome/138.0.0.0 Safari/537.36","WebKit","Chrome","138.0.0.0","Windows","10.0","https://app.prolific.com/","en-ZA,en-GB;q=0.9,en-US;q=0.8,en;q=0.7","5a9aa66a35237b000112937b","683db9eb0562dbf637994deb","68808a251d842e76fb22ebae","2","1","5a9aa66a35237b000112937b","2","1","2025-07-23T07:17:09.006Z","","","","","","","","","","","MotivationQ","","50","","","","","","","","","","","","","","","","","","","","","","","","","","","","",""
"","","","","ctl-task-cpt","44","607789","0.0-5.0-0.7","169","1","2025-07-23 07:07:42","1f75c3e559b7213887762d5229550c2b","41.150.227.71","Mozilla/5.0 (Windows NT 10.0; Win64; x64) AppleWebKit/537.36 (KHTML, like Gecko) Chrome/138.0.0.0 Safari/537.36","WebKit","Chrome","138.0.0.0","Windows","10.0","https://app.prolific.com/","en-ZA,en-GB;q=0.9,en-US;q=0.8,en;q=0.7","5a9aa66a35237b000112937b","683db9eb0562dbf637994deb","68808a251d842e76fb22ebae","2","1","5a9aa66a35237b000112937b","2","1","2025-07-23T07:17:52.639Z","","","","","","","","","","","","","","win-only","1","g1:NE,g2:SW","0.3","8","0","568059.1","2133.7","7141.5","40624.1","1","4","8","6","2","-8","-8","14","22","0.10606060606060606","1380.7","3000","-2070","[""down"",""left""]","{""num_key_presses"":9,""num_perfect"":3,""num_errors"":0,""num_randdir"":6,""num_randdir_good_moves"":3,""num_whilered"":0,""num_whileblue"":0,""num_blue"":2,""num_good_moves"":6}","[421.5714133126395,415.32142761775424,0.3,421.5714133126395,415.32142761775424,113.6,421.5714133126395,415.32142761775424,216,421.5714133126395,415.32142761775424,316.3,421.5714133126395,415.32142761775424,422.8,421.5714133126395,415.32142761775424,524.4,421.5714133126395,415.32142761775424,627,247.8214133126395,577.8214276177542,733.4,174.0714133126395,681.5714276177542,833.4,146.5714133126395,706.5714276177542,941.4,94.0714133126395,734.0714276177542,1044.1,81.5714133126395,742.8214276177542,1149.5,81.5714133126395,742.8214276177542,1250.6,81.5714133126395,742.8214276177542,1355.9,81.5714133126395,742.8214276177542,1467.4,81.5714133126395,742.8214276177542,1572.8,81.5714133126395,742.8214276177542,1681.6,127.8214133126395,742.8214276177542,1783.6,335.3214133126395,742.8214276177542,1886.9,376.5714133126395,742.8214276177542,1999.1,376.5714133126395,741.5714276177542,2102.2,376.5714133126395,741.5714276177542,2203.3,376.5714133126395,741.5714276177542,2304.3,376.5714133126395,741.5714276177542,2412.5,376.5714133126395,741.5714276177542,2517,376.5714133126395,741.5714276177542,2623.2,376.5714133126395,741.5714276177542,2724.3,376.5714133126395,741.5714276177542,2831.6,376.5714133126395,741.5714276177542,2938.1,376.5714133126395,741.5714276177542,3039.9,376.5714133126395,741.5714276177542,3142.7,376.5714133126395,741.5714276177542,3248.6,376.5714133126395,741.5714276177542,3356.3,376.5714133126395,741.5714276177542,3465.8,376.5714133126395,741.5714276177542,3574.4,376.5714133126395,741.5714276177542,3681.4,376.5714133126395,741.5714276177542,3786.6,376.5714133126395,741.5714276177542,3891,376.5714133126395,741.5714276177542,3993.3,376.5714133126395,741.5714276177542,4093.4,376.5714133126395,741.5714276177542,4197,376.5714133126395,741.5714276177542,4300.3,376.5714133126395,741.5714276177542,4405.2,376.5714133126395,741.5714276177542,4509.1,376.5714133126395,741.5714276177542,4616,376.5714133126395,741.5714276177542,4717.2,376.5714133126395,741.5714276177542,4825.1,376.5714133126395,741.5714276177542,4932.1]","[1438,1438,1000,0,438,""smooth"",""left"",""left"",""good_move"",10893.4,9454.3,3095,7359.7,438.7,""smooth"",""left"",""left"",""good_move"",13465.4,2571.5,2081.4,10893.9,490.1,""oops"",""left"",""right"",""bad_move"",16246.1,2780.1,2206.5,13466.1,573.5,""smooth"",""down"",""down"",""good_move"",19402.4,3155.5,2786.6,16246.9,368.9,""oops"",""down"",""left"",""good_move"",22157.4,2754.5,1981.6,19402.9,772.9,""oops"",""down"",""left"",""good_move"",25457.4,3299.6,2936.1,22157.8,363.5,""oops"",""down"",""right"",""bad_move"",28421.9,2963.8,2598.7,25458.1,365.1,""oops"",""down"",""left"",""good_move"",30661.7,2239.5,1847.6,28422.2,392,""oops"",""down"",""up"",""bad_move""]","",""
"3503","","<div style=""width:500px;"">
  <p>What determined the result of this run?</p>
  </div>","27","html-slider-response","45","611294","0.0-5.0-1.7","169","1","2025-07-23 07:07:42","1f75c3e559b7213887762d5229550c2b","41.150.227.71","Mozilla/5.0 (Windows NT 10.0; Win64; x64) AppleWebKit/537.36 (KHTML, like Gecko) Chrome/138.0.0.0 Safari/537.36","WebKit","Chrome","138.0.0.0","Windows","10.0","https://app.prolific.com/","en-ZA,en-GB;q=0.9,en-US;q=0.8,en;q=0.7","5a9aa66a35237b000112937b","683db9eb0562dbf637994deb","68808a251d842e76fb22ebae","2","1","5a9aa66a35237b000112937b","2","1","2025-07-23T07:17:56.144Z","","","","","","","","","","","AttribQ","","50","","","","","","","","","","","","","","","","","","","","","","","","","","","","",""
"3598","","<div style=""width:500px;"">
  <p>How much control did you have over the ball?</p>
  </div>","1","html-slider-response","46","614894","0.0-5.0-2.7","169","1","2025-07-23 07:07:42","1f75c3e559b7213887762d5229550c2b","41.150.227.71","Mozilla/5.0 (Windows NT 10.0; Win64; x64) AppleWebKit/537.36 (KHTML, like Gecko) Chrome/138.0.0.0 Safari/537.36","WebKit","Chrome","138.0.0.0","Windows","10.0","https://app.prolific.com/","en-ZA,en-GB;q=0.9,en-US;q=0.8,en;q=0.7","5a9aa66a35237b000112937b","683db9eb0562dbf637994deb","68808a251d842e76fb22ebae","2","1","5a9aa66a35237b000112937b","2","1","2025-07-23T07:17:59.744Z","","","","","","","","","","","ControlQ","","50","","","","","","","","","","","","","","","","","","","","","","","","","","","","",""
"2942","","<div style=""width:500px;"">
  <p>How would you describe your current emotional state?</p>
  </div>","0","html-slider-response","47","617838","0.0-5.0-3.7","169","1","2025-07-23 07:07:42","1f75c3e559b7213887762d5229550c2b","41.150.227.71","Mozilla/5.0 (Windows NT 10.0; Win64; x64) AppleWebKit/537.36 (KHTML, like Gecko) Chrome/138.0.0.0 Safari/537.36","WebKit","Chrome","138.0.0.0","Windows","10.0","https://app.prolific.com/","en-ZA,en-GB;q=0.9,en-US;q=0.8,en;q=0.7","5a9aa66a35237b000112937b","683db9eb0562dbf637994deb","68808a251d842e76fb22ebae","2","1","5a9aa66a35237b000112937b","2","1","2025-07-23T07:18:02.688Z","","","","","","","","","","","StressQ","","50","","","","","","","","","","","","","","","","","","","","","","","","","","","","",""
"2919","","<div style=""width:500px;"">
  <p>What best describes how you currently feel?</p>
  </div>","100","html-slider-response","48","620758","0.0-5.0-4.7","169","1","2025-07-23 07:07:42","1f75c3e559b7213887762d5229550c2b","41.150.227.71","Mozilla/5.0 (Windows NT 10.0; Win64; x64) AppleWebKit/537.36 (KHTML, like Gecko) Chrome/138.0.0.0 Safari/537.36","WebKit","Chrome","138.0.0.0","Windows","10.0","https://app.prolific.com/","en-ZA,en-GB;q=0.9,en-US;q=0.8,en;q=0.7","5a9aa66a35237b000112937b","683db9eb0562dbf637994deb","68808a251d842e76fb22ebae","2","1","5a9aa66a35237b000112937b","2","1","2025-07-23T07:18:05.608Z","","","","","","","","","","","MotivationQ","","50","","","","","","","","","","","","","","","","","","","","","","","","","","","","",""
"","","","","ctl-task-cpt","49","673728","0.0-5.0-0.8","169","1","2025-07-23 07:07:42","1f75c3e559b7213887762d5229550c2b","41.150.227.71","Mozilla/5.0 (Windows NT 10.0; Win64; x64) AppleWebKit/537.36 (KHTML, like Gecko) Chrome/138.0.0.0 Safari/537.36","WebKit","Chrome","138.0.0.0","Windows","10.0","https://app.prolific.com/","en-ZA,en-GB;q=0.9,en-US;q=0.8,en;q=0.7","5a9aa66a35237b000112937b","683db9eb0562dbf637994deb","68808a251d842e76fb22ebae","2","1","5a9aa66a35237b000112937b","2","1","2025-07-23T07:18:58.578Z","","","","","","","","","","","","","","win-only","2","g1:SE,g2:NW","0.2","9","0","624661.1","2390.2","7396","49958.4","1","4","4","6","2","-4","-5","9","14","0.06818181818181818","1783.9","3000","-2105","[""left"",""up""]","{""num_key_presses"":12,""num_perfect"":2,""num_errors"":1,""num_randdir"":9,""num_randdir_good_moves"":5,""num_whilered"":0,""num_whileblue"":1,""num_blue"":3,""num_good_moves"":8}","[414.0714133126395,416.57142761775424,0.9,414.0714133126395,414.07142761775424,103.7,414.0714133126395,414.07142761775424,204,414.0714133126395,414.07142761775424,313.5,414.0714133126395,414.07142761775424,418.7,414.0714133126395,414.07142761775424,521.1,414.0714133126395,414.07142761775424,623.2,414.0714133126395,414.07142761775424,727.4,414.0714133126395,414.07142761775424,834.5,415.3214133126395,415.32142761775424,935.8,416.5714133126395,415.32142761775424,1040.9,161.5714133126395,210.32142761775424,1148,-33.42858668736049,134.07142761775424,1251.7,-34.67858668736049,129.07142761775424,1354.1,-37.17858668736049,119.07142761775425,1458.1,16.571413312639507,104.07142761775425,1563.4,40.32141331263951,77.82142761775425,1667.9,49.07141331263951,70.32142761775425,1771.2,49.07141331263951,70.32142761775425,1874.1,49.07141331263951,70.32142761775425,1986.6,49.07141331263951,70.32142761775425,2090.9,72.8214133126395,86.57142761775425,2192.1,72.8214133126395,86.57142761775425,2299.9,66.5714133126395,216.57142761775424,2413.5,70.3214133126395,221.57142761775424,2523.7,70.3214133126395,221.57142761775424,2634.5,70.3214133126395,221.57142761775424,2735.5,70.3214133126395,221.57142761775424,2843.1,70.3214133126395,221.57142761775424,2946.8,70.3214133126395,221.57142761775424,3047.8,70.3214133126395,221.57142761775424,3150.8,71.5714133126395,230.32142761775424,3258.4,72.8214133126395,241.57142761775424,3363,72.8214133126395,241.57142761775424,3467.5,72.8214133126395,241.57142761775424,3569.9,72.8214133126395,241.57142761775424,3672.9,72.8214133126395,241.57142761775424,3777.5,72.8214133126395,241.57142761775424,3882.5,72.8214133126395,241.57142761775424,3985.1,72.8214133126395,241.57142761775424,4086.8,72.8214133126395,241.57142761775424,4192.4,72.8214133126395,241.57142761775424,4296.4,72.8214133126395,241.57142761775424,4402.8,72.8214133126395,241.57142761775424,4505.3,72.8214133126395,241.57142761775424,4606,72.8214133126395,241.57142761775424,4707.6,72.8214133126395,241.57142761775424,4810.7,72.8214133126395,241.57142761775424,4913.6]","[1412.6,1412.6,1000,0,412.6,""smooth"",""up"",""up"",""good_move"",8920.1,7506.7,2859.4,5697.4,363.3,""oops"",""up"",""right"",""bad_move"",11557.9,2637,2249.8,8920.9,387.3,""oops"",""up"",""down"",""bad_move"",14960.6,3402.1,3030.8,11558.5,371.3,""oops"",""up"",""up"",""good_move"",17964.2,3002.2,2664.5,14962,337.7,""while_blue"",""up"",""up"",""good_move"",21249.1,3284.4,2943.7,17964.7,340.8,""oops"",""up"",""down"",""bad_move"",23827.2,2577.5,2199.4,21249.7,378.1,""oops"",""left"",""up"",""good_move"",26880.5,3052.6,2679.9,23827.9,372.7,""smooth"",""left"",""left"",""good_move"",29158.7,2277.7,1875.3,26881.1,402.3,""oops"",""left"",""left"",""good_move"",32112,2953,2576.4,29159,376.6,""oops"",""left"",""left"",""good_move"",37287.5,5175,2064,34828.3,395.3,""oops"",""left"",""left"",""good_move"",39604.8,2316.9,1935.3,37287.9,381.6,""oops"",""up"",""right"",""bad_move""]","",""
"3471","","<div style=""width:500px;"">
  <p>What determined the result of this run?</p>
  </div>","65","html-slider-response","50","677201","0.0-5.0-1.8","169","1","2025-07-23 07:07:42","1f75c3e559b7213887762d5229550c2b","41.150.227.71","Mozilla/5.0 (Windows NT 10.0; Win64; x64) AppleWebKit/537.36 (KHTML, like Gecko) Chrome/138.0.0.0 Safari/537.36","WebKit","Chrome","138.0.0.0","Windows","10.0","https://app.prolific.com/","en-ZA,en-GB;q=0.9,en-US;q=0.8,en;q=0.7","5a9aa66a35237b000112937b","683db9eb0562dbf637994deb","68808a251d842e76fb22ebae","2","1","5a9aa66a35237b000112937b","2","1","2025-07-23T07:19:02.051Z","","","","","","","","","","","AttribQ","","50","","","","","","","","","","","","","","","","","","","","","","","","","","","","",""
"5710","","<div style=""width:500px;"">
  <p>How much control did you have over the ball?</p>
  </div>","15","html-slider-response","51","682913","0.0-5.0-2.8","169","1","2025-07-23 07:07:42","1f75c3e559b7213887762d5229550c2b","41.150.227.71","Mozilla/5.0 (Windows NT 10.0; Win64; x64) AppleWebKit/537.36 (KHTML, like Gecko) Chrome/138.0.0.0 Safari/537.36","WebKit","Chrome","138.0.0.0","Windows","10.0","https://app.prolific.com/","en-ZA,en-GB;q=0.9,en-US;q=0.8,en;q=0.7","5a9aa66a35237b000112937b","683db9eb0562dbf637994deb","68808a251d842e76fb22ebae","2","1","5a9aa66a35237b000112937b","2","1","2025-07-23T07:19:07.763Z","","","","","","","","","","","ControlQ","","50","","","","","","","","","","","","","","","","","","","","","","","","","","","","",""
"3486","","<div style=""width:500px;"">
  <p>How would you describe your current emotional state?</p>
  </div>","0","html-slider-response","52","686401","0.0-5.0-3.8","169","1","2025-07-23 07:07:42","1f75c3e559b7213887762d5229550c2b","41.150.227.71","Mozilla/5.0 (Windows NT 10.0; Win64; x64) AppleWebKit/537.36 (KHTML, like Gecko) Chrome/138.0.0.0 Safari/537.36","WebKit","Chrome","138.0.0.0","Windows","10.0","https://app.prolific.com/","en-ZA,en-GB;q=0.9,en-US;q=0.8,en;q=0.7","5a9aa66a35237b000112937b","683db9eb0562dbf637994deb","68808a251d842e76fb22ebae","2","1","5a9aa66a35237b000112937b","2","1","2025-07-23T07:19:11.251Z","","","","","","","","","","","StressQ","","50","","","","","","","","","","","","","","","","","","","","","","","","","","","","",""
"2493","","<div style=""width:500px;"">
  <p>What best describes how you currently feel?</p>
  </div>","100","html-slider-response","53","688897","0.0-5.0-4.8","169","1","2025-07-23 07:07:42","1f75c3e559b7213887762d5229550c2b","41.150.227.71","Mozilla/5.0 (Windows NT 10.0; Win64; x64) AppleWebKit/537.36 (KHTML, like Gecko) Chrome/138.0.0.0 Safari/537.36","WebKit","Chrome","138.0.0.0","Windows","10.0","https://app.prolific.com/","en-ZA,en-GB;q=0.9,en-US;q=0.8,en;q=0.7","5a9aa66a35237b000112937b","683db9eb0562dbf637994deb","68808a251d842e76fb22ebae","2","1","5a9aa66a35237b000112937b","2","1","2025-07-23T07:19:13.747Z","","","","","","","","","","","MotivationQ","","50","","","","","","","","","","","","","","","","","","","","","","","","","","","","",""
"","","","","ctl-task-cpt","54","730761","0.0-5.0-0.9","169","1","2025-07-23 07:07:42","1f75c3e559b7213887762d5229550c2b","41.150.227.71","Mozilla/5.0 (Windows NT 10.0; Win64; x64) AppleWebKit/537.36 (KHTML, like Gecko) Chrome/138.0.0.0 Safari/537.36","WebKit","Chrome","138.0.0.0","Windows","10.0","https://app.prolific.com/","en-ZA,en-GB;q=0.9,en-US;q=0.8,en;q=0.7","5a9aa66a35237b000112937b","683db9eb0562dbf637994deb","68808a251d842e76fb22ebae","2","1","5a9aa66a35237b000112937b","2","1","2025-07-23T07:19:55.611Z","","","","","","","","","","","","","","win-only","3","g1:SW,g2:NE","0.4","10","0","692800.7","1228.1","6239.8","38841.7","1","4","8","6","1","-1","-1","8","9","0.06060606060606061","1577.6","3000","-1985","[""down"",""left""]","{""num_key_presses"":9,""num_perfect"":4,""num_errors"":0,""num_randdir"":5,""num_randdir_good_moves"":1,""num_whilered"":0,""num_whileblue"":0,""num_blue"":1,""num_good_moves"":5}","[424.0714133126395,411.57142761775424,0.3,424.0714133126395,411.57142761775424,112.9,424.0714133126395,411.57142761775424,213.8,424.0714133126395,411.57142761775424,316.5,422.8214133126395,411.57142761775424,417.7,422.8214133126395,411.57142761775424,520.7,422.8214133126395,411.57142761775424,626.4,425.3214133126395,411.57142761775424,726.8,417.8214133126395,421.57142761775424,829,241.5714133126395,534.0714276177542,935.2,176.5714133126395,572.8214276177542,1039.5,125.3214133126395,591.5714276177542,1151.8,131.5714133126395,672.8214276177542,1253.2,134.0714133126395,717.8214276177542,1359.4,126.5714133126395,744.0714276177542,1460.7,114.0714133126395,746.5714276177542,1567.9,104.0714133126395,751.5714276177542,1668.2,104.0714133126395,751.5714276177542,1775.9,106.5714133126395,752.8214276177542,1883.7,136.5714133126395,752.8214276177542,1984.5,565.3214133126395,774.0714276177542,2088,1375.3214133126396,882.8214276177542,2191.7,1356.5714133126396,960.3214276177542,2294.1,1356.5714133126396,960.3214276177542,2398.9,1356.5714133126396,960.3214276177542,2505.7,1356.5714133126396,960.3214276177542,2610.2,1356.5714133126396,960.3214276177542,2718.7,1356.5714133126396,960.3214276177542,2824.4,1356.5714133126396,960.3214276177542,2935.2,1356.5714133126396,960.3214276177542,3042.7,1356.5714133126396,960.3214276177542,3144.6,1356.5714133126396,960.3214276177542,3245.6,1356.5714133126396,960.3214276177542,3348.1,1356.5714133126396,960.3214276177542,3450.1,1356.5714133126396,960.3214276177542,3552.1,1356.5714133126396,960.3214276177542,3654.9,1356.5714133126396,960.3214276177542,3755.6,1356.5714133126396,960.3214276177542,3855.7,1356.5714133126396,960.3214276177542,3960.9,1356.5714133126396,960.3214276177542,4067.6,1356.5714133126396,960.3214276177542,4176.1,1356.5714133126396,960.3214276177542,4276.1,1356.5714133126396,960.3214276177542,4376.7,1356.5714133126396,960.3214276177542,4486.5,1356.5714133126396,960.3214276177542,4589.6,1356.5714133126396,960.3214276177542,4693.9,1356.5714133126396,960.3214276177542,4794.3,1356.5714133126396,960.3214276177542,4894.8,1356.5714133126396,960.3214276177542,4999.1]","[1439.7,1439.8,1000,0,439.8,""smooth"",""left"",""left"",""good_move"",4303.1,2862.9,2433.9,1440.2,429,""oops"",""left"",""down"",""good_move"",7251.2,2947.4,2556.8,4303.8,390.6,""oops"",""left"",""up"",""bad_move"",13798.6,6546.8,2511.7,10855.9,431.1,""oops"",""left"",""right"",""bad_move"",16566.5,2767.4,2005.7,13799.1,761.7,""oops"",""down"",""right"",""bad_move"",19416.7,2849.8,2441.2,16566.9,408.6,""smooth"",""down"",""down"",""good_move"",22183.6,2766.1,2386.9,19417.5,379.2,""oops"",""down"",""right"",""bad_move"",25379.6,3195.6,2765.5,22184,430.1,""smooth"",""down"",""down"",""good_move"",29058.6,3678.6,3294.3,25380,384.3,""smooth"",""left"",""left"",""good_move""]","",""
"3776","","<div style=""width:500px;"">
  <p>What determined the result of this run?</p>
  </div>","21","html-slider-response","55","734539","0.0-5.0-1.9","169","1","2025-07-23 07:07:42","1f75c3e559b7213887762d5229550c2b","41.150.227.71","Mozilla/5.0 (Windows NT 10.0; Win64; x64) AppleWebKit/537.36 (KHTML, like Gecko) Chrome/138.0.0.0 Safari/537.36","WebKit","Chrome","138.0.0.0","Windows","10.0","https://app.prolific.com/","en-ZA,en-GB;q=0.9,en-US;q=0.8,en;q=0.7","5a9aa66a35237b000112937b","683db9eb0562dbf637994deb","68808a251d842e76fb22ebae","2","1","5a9aa66a35237b000112937b","2","1","2025-07-23T07:19:59.389Z","","","","","","","","","","","AttribQ","","50","","","","","","","","","","","","","","","","","","","","","","","","","","","","",""
"4286","","<div style=""width:500px;"">
  <p>How much control did you have over the ball?</p>
  </div>","0","html-slider-response","56","738827","0.0-5.0-2.9","169","1","2025-07-23 07:07:42","1f75c3e559b7213887762d5229550c2b","41.150.227.71","Mozilla/5.0 (Windows NT 10.0; Win64; x64) AppleWebKit/537.36 (KHTML, like Gecko) Chrome/138.0.0.0 Safari/537.36","WebKit","Chrome","138.0.0.0","Windows","10.0","https://app.prolific.com/","en-ZA,en-GB;q=0.9,en-US;q=0.8,en;q=0.7","5a9aa66a35237b000112937b","683db9eb0562dbf637994deb","68808a251d842e76fb22ebae","2","1","5a9aa66a35237b000112937b","2","1","2025-07-23T07:20:03.677Z","","","","","","","","","","","ControlQ","","50","","","","","","","","","","","","","","","","","","","","","","","","","","","","",""
"3007","","<div style=""width:500px;"">
  <p>How would you describe your current emotional state?</p>
  </div>","0","html-slider-response","57","741835","0.0-5.0-3.9","169","1","2025-07-23 07:07:42","1f75c3e559b7213887762d5229550c2b","41.150.227.71","Mozilla/5.0 (Windows NT 10.0; Win64; x64) AppleWebKit/537.36 (KHTML, like Gecko) Chrome/138.0.0.0 Safari/537.36","WebKit","Chrome","138.0.0.0","Windows","10.0","https://app.prolific.com/","en-ZA,en-GB;q=0.9,en-US;q=0.8,en;q=0.7","5a9aa66a35237b000112937b","683db9eb0562dbf637994deb","68808a251d842e76fb22ebae","2","1","5a9aa66a35237b000112937b","2","1","2025-07-23T07:20:06.685Z","","","","","","","","","","","StressQ","","50","","","","","","","","","","","","","","","","","","","","","","","","","","","","",""
"2429","","<div style=""width:500px;"">
  <p>What best describes how you currently feel?</p>
  </div>","100","html-slider-response","58","744266","0.0-5.0-4.9","169","1","2025-07-23 07:07:42","1f75c3e559b7213887762d5229550c2b","41.150.227.71","Mozilla/5.0 (Windows NT 10.0; Win64; x64) AppleWebKit/537.36 (KHTML, like Gecko) Chrome/138.0.0.0 Safari/537.36","WebKit","Chrome","138.0.0.0","Windows","10.0","https://app.prolific.com/","en-ZA,en-GB;q=0.9,en-US;q=0.8,en;q=0.7","5a9aa66a35237b000112937b","683db9eb0562dbf637994deb","68808a251d842e76fb22ebae","2","1","5a9aa66a35237b000112937b","2","1","2025-07-23T07:20:09.116Z","","","","","","","","","","","MotivationQ","","50","","","","","","","","","","","","","","","","","","","","","","","","","","","","",""
"","","","","ctl-task-cpt","59","789330","0.0-5.0-0.10","169","1","2025-07-23 07:07:42","1f75c3e559b7213887762d5229550c2b","41.150.227.71","Mozilla/5.0 (Windows NT 10.0; Win64; x64) AppleWebKit/537.36 (KHTML, like Gecko) Chrome/138.0.0.0 Safari/537.36","WebKit","Chrome","138.0.0.0","Windows","10.0","https://app.prolific.com/","en-ZA,en-GB;q=0.9,en-US;q=0.8,en;q=0.7","5a9aa66a35237b000112937b","683db9eb0562dbf637994deb","68808a251d842e76fb22ebae","2","1","5a9aa66a35237b000112937b","2","1","2025-07-23T07:20:54.180Z","","","","","","","","","","","","","","win-only","0","g1:NW,g2:SE","0.5","11","0","748169","1094","6096.1","42048.9","1","4","4","6","1","-1","-1","7","8","0.05303030303030303","1735.8","3000","-2295","[""left"",""up""]","{""num_key_presses"":10,""num_perfect"":5,""num_errors"":0,""num_randdir"":5,""num_randdir_good_moves"":0,""num_whilered"":0,""num_whileblue"":0,""num_blue"":2,""num_good_moves"":5}","[426.5714133126395,417.82142761775424,0.4,426.5714133126395,417.82142761775424,100.9,426.5714133126395,417.82142761775424,203.5,426.5714133126395,417.82142761775424,309,426.5714133126395,417.82142761775424,418.8,426.5714133126395,417.82142761775424,519.4,426.5714133126395,417.82142761775424,619.7,426.5714133126395,417.82142761775424,735.4,426.5714133126395,417.82142761775424,837.7,426.5714133126395,417.82142761775424,943.5,426.5714133126395,417.82142761775424,1046.6,429.0714133126395,416.57142761775424,1146.8,285.3214133126395,272.82142761775424,1252.5,196.5714133126395,186.57142761775424,1359.7,107.8214133126395,161.57142761775424,1463.4,104.0714133126395,156.57142761775424,1568.5,97.8214133126395,65.32142761775425,1675.6,97.8214133126395,51.57142761775425,1778.6,97.8214133126395,51.57142761775425,1880.5,97.8214133126395,54.07142761775425,1989.9,97.8214133126395,54.07142761775425,2090.3,97.8214133126395,54.07142761775425,2198.4,97.8214133126395,54.07142761775425,2302.4,97.8214133126395,54.07142761775425,2410.2,97.8214133126395,54.07142761775425,2510.7,97.8214133126395,54.07142761775425,2619.6,97.8214133126395,54.07142761775425,2725.9,97.8214133126395,54.07142761775425,2826.5,97.8214133126395,54.07142761775425,2930,97.8214133126395,54.07142761775425,3035.1,97.8214133126395,54.07142761775425,3136.6,97.8214133126395,54.07142761775425,3237.5,97.8214133126395,54.07142761775425,3342.4,97.8214133126395,54.07142761775425,3442.5,97.8214133126395,54.07142761775425,3549.4,97.8214133126395,54.07142761775425,3652.6,97.8214133126395,54.07142761775425,3758,97.8214133126395,54.07142761775425,3864.1,97.8214133126395,54.07142761775425,3969.1,97.8214133126395,54.07142761775425,4077.2,97.8214133126395,54.07142761775425,4181.4,97.8214133126395,54.07142761775425,4289,97.8214133126395,54.07142761775425,4393.6,97.8214133126395,54.07142761775425,4495,97.8214133126395,54.07142761775425,4599.8,97.8214133126395,54.07142761775425,4701.3,97.8214133126395,54.07142761775425,4802.2,97.8214133126395,54.07142761775425,4906.7]","[7977.8,7977.8,2162.9,5385.7,429.2,""oops"",""up"",""right"",""bad_move"",11030,3051.7,2621.3,7978.3,430.4,""oops"",""up"",""right"",""bad_move"",14227.7,3197.3,2794.3,11030.4,403,""smooth"",""up"",""up"",""good_move"",16913.1,2684.9,2328.4,14228.2,356.6,""smooth"",""up"",""up"",""good_move"",19715.6,2802.2,2419.4,16913.4,382.8,""smooth"",""left"",""left"",""good_move"",22513,2796.8,2428.4,19716.2,368.4,""smooth"",""left"",""left"",""good_move"",24753.5,2240.3,1794.3,22513.3,445.9,""oops"",""left"",""right"",""bad_move"",27765.6,3011.7,2623,24753.9,388.7,""smooth"",""left"",""left"",""good_move"",30847.6,3081.8,2705.4,27765.8,376.4,""oops"",""left"",""right"",""bad_move"",33353.4,2504.9,1965.2,30848.5,539.7,""oops"",""left"",""right"",""bad_move""]","",""
"3401","","<div style=""width:500px;"">
  <p>What determined the result of this run?</p>
  </div>","10","html-slider-response","60","792733","0.0-5.0-1.10","169","1","2025-07-23 07:07:42","1f75c3e559b7213887762d5229550c2b","41.150.227.71","Mozilla/5.0 (Windows NT 10.0; Win64; x64) AppleWebKit/537.36 (KHTML, like Gecko) Chrome/138.0.0.0 Safari/537.36","WebKit","Chrome","138.0.0.0","Windows","10.0","https://app.prolific.com/","en-ZA,en-GB;q=0.9,en-US;q=0.8,en;q=0.7","5a9aa66a35237b000112937b","683db9eb0562dbf637994deb","68808a251d842e76fb22ebae","2","1","5a9aa66a35237b000112937b","2","1","2025-07-23T07:20:57.583Z","","","","","","","","","","","AttribQ","","50","","","","","","","","","","","","","","","","","","","","","","","","","","","","",""
"3518","","<div style=""width:500px;"">
  <p>How much control did you have over the ball?</p>
  </div>","0","html-slider-response","61","796252","0.0-5.0-2.10","169","1","2025-07-23 07:07:42","1f75c3e559b7213887762d5229550c2b","41.150.227.71","Mozilla/5.0 (Windows NT 10.0; Win64; x64) AppleWebKit/537.36 (KHTML, like Gecko) Chrome/138.0.0.0 Safari/537.36","WebKit","Chrome","138.0.0.0","Windows","10.0","https://app.prolific.com/","en-ZA,en-GB;q=0.9,en-US;q=0.8,en;q=0.7","5a9aa66a35237b000112937b","683db9eb0562dbf637994deb","68808a251d842e76fb22ebae","2","1","5a9aa66a35237b000112937b","2","1","2025-07-23T07:21:01.102Z","","","","","","","","","","","ControlQ","","50","","","","","","","","","","","","","","","","","","","","","","","","","","","","",""
"2582","","<div style=""width:500px;"">
  <p>How would you describe your current emotional state?</p>
  </div>","0","html-slider-response","62","798836","0.0-5.0-3.10","169","1","2025-07-23 07:07:42","1f75c3e559b7213887762d5229550c2b","41.150.227.71","Mozilla/5.0 (Windows NT 10.0; Win64; x64) AppleWebKit/537.36 (KHTML, like Gecko) Chrome/138.0.0.0 Safari/537.36","WebKit","Chrome","138.0.0.0","Windows","10.0","https://app.prolific.com/","en-ZA,en-GB;q=0.9,en-US;q=0.8,en;q=0.7","5a9aa66a35237b000112937b","683db9eb0562dbf637994deb","68808a251d842e76fb22ebae","2","1","5a9aa66a35237b000112937b","2","1","2025-07-23T07:21:03.687Z","","","","","","","","","","","StressQ","","50","","","","","","","","","","","","","","","","","","","","","","","","","","","","",""
"2390","","<div style=""width:500px;"">
  <p>What best describes how you currently feel?</p>
  </div>","100","html-slider-response","63","801228","0.0-5.0-4.10","169","1","2025-07-23 07:07:42","1f75c3e559b7213887762d5229550c2b","41.150.227.71","Mozilla/5.0 (Windows NT 10.0; Win64; x64) AppleWebKit/537.36 (KHTML, like Gecko) Chrome/138.0.0.0 Safari/537.36","WebKit","Chrome","138.0.0.0","Windows","10.0","https://app.prolific.com/","en-ZA,en-GB;q=0.9,en-US;q=0.8,en;q=0.7","5a9aa66a35237b000112937b","683db9eb0562dbf637994deb","68808a251d842e76fb22ebae","2","1","5a9aa66a35237b000112937b","2","1","2025-07-23T07:21:06.078Z","","","","","","","","","","","MotivationQ","","50","","","","","","","","","","","","","","","","","","","","","","","","","","","","",""
"","","","","ctl-task-cpt","64","852502","0.0-5.0-0.11","169","1","2025-07-23 07:07:42","1f75c3e559b7213887762d5229550c2b","41.150.227.71","Mozilla/5.0 (Windows NT 10.0; Win64; x64) AppleWebKit/537.36 (KHTML, like Gecko) Chrome/138.0.0.0 Safari/537.36","WebKit","Chrome","138.0.0.0","Windows","10.0","https://app.prolific.com/","en-ZA,en-GB;q=0.9,en-US;q=0.8,en;q=0.7","5a9aa66a35237b000112937b","683db9eb0562dbf637994deb","68808a251d842e76fb22ebae","2","1","5a9aa66a35237b000112937b","2","1","2025-07-23T07:21:57.353Z","","","","","","","","","","","","","","win-only","1","g1:NE,g2:SW","0.6","12","0","805131","1117","6125.7","48251.7","1","4","8","6","2","8","8","15","7","0.11363636363636363","1464.4","3000","705","[""down"",""left""]","{""num_key_presses"":8,""num_perfect"":5,""num_errors"":0,""num_randdir"":3,""num_randdir_good_moves"":2,""num_whilered"":0,""num_whileblue"":0,""num_blue"":6,""num_good_moves"":7}","[412.8214133126395,411.57142761775424,0.2,412.8214133126395,411.57142761775424,102.7,412.8214133126395,416.57142761775424,212.9,412.8214133126395,416.57142761775424,320.6,412.8214133126395,416.57142761775424,420.7,412.8214133126395,417.82142761775424,521.8,412.8214133126395,417.82142761775424,626,405.3214133126395,422.82142761775424,730.8,256.5714133126395,506.57142761775424,841.7,162.8214133126395,609.0714276177542,946.6,94.0714133126395,671.5714276177542,1050.6,86.5714133126395,680.3214276177542,1150.8,71.5714133126395,701.5714276177542,1253.5,67.8214133126395,716.5714276177542,1355.5,71.5714133126395,731.5714276177542,1461.6,71.5714133126395,731.5714276177542,1563.8,71.5714133126395,731.5714276177542,1665.3,109.0714133126395,726.5714276177542,1770,511.5714133126395,660.3214276177542,1876,1160.3214133126396,651.5714276177542,1981.9,1156.5714133126396,709.0714276177542,2085.4,1145.3214133126396,721.5714276177542,2195.8,1145.3214133126396,721.5714276177542,2296.1,1145.3214133126396,721.5714276177542,2397,1145.3214133126396,721.5714276177542,2500.5,1145.3214133126396,721.5714276177542,2601.3,1145.3214133126396,721.5714276177542,2702,1145.3214133126396,721.5714276177542,2812.6,1145.3214133126396,721.5714276177542,2922.1,1145.3214133126396,721.5714276177542,3029.3,1145.3214133126396,721.5714276177542,3129.8,1145.3214133126396,721.5714276177542,3230.6,1145.3214133126396,721.5714276177542,3336,1145.3214133126396,721.5714276177542,3437.5,1145.3214133126396,721.5714276177542,3547.7,1145.3214133126396,721.5714276177542,3648.7,1145.3214133126396,721.5714276177542,3752.7,1145.3214133126396,721.5714276177542,3860.9,1145.3214133126396,721.5714276177542,3964.7,1145.3214133126396,721.5714276177542,4067.7,1145.3214133126396,721.5714276177542,4179.8,1145.3214133126396,721.5714276177542,4287.8,1145.3214133126396,721.5714276177542,4389.5,1145.3214133126396,721.5714276177542,4490.1,1145.3214133126396,721.5714276177542,4595.4,1145.3214133126396,721.5714276177542,4709.5,1145.3214133126396,721.5714276177542,4821.1,1145.3214133126396,721.5714276177542,4927.8]","[1553.3,1553.3,1000,0,553.3,""oops"",""down"",""down"",""good_move"",4091.1,2537.2,2104.4,1553.9,432.8,""smooth"",""down"",""down"",""good_move"",7472.1,3380.6,2995,4091.6,385.6,""oops"",""down"",""down"",""good_move"",10658.5,3186.1,2749.8,7472.4,436.3,""smooth"",""left"",""left"",""good_move"",13383.7,2724.7,2322.4,10659,402.3,""oops"",""left"",""up"",""bad_move"",25844.4,12460,1799.3,23546.4,498.7,""smooth"",""left"",""left"",""good_move"",35304.8,9459.6,2718,32128.2,458.6,""smooth"",""left"",""left"",""good_move"",41996.9,6691.7,2519.4,39068.5,409,""smooth"",""down"",""down"",""good_move""]","",""
"3198","","<div style=""width:500px;"">
  <p>What determined the result of this run?</p>
  </div>","100","html-slider-response","65","855702","0.0-5.0-1.11","169","1","2025-07-23 07:07:42","1f75c3e559b7213887762d5229550c2b","41.150.227.71","Mozilla/5.0 (Windows NT 10.0; Win64; x64) AppleWebKit/537.36 (KHTML, like Gecko) Chrome/138.0.0.0 Safari/537.36","WebKit","Chrome","138.0.0.0","Windows","10.0","https://app.prolific.com/","en-ZA,en-GB;q=0.9,en-US;q=0.8,en;q=0.7","5a9aa66a35237b000112937b","683db9eb0562dbf637994deb","68808a251d842e76fb22ebae","2","1","5a9aa66a35237b000112937b","2","1","2025-07-23T07:22:00.552Z","","","","","","","","","","","AttribQ","","50","","","","","","","","","","","","","","","","","","","","","","","","","","","","",""
"2342","","<div style=""width:500px;"">
  <p>How much control did you have over the ball?</p>
  </div>","100","html-slider-response","66","858046","0.0-5.0-2.11","169","1","2025-07-23 07:07:42","1f75c3e559b7213887762d5229550c2b","41.150.227.71","Mozilla/5.0 (Windows NT 10.0; Win64; x64) AppleWebKit/537.36 (KHTML, like Gecko) Chrome/138.0.0.0 Safari/537.36","WebKit","Chrome","138.0.0.0","Windows","10.0","https://app.prolific.com/","en-ZA,en-GB;q=0.9,en-US;q=0.8,en;q=0.7","5a9aa66a35237b000112937b","683db9eb0562dbf637994deb","68808a251d842e76fb22ebae","2","1","5a9aa66a35237b000112937b","2","1","2025-07-23T07:22:02.896Z","","","","","","","","","","","ControlQ","","50","","","","","","","","","","","","","","","","","","","","","","","","","","","","",""
"3063","","<div style=""width:500px;"">
  <p>How would you describe your current emotional state?</p>
  </div>","0","html-slider-response","67","861110","0.0-5.0-3.11","169","1","2025-07-23 07:07:42","1f75c3e559b7213887762d5229550c2b","41.150.227.71","Mozilla/5.0 (Windows NT 10.0; Win64; x64) AppleWebKit/537.36 (KHTML, like Gecko) Chrome/138.0.0.0 Safari/537.36","WebKit","Chrome","138.0.0.0","Windows","10.0","https://app.prolific.com/","en-ZA,en-GB;q=0.9,en-US;q=0.8,en;q=0.7","5a9aa66a35237b000112937b","683db9eb0562dbf637994deb","68808a251d842e76fb22ebae","2","1","5a9aa66a35237b000112937b","2","1","2025-07-23T07:22:05.960Z","","","","","","","","","","","StressQ","","50","","","","","","","","","","","","","","","","","","","","","","","","","","","","",""
"2070","","<div style=""width:500px;"">
  <p>What best describes how you currently feel?</p>
  </div>","100","html-slider-response","68","863182","0.0-5.0-4.11","169","1","2025-07-23 07:07:42","1f75c3e559b7213887762d5229550c2b","41.150.227.71","Mozilla/5.0 (Windows NT 10.0; Win64; x64) AppleWebKit/537.36 (KHTML, like Gecko) Chrome/138.0.0.0 Safari/537.36","WebKit","Chrome","138.0.0.0","Windows","10.0","https://app.prolific.com/","en-ZA,en-GB;q=0.9,en-US;q=0.8,en;q=0.7","5a9aa66a35237b000112937b","683db9eb0562dbf637994deb","68808a251d842e76fb22ebae","2","1","5a9aa66a35237b000112937b","2","1","2025-07-23T07:22:08.032Z","","","","","","","","","","","MotivationQ","","50","","","","","","","","","","","","","","","","","","","","","","","","","","","","",""
"","","","","ctl-task-cpt","69","899907","0.0-5.0-0.12","169","1","2025-07-23 07:07:42","1f75c3e559b7213887762d5229550c2b","41.150.227.71","Mozilla/5.0 (Windows NT 10.0; Win64; x64) AppleWebKit/537.36 (KHTML, like Gecko) Chrome/138.0.0.0 Safari/537.36","WebKit","Chrome","138.0.0.0","Windows","10.0","https://app.prolific.com/","en-ZA,en-GB;q=0.9,en-US;q=0.8,en;q=0.7","5a9aa66a35237b000112937b","683db9eb0562dbf637994deb","68808a251d842e76fb22ebae","2","1","5a9aa66a35237b000112937b","2","1","2025-07-23T07:22:44.757Z","","","","","","","","","","","","","","win-only","1","g1:NE,g2:SW","0.7","13","0","867085.1","1023.7","6035.5","33693.6","1","4","4","6","2","4","4","19","15","0.14393939393939395","1205.6","3000","905","[""down"",""left""]","{""num_key_presses"":8,""num_perfect"":7,""num_errors"":0,""num_randdir"":1,""num_randdir_good_moves"":0,""num_whilered"":0,""num_whileblue"":0,""num_blue"":2,""num_good_moves"":7}","[407.8214133126395,414.07142761775424,0.4,407.8214133126395,414.07142761775424,111.7,407.8214133126395,414.07142761775424,213.2,407.8214133126395,414.07142761775424,318.5,407.8214133126395,414.07142761775424,429.8,407.8214133126395,414.07142761775424,533.8,360.3214133126395,455.32142761775424,633.9,275.3214133126395,605.3214276177542,734.4,246.5714133126395,712.8214276177542,840.3,134.0714133126395,780.3214276177542,944.7,134.0714133126395,780.3214276177542,1050.3,127.8214133126395,772.8214276177542,1152.4,126.5714133126395,766.5714276177542,1252.8,126.5714133126395,766.5714276177542,1353.1,126.5714133126395,765.3214276177542,1453.3,134.0714133126395,761.5714276177542,1553.6,134.0714133126395,761.5714276177542,1664.2,134.0714133126395,761.5714276177542,1767.8,134.0714133126395,761.5714276177542,1869.8,134.0714133126395,761.5714276177542,1973.6,134.0714133126395,761.5714276177542,2077.5,134.0714133126395,761.5714276177542,2178.4,134.0714133126395,761.5714276177542,2279.7,134.0714133126395,761.5714276177542,2385.9,134.0714133126395,761.5714276177542,2486.1,134.0714133126395,761.5714276177542,2596.7,134.0714133126395,761.5714276177542,2696.7,134.0714133126395,761.5714276177542,2803.2,134.0714133126395,761.5714276177542,2914.1,134.0714133126395,761.5714276177542,3028.6,134.0714133126395,761.5714276177542,3133.9,134.0714133126395,761.5714276177542,3238.5,134.0714133126395,761.5714276177542,3346.8,134.0714133126395,761.5714276177542,3452.4,134.0714133126395,761.5714276177542,3553.2,134.0714133126395,761.5714276177542,3653.7,134.0714133126395,761.5714276177542,3757.1,134.0714133126395,761.5714276177542,3859.8,134.0714133126395,761.5714276177542,3963.8,134.0714133126395,761.5714276177542,4065.8,134.0714133126395,761.5714276177542,4177.6,134.0714133126395,761.5714276177542,4277.7,134.0714133126395,761.5714276177542,4379.1,134.0714133126395,761.5714276177542,4481.8,134.0714133126395,761.5714276177542,4595,134.0714133126395,761.5714276177542,4696.1,134.0714133126395,761.5714276177542,4796.5,134.0714133126395,761.5714276177542,4900.5]","[1429.2,1429.2,1000,0,429.2,""smooth"",""down"",""down"",""good_move"",4154.3,2724.3,2351.8,1430,372.5,""smooth"",""down"",""down"",""good_move"",6857.2,2702.3,2312.9,4154.9,389.4,""smooth"",""down"",""down"",""good_move"",9431.2,2573.6,2164,6857.6,409.6,""smooth"",""left"",""left"",""good_move"",12399.7,2968.1,2547.4,9431.6,420.7,""smooth"",""left"",""left"",""good_move"",16064.9,3664.7,3224.2,12400.2,440.5,""oops"",""left"",""up"",""bad_move"",18529.3,2463.2,2044,16066.1,419.2,""smooth"",""down"",""down"",""good_move"",27516.4,8986.7,2241.1,24870.1,405.2,""smooth"",""left"",""left"",""good_move""]","",""
"2892","","<div style=""width:500px;"">
  <p>What determined the result of this run?</p>
  </div>","100","html-slider-response","70","902799","0.0-5.0-1.12","169","1","2025-07-23 07:07:42","1f75c3e559b7213887762d5229550c2b","41.150.227.71","Mozilla/5.0 (Windows NT 10.0; Win64; x64) AppleWebKit/537.36 (KHTML, like Gecko) Chrome/138.0.0.0 Safari/537.36","WebKit","Chrome","138.0.0.0","Windows","10.0","https://app.prolific.com/","en-ZA,en-GB;q=0.9,en-US;q=0.8,en;q=0.7","5a9aa66a35237b000112937b","683db9eb0562dbf637994deb","68808a251d842e76fb22ebae","2","1","5a9aa66a35237b000112937b","2","1","2025-07-23T07:22:47.649Z","","","","","","","","","","","AttribQ","","50","","","","","","","","","","","","","","","","","","","","","","","","","","","","",""
"2623","","<div style=""width:500px;"">
  <p>How much control did you have over the ball?</p>
  </div>","97","html-slider-response","71","905424","0.0-5.0-2.12","169","1","2025-07-23 07:07:42","1f75c3e559b7213887762d5229550c2b","41.150.227.71","Mozilla/5.0 (Windows NT 10.0; Win64; x64) AppleWebKit/537.36 (KHTML, like Gecko) Chrome/138.0.0.0 Safari/537.36","WebKit","Chrome","138.0.0.0","Windows","10.0","https://app.prolific.com/","en-ZA,en-GB;q=0.9,en-US;q=0.8,en;q=0.7","5a9aa66a35237b000112937b","683db9eb0562dbf637994deb","68808a251d842e76fb22ebae","2","1","5a9aa66a35237b000112937b","2","1","2025-07-23T07:22:50.274Z","","","","","","","","","","","ControlQ","","50","","","","","","","","","","","","","","","","","","","","","","","","","","","","",""
"2398","","<div style=""width:500px;"">
  <p>How would you describe your current emotional state?</p>
  </div>","0","html-slider-response","72","907824","0.0-5.0-3.12","169","1","2025-07-23 07:07:42","1f75c3e559b7213887762d5229550c2b","41.150.227.71","Mozilla/5.0 (Windows NT 10.0; Win64; x64) AppleWebKit/537.36 (KHTML, like Gecko) Chrome/138.0.0.0 Safari/537.36","WebKit","Chrome","138.0.0.0","Windows","10.0","https://app.prolific.com/","en-ZA,en-GB;q=0.9,en-US;q=0.8,en;q=0.7","5a9aa66a35237b000112937b","683db9eb0562dbf637994deb","68808a251d842e76fb22ebae","2","1","5a9aa66a35237b000112937b","2","1","2025-07-23T07:22:52.674Z","","","","","","","","","","","StressQ","","50","","","","","","","","","","","","","","","","","","","","","","","","","","","","",""
"2086","","<div style=""width:500px;"">
  <p>What best describes how you currently feel?</p>
  </div>","100","html-slider-response","73","909912","0.0-5.0-4.12","169","1","2025-07-23 07:07:42","1f75c3e559b7213887762d5229550c2b","41.150.227.71","Mozilla/5.0 (Windows NT 10.0; Win64; x64) AppleWebKit/537.36 (KHTML, like Gecko) Chrome/138.0.0.0 Safari/537.36","WebKit","Chrome","138.0.0.0","Windows","10.0","https://app.prolific.com/","en-ZA,en-GB;q=0.9,en-US;q=0.8,en;q=0.7","5a9aa66a35237b000112937b","683db9eb0562dbf637994deb","68808a251d842e76fb22ebae","2","1","5a9aa66a35237b000112937b","2","1","2025-07-23T07:22:54.762Z","","","","","","","","","","","MotivationQ","","50","","","","","","","","","","","","","","","","","","","","","","","","","","","","",""
