"rt","response_timestamp","stimulus","response","trial_type","trial_index","time_elapsed","internal_node_id","run_id","condition","recorded_at","source_code_version","ip","user_agent","device","browser","browser_version","platform","platform_version","referer","accept_language","PROLIFIC_PID","STUDY_ID","SESSION_ID","WEEK","BATCH","prolific_id","week","batch","realtime","success","responses","item_order","radio_event_ids","radio_event_times","key_event_times","mouse_event_times","straightlining","zigzagging","honeypot","eventType","view_history","slider_start","which_type","canvas_config","goals_layout","control_level","trial_number","tutorial_trial_number","trial_start_time","phase1_start_time","phase2_start_time","phase3_start_time","goal_1_value","goal_1_distance","goal_2_value","goal_2_distance","goal_selected","outcome","outcome_total","participant_final_score","participant_initial_score","participant_final_score_prop","goal_choice_rt","allocated_time","allocated_time_remaining","goal_direction","counts","mouse_movements","key_presses","question_order","question_id"
"3072","1753252679512","<p style='font-size:40px;line-height:1.25'><strong>Welcome to the experiment!</strong></p><p style='font-size:1.1em;line-height:1.25'>Thank you for participanting in our experiment again! You will be asked to play the Dysfunctional Ball Game again. We will briefly recap the rules before we start.</p><p style='font-size:1.1em;line-height:1.25'>Press <strong>Next</strong> to continue.</p>","0","custom-html-button-response","0","3076","0.0-0.0","156","1","2025-07-23 06:37:53","1f75c3e559b7213887762d5229550c2b","216.120.189.41","Mozilla/5.0 (Windows NT 10.0; Win64; x64) AppleWebKit/537.36 (KHTML, like Gecko) Chrome/138.0.0.0 Safari/537.36","WebKit","Chrome","138.0.0.0","Windows","10.0","https://app.prolific.com/","en-US,en;q=0.9","6743c8da977b0d274dad1fc2","683db9eb0562dbf637994deb","68808146c5486920aa5cf889","2","1","6743c8da977b0d274dad1fc2","2","1","2025-07-23T06:37:59.513Z","","","","","","","","","","","","","","","","","","","","","","","","","","","","","","","","","","","","","","","","","",""
"1412","","","","fullscreen","1","5495","0.0-1.0","156","1","2025-07-23 06:37:53","1f75c3e559b7213887762d5229550c2b","216.120.189.41","Mozilla/5.0 (Windows NT 10.0; Win64; x64) AppleWebKit/537.36 (KHTML, like Gecko) Chrome/138.0.0.0 Safari/537.36","WebKit","Chrome","138.0.0.0","Windows","10.0","https://app.prolific.com/","en-US,en;q=0.9","6743c8da977b0d274dad1fc2","683db9eb0562dbf637994deb","68808146c5486920aa5cf889","2","1","6743c8da977b0d274dad1fc2","2","1","","true","","","","","","","","","","","","","","","","","","","","","","","","","","","","","","","","","","","","","","","","",""
"3069","1753252685002","<p style='font-size:1.1em;line-height:1.25'>In the following, we will ask you a few questions relating to your feelings in the last 24 hours.<br></p><p style='font-size:1.1em;line-height:1.25'>Press the <strong>Next</strong> button to continue.</p>","0","custom-html-button-response","2","8566","0.0-2.0-0.0","156","1","2025-07-23 06:37:53","1f75c3e559b7213887762d5229550c2b","216.120.189.41","Mozilla/5.0 (Windows NT 10.0; Win64; x64) AppleWebKit/537.36 (KHTML, like Gecko) Chrome/138.0.0.0 Safari/537.36","WebKit","Chrome","138.0.0.0","Windows","10.0","https://app.prolific.com/","en-US,en;q=0.9","6743c8da977b0d274dad1fc2","683db9eb0562dbf637994deb","68808146c5486920aa5cf889","2","1","6743c8da977b0d274dad1fc2","2","1","2025-07-23T06:38:05.003Z","","","","","","","","","","","","","","","","","","","","","","","","","","","","","","","","","","","","","","","","","",""
"63783.29999999702","","","","survey-template","3","72354","0.0-2.0-1.0","156","1","2025-07-23 06:37:53","1f75c3e559b7213887762d5229550c2b","216.120.189.41","Mozilla/5.0 (Windows NT 10.0; Win64; x64) AppleWebKit/537.36 (KHTML, like Gecko) Chrome/138.0.0.0 Safari/537.36","WebKit","Chrome","138.0.0.0","Windows","10.0","https://app.prolific.com/","en-US,en;q=0.9","6743c8da977b0d274dad1fc2","683db9eb0562dbf637994deb","68808146c5486920aa5cf889","2","1","6743c8da977b0d274dad1fc2","2","1","2025-07-23T06:39:08.791Z","","{""Q01"":""0"",""Q02"":""0"",""Q03"":""0"",""Q04"":""0"",""Q05"":""0"",""Q06"":""0"",""Q07"":""1"",""Q08"":""0"",""Q09"":""0"",""Q10"":""0"",""Q11"":""0"",""Q12"":""0"",""Q13"":""5"",""Q14"":""2"",""Q15"":""0"",""Q16"":""0"",""Q17"":""0"",""Q18"":""0"",""Q19"":""0"",""Q20"":""0"",""Q21"":""0"",""Q22"":""0""}","[0,1,2,3,4,5,6,7,8,9,10,11,12,13,14,15,16,17,18,19,20,21]","[""Q02"",""Q01"",""Q03"",""Q04"",""Q05"",""Q06"",""Q07"",""Q07"",""Q08"",""Q09"",""Q10"",""Q11"",""Q12"",""Q13"",""Q14"",""Q15"",""Q16"",""Q17"",""Q18"",""Q19"",""Q20"",""Q21"",""Q22""]","[4801.20000000298,6054.29999999702,7737,9258.10000000894,11243.20000000298,15593.10000000894,16905.60000000894,19484,21489.29999999702,24573,25868.70000000298,28759,30032.20000000298,34336.90000000596,38563.79999999702,42422,43854.10000000894,45221.60000000894,46450,53587.60000000894,55533.5,57094.10000000894,60957.70000000298]","[]","[0.10000000894069672,3688.7000000029802,4801.20000000298,6054.29999999702,7737,9258.10000000894,11243.20000000298,12471.10000000894,15593.10000000894,16905.60000000894,19484,21489.29999999702,24573,25868.70000000298,28759,30032.20000000298,33362.29999999702,34336.90000000596,38563.79999999702,42422,43854.10000000894,45221.60000000894,46450,53587.60000000894,55533.5,57094.10000000894,60957.70000000298,63776.70000000298]","0.8636363636363636","0.14285714285714285","0","drsp","","","","","","","","","","","","","","","","","","","","","","","","","","","","","","",""
"11816.800000011921","","","","survey-template","4","84172","0.0-2.0-2.0","156","1","2025-07-23 06:37:53","1f75c3e559b7213887762d5229550c2b","216.120.189.41","Mozilla/5.0 (Windows NT 10.0; Win64; x64) AppleWebKit/537.36 (KHTML, like Gecko) Chrome/138.0.0.0 Safari/537.36","WebKit","Chrome","138.0.0.0","Windows","10.0","https://app.prolific.com/","en-US,en;q=0.9","6743c8da977b0d274dad1fc2","683db9eb0562dbf637994deb","68808146c5486920aa5cf889","2","1","6743c8da977b0d274dad1fc2","2","1","2025-07-23T06:39:20.609Z","","{""Q01"":""0"",""Q02"":""5"",""Q03"":""0""}","[0,1,2]","[""Q01"",""Q02"",""Q03""]","[2859.9000000059605,7134.5,9920.800000011921]","[]","[2859.9000000059605,7134.5,9920.800000011921,11815.70000000298]","1","0","0","stress","","","","","","","","","","","","","","","","","","","","","","","","","","","","","","",""
"4422","","","","instructions","5","88596","0.0-3.0-0.0","156","1","2025-07-23 06:37:53","1f75c3e559b7213887762d5229550c2b","216.120.189.41","Mozilla/5.0 (Windows NT 10.0; Win64; x64) AppleWebKit/537.36 (KHTML, like Gecko) Chrome/138.0.0.0 Safari/537.36","WebKit","Chrome","138.0.0.0","Windows","10.0","https://app.prolific.com/","en-US,en;q=0.9","6743c8da977b0d274dad1fc2","683db9eb0562dbf637994deb","68808146c5486920aa5cf889","2","1","6743c8da977b0d274dad1fc2","2","1","","","","","","","","","","","","","[{""page_index"":0,""viewing_time"":4422}]","","","","","","","","","","","","","","","","","","","","","","","","","","","","","",""
"4670","","<p>Before you start with this game please answer the following three questions yourself. </p>
  <p>Through this game, we measure several aspects of your cognitive performance, such as reaction times, multi-tasking capabilities </p>
  <p>and the ability to assess the situation you are in.</p>
  <p></p>
  <p><b>How good do you usually are in such tasks?</b></p>","77","html-slider-response","6","93267","0.0-4.0-0.0","156","1","2025-07-23 06:37:53","1f75c3e559b7213887762d5229550c2b","216.120.189.41","Mozilla/5.0 (Windows NT 10.0; Win64; x64) AppleWebKit/537.36 (KHTML, like Gecko) Chrome/138.0.0.0 Safari/537.36","WebKit","Chrome","138.0.0.0","Windows","10.0","https://app.prolific.com/","en-US,en;q=0.9","6743c8da977b0d274dad1fc2","683db9eb0562dbf637994deb","68808146c5486920aa5cf889","2","1","6743c8da977b0d274dad1fc2","2","1","2025-07-23T06:39:29.704Z","","","","","","","","","","","PreSkillQ","","50","","","","","","","","","","","","","","","","","","","","","","","","","","","","",""
"5033","","<div style=""width:500px;"">
  <p>How well do you think you will perform in this task compared to other participants?</p>
  </div>","67","html-slider-response","7","98301","0.0-4.0-1.0","156","1","2025-07-23 06:37:53","1f75c3e559b7213887762d5229550c2b","216.120.189.41","Mozilla/5.0 (Windows NT 10.0; Win64; x64) AppleWebKit/537.36 (KHTML, like Gecko) Chrome/138.0.0.0 Safari/537.36","WebKit","Chrome","138.0.0.0","Windows","10.0","https://app.prolific.com/","en-US,en;q=0.9","6743c8da977b0d274dad1fc2","683db9eb0562dbf637994deb","68808146c5486920aa5cf889","2","1","6743c8da977b0d274dad1fc2","2","1","2025-07-23T06:39:34.738Z","","","","","","","","","","","PrePerfQ","","50","","","","","","","","","","","","","","","","","","","","","","","","","","","","",""
"4632","","<div style=""width:500px;"">
  <p>What best describes how you currently feel?</p>
  </div>","100","html-slider-response","8","102934","0.0-4.0-2.0","156","1","2025-07-23 06:37:53","1f75c3e559b7213887762d5229550c2b","216.120.189.41","Mozilla/5.0 (Windows NT 10.0; Win64; x64) AppleWebKit/537.36 (KHTML, like Gecko) Chrome/138.0.0.0 Safari/537.36","WebKit","Chrome","138.0.0.0","Windows","10.0","https://app.prolific.com/","en-US,en;q=0.9","6743c8da977b0d274dad1fc2","683db9eb0562dbf637994deb","68808146c5486920aa5cf889","2","1","6743c8da977b0d274dad1fc2","2","1","2025-07-23T06:39:39.371Z","","","","","","","","","","","PreMotivationQ","","50","","","","","","","","","","","","","","","","","","","","","","","","","","","","",""
"","","","","ctl-task-cpt","9","134255","0.0-5.0-0.0","156","1","2025-07-23 06:37:53","1f75c3e559b7213887762d5229550c2b","216.120.189.41","Mozilla/5.0 (Windows NT 10.0; Win64; x64) AppleWebKit/537.36 (KHTML, like Gecko) Chrome/138.0.0.0 Safari/537.36","WebKit","Chrome","138.0.0.0","Windows","10.0","https://app.prolific.com/","en-US,en;q=0.9","6743c8da977b0d274dad1fc2","683db9eb0562dbf637994deb","68808146c5486920aa5cf889","2","1","6743c8da977b0d274dad1fc2","2","1","2025-07-23T06:40:10.692Z","","","","","","","","","","","","","","win-only","3","g1:SW,g2:NE","1","1","0","106642.4","6191.3","11197.2","28315","1","4","4","6","2","4","4","4","0","0.030303030303030304","2190.5","3000","595","[""up"",""right""]","{""num_key_presses"":6,""num_perfect"":6,""num_errors"":0,""num_randdir"":0,""num_randdir_good_moves"":0,""num_whilered"":0,""num_whileblue"":0,""num_blue"":0,""num_good_moves"":6}","[261.896875,262.303125,2.7,261.896875,262.303125,100.9,261.896875,262.303125,204.8,261.896875,262.303125,310.2,261.896875,262.303125,414.3,261.896875,262.303125,514.3,261.896875,262.303125,615.6,261.896875,262.303125,721.2,261.896875,262.303125,830.7,261.896875,262.303125,934.2,261.896875,262.303125,1035,261.896875,262.303125,1139.8,264.896875,254.303125,1240,410.896875,66.303125,1344.8,413.896875,63.303125,1450.1,413.896875,63.303125,1555.2,414.896875,62.303125,1659.2,445.896875,54.303125,1760.4,453.896875,54.303125,1860.5,458.896875,54.303125,1960.5,458.896875,54.303125,2061.2,458.896875,54.303125,2164.9,458.896875,54.303125,2265.8,458.896875,54.303125,2370,458.896875,54.303125,2475.1,458.896875,54.303125,2580,458.896875,54.303125,2685.7,458.896875,54.303125,2785.7,458.896875,54.303125,2889.9,458.896875,54.303125,2990.2,458.896875,54.303125,3091,458.896875,54.303125,3195.3,458.896875,54.303125,3300.9,458.896875,54.303125,3401.7,458.896875,54.303125,3502.3,458.896875,54.303125,3605.1,458.896875,54.303125,3710.3,458.896875,54.303125,3814.5,458.896875,54.303125,3914.8,458.896875,54.303125,4015.1,458.896875,54.303125,4115.4,458.896875,54.303125,4222.8,458.896875,54.303125,4324.8,458.896875,54.303125,4426,458.896875,54.303125,4529.5,458.896875,54.303125,4630.1,458.896875,54.303125,4730.2,458.896875,54.303125,4835.8,458.896875,54.303125,4936]","[1647.3,1647.2,1000,0.2,647.1,""smooth"",""up"",""up"",""good_move"",4813.9,3165.8,2796.9,1648.2,368.8,""smooth"",""right"",""right"",""good_move"",8165.8,3351.4,3022.2,4814.4,329.2,""smooth"",""up"",""up"",""good_move"",11449.4,3283.1,2897.1,8166.3,386,""smooth"",""right"",""right"",""good_move"",14487.6,3037.3,2688.3,11450.3,349,""smooth"",""up"",""up"",""good_move"",17011.3,2523.5,2125.3,14487.9,398.1,""smooth"",""right"",""right"",""good_move""]","",""
"8102","","<div style=""width:500px;"">
  <p>What determined the result of this run?</p>
  </div>","100","html-slider-response","10","142359","0.0-5.0-1.0","156","1","2025-07-23 06:37:53","1f75c3e559b7213887762d5229550c2b","216.120.189.41","Mozilla/5.0 (Windows NT 10.0; Win64; x64) AppleWebKit/537.36 (KHTML, like Gecko) Chrome/138.0.0.0 Safari/537.36","WebKit","Chrome","138.0.0.0","Windows","10.0","https://app.prolific.com/","en-US,en;q=0.9","6743c8da977b0d274dad1fc2","683db9eb0562dbf637994deb","68808146c5486920aa5cf889","2","1","6743c8da977b0d274dad1fc2","2","1","2025-07-23T06:40:18.796Z","","","","","","","","","","","AttribQ","","50","","","","","","","","","","","","","","","","","","","","","","","","","","","","",""
"21426","","<div style=""width:500px;"">
  <p>How much control did you have over the ball?</p>
  </div>","100","html-slider-response","11","163786","0.0-5.0-2.0","156","1","2025-07-23 06:37:53","1f75c3e559b7213887762d5229550c2b","216.120.189.41","Mozilla/5.0 (Windows NT 10.0; Win64; x64) AppleWebKit/537.36 (KHTML, like Gecko) Chrome/138.0.0.0 Safari/537.36","WebKit","Chrome","138.0.0.0","Windows","10.0","https://app.prolific.com/","en-US,en;q=0.9","6743c8da977b0d274dad1fc2","683db9eb0562dbf637994deb","68808146c5486920aa5cf889","2","1","6743c8da977b0d274dad1fc2","2","1","2025-07-23T06:40:40.223Z","","","","","","","","","","","ControlQ","","50","","","","","","","","","","","","","","","","","","","","","","","","","","","","",""
"3439","","<div style=""width:500px;"">
  <p>How would you describe your current emotional state?</p>
  </div>","0","html-slider-response","12","167226","0.0-5.0-3.0","156","1","2025-07-23 06:37:53","1f75c3e559b7213887762d5229550c2b","216.120.189.41","Mozilla/5.0 (Windows NT 10.0; Win64; x64) AppleWebKit/537.36 (KHTML, like Gecko) Chrome/138.0.0.0 Safari/537.36","WebKit","Chrome","138.0.0.0","Windows","10.0","https://app.prolific.com/","en-US,en;q=0.9","6743c8da977b0d274dad1fc2","683db9eb0562dbf637994deb","68808146c5486920aa5cf889","2","1","6743c8da977b0d274dad1fc2","2","1","2025-07-23T06:40:43.664Z","","","","","","","","","","","StressQ","","50","","","","","","","","","","","","","","","","","","","","","","","","","","","","",""
"4071","","<div style=""width:500px;"">
  <p>What best describes how you currently feel?</p>
  </div>","100","html-slider-response","13","171298","0.0-5.0-4.0","156","1","2025-07-23 06:37:53","1f75c3e559b7213887762d5229550c2b","216.120.189.41","Mozilla/5.0 (Windows NT 10.0; Win64; x64) AppleWebKit/537.36 (KHTML, like Gecko) Chrome/138.0.0.0 Safari/537.36","WebKit","Chrome","138.0.0.0","Windows","10.0","https://app.prolific.com/","en-US,en;q=0.9","6743c8da977b0d274dad1fc2","683db9eb0562dbf637994deb","68808146c5486920aa5cf889","2","1","6743c8da977b0d274dad1fc2","2","1","2025-07-23T06:40:47.735Z","","","","","","","","","","","MotivationQ","","50","","","","","","","","","","","","","","","","","","","","","","","","","","","","",""
"","","","","ctl-task-cpt","14","216376","0.0-5.0-0.1","156","1","2025-07-23 06:37:53","1f75c3e559b7213887762d5229550c2b","216.120.189.41","Mozilla/5.0 (Windows NT 10.0; Win64; x64) AppleWebKit/537.36 (KHTML, like Gecko) Chrome/138.0.0.0 Safari/537.36","WebKit","Chrome","138.0.0.0","Windows","10.0","https://app.prolific.com/","en-US,en;q=0.9","6743c8da977b0d274dad1fc2","683db9eb0562dbf637994deb","68808146c5486920aa5cf889","2","1","6743c8da977b0d274dad1fc2","2","1","2025-07-23T06:41:32.813Z","","","","","","","","","","","","","","win-only","3","g1:SW,g2:NE","0.9","2","0","175006.4","1686.1","6696.8","42052.2","1","4","8","6","2","8","7","11","4","0.08333333333333333","5010.7","3000","505","[""up"",""right""]","{""num_key_presses"":8,""num_perfect"":7,""num_errors"":1,""num_randdir"":0,""num_randdir_good_moves"":0,""num_whilered"":0,""num_whileblue"":1,""num_blue"":5,""num_good_moves"":7}","[262.896875,262.303125,0.6,262.896875,262.303125,100.5,258.896875,257.303125,200.6,256.896875,255.303125,308.2,257.896875,257.303125,418.5,257.896875,257.303125,519.4,265.896875,259.303125,625.1,265.896875,259.303125,725.9,266.896875,259.303125,830.7,266.896875,259.303125,935,266.896875,259.303125,1035.2,245.896875,266.303125,1137,244.896875,266.303125,1243.1,244.896875,265.303125,1344.6,244.896875,265.303125,1452.2,244.896875,265.303125,1558.2,244.896875,265.303125,1666.3,244.896875,265.303125,1767.8,244.896875,265.303125,1873.9,244.896875,265.303125,1977.2,244.896875,265.303125,2080.3,244.896875,265.303125,2185.2,244.896875,265.303125,2285.8,244.896875,265.303125,2386.7,244.896875,265.303125,2494.9,244.896875,265.303125,2604,244.896875,265.303125,2710.4,244.896875,265.303125,2818.5,244.896875,265.303125,2924.4,244.896875,265.303125,3034.1,244.896875,265.303125,3135.6,157.896875,254.303125,3259.5,328.896875,286.303125,3362.4,393.896875,255.303125,3465.9,379.896875,240.303125,3569.6,439.896875,189.303125,3674.6,495.896875,125.303125,3780.7,508.896875,89.303125,3881.1,493.896875,83.303125,3984.8,476.896875,65.303125,4085.5,477.896875,53.303125,4186.3,477.896875,53.303125,4289.9,477.896875,53.303125,4391.9,477.896875,53.303125,4496.9,477.896875,53.303125,4600.1,477.896875,53.303125,4706.6,477.896875,53.303125,4816.9,477.896875,53.303125,4921]","[1412.5,1412.5,1000,0,412.5,""smooth"",""up"",""up"",""good_move"",4154.9,2740.7,2347.6,1414.3,393.1,""smooth"",""up"",""up"",""good_move"",6887.1,2731.4,2317,4155.9,414.5,""while_blue"",""right"",""down"",""bad_move"",9966.3,3077.6,2597.5,6888.7,480.1,""smooth"",""up"",""up"",""good_move"",19697.1,9729.5,2268.9,17050,378.2,""smooth"",""right"",""right"",""good_move"",25782.3,6084.2,2083.3,23274.1,424.9,""smooth"",""right"",""right"",""good_move"",29167.1,3384.2,2898.2,25782.9,486,""smooth"",""right"",""right"",""good_move"",35241.3,6073.3,2941.3,31810.1,490,""smooth"",""up"",""up"",""good_move""]","",""
"4174","","<div style=""width:500px;"">
  <p>What determined the result of this run?</p>
  </div>","100","html-slider-response","15","220555","0.0-5.0-1.1","156","1","2025-07-23 06:37:53","1f75c3e559b7213887762d5229550c2b","216.120.189.41","Mozilla/5.0 (Windows NT 10.0; Win64; x64) AppleWebKit/537.36 (KHTML, like Gecko) Chrome/138.0.0.0 Safari/537.36","WebKit","Chrome","138.0.0.0","Windows","10.0","https://app.prolific.com/","en-US,en;q=0.9","6743c8da977b0d274dad1fc2","683db9eb0562dbf637994deb","68808146c5486920aa5cf889","2","1","6743c8da977b0d274dad1fc2","2","1","2025-07-23T06:41:36.992Z","","","","","","","","","","","AttribQ","","50","","","","","","","","","","","","","","","","","","","","","","","","","","","","",""
"2406","","<div style=""width:500px;"">
  <p>How much control did you have over the ball?</p>
  </div>","100","html-slider-response","16","222962","0.0-5.0-2.1","156","1","2025-07-23 06:37:53","1f75c3e559b7213887762d5229550c2b","216.120.189.41","Mozilla/5.0 (Windows NT 10.0; Win64; x64) AppleWebKit/537.36 (KHTML, like Gecko) Chrome/138.0.0.0 Safari/537.36","WebKit","Chrome","138.0.0.0","Windows","10.0","https://app.prolific.com/","en-US,en;q=0.9","6743c8da977b0d274dad1fc2","683db9eb0562dbf637994deb","68808146c5486920aa5cf889","2","1","6743c8da977b0d274dad1fc2","2","1","2025-07-23T06:41:39.399Z","","","","","","","","","","","ControlQ","","50","","","","","","","","","","","","","","","","","","","","","","","","","","","","",""
"2791","","<div style=""width:500px;"">
  <p>How would you describe your current emotional state?</p>
  </div>","0","html-slider-response","17","225754","0.0-5.0-3.1","156","1","2025-07-23 06:37:53","1f75c3e559b7213887762d5229550c2b","216.120.189.41","Mozilla/5.0 (Windows NT 10.0; Win64; x64) AppleWebKit/537.36 (KHTML, like Gecko) Chrome/138.0.0.0 Safari/537.36","WebKit","Chrome","138.0.0.0","Windows","10.0","https://app.prolific.com/","en-US,en;q=0.9","6743c8da977b0d274dad1fc2","683db9eb0562dbf637994deb","68808146c5486920aa5cf889","2","1","6743c8da977b0d274dad1fc2","2","1","2025-07-23T06:41:42.191Z","","","","","","","","","","","StressQ","","50","","","","","","","","","","","","","","","","","","","","","","","","","","","","",""
"2247","","<div style=""width:500px;"">
  <p>What best describes how you currently feel?</p>
  </div>","100","html-slider-response","18","228002","0.0-5.0-4.1","156","1","2025-07-23 06:37:53","1f75c3e559b7213887762d5229550c2b","216.120.189.41","Mozilla/5.0 (Windows NT 10.0; Win64; x64) AppleWebKit/537.36 (KHTML, like Gecko) Chrome/138.0.0.0 Safari/537.36","WebKit","Chrome","138.0.0.0","Windows","10.0","https://app.prolific.com/","en-US,en;q=0.9","6743c8da977b0d274dad1fc2","683db9eb0562dbf637994deb","68808146c5486920aa5cf889","2","1","6743c8da977b0d274dad1fc2","2","1","2025-07-23T06:41:44.439Z","","","","","","","","","","","MotivationQ","","50","","","","","","","","","","","","","","","","","","","","","","","","","","","","",""
"","","","","ctl-task-cpt","19","258449","0.0-5.0-0.2","156","1","2025-07-23 06:37:53","1f75c3e559b7213887762d5229550c2b","216.120.189.41","Mozilla/5.0 (Windows NT 10.0; Win64; x64) AppleWebKit/537.36 (KHTML, like Gecko) Chrome/138.0.0.0 Safari/537.36","WebKit","Chrome","138.0.0.0","Windows","10.0","https://app.prolific.com/","en-US,en;q=0.9","6743c8da977b0d274dad1fc2","683db9eb0562dbf637994deb","68808146c5486920aa5cf889","2","1","6743c8da977b0d274dad1fc2","2","1","2025-07-23T06:42:14.886Z","","","","","","","","","","","","","","win-only","3","g1:SW,g2:NE","0.8","3","0","231710.3","1192.9","6196.7","27427.7","1","4","4","6","2","4","4","15","11","0.11363636363636363","869.2","3000","830","[""up"",""right""]","{""num_key_presses"":6,""num_perfect"":6,""num_errors"":0,""num_randdir"":0,""num_randdir_good_moves"":0,""num_whilered"":0,""num_whileblue"":0,""num_blue"":1,""num_good_moves"":6}","[262.896875,254.303125,0.4,262.896875,254.303125,111.4,316.896875,257.303125,216.1,367.896875,236.303125,319.2,489.896875,90.303125,423.6,543.896875,17.303125,526.2,555.896875,3.3031250000000014,627.1,502.896875,30.303125,734,501.896875,31.303125,838.1,500.896875,34.303125,939.5,499.896875,36.303125,1045.5,502.896875,47.303125,1167.7,502.896875,47.303125,1268,502.896875,47.303125,1369.6,502.896875,47.303125,1473.1,502.896875,47.303125,1573.7,502.896875,47.303125,1674,502.896875,47.303125,1777.5,502.896875,47.303125,1879.3,502.896875,47.303125,1983.5,502.896875,47.303125,2085,502.896875,47.303125,2196,502.896875,47.303125,2298.2,502.896875,47.303125,2398.9,502.896875,47.303125,2504.1,502.896875,47.303125,2610.8,502.896875,47.303125,2716.3,502.896875,47.303125,2819,502.896875,47.303125,2922.9,502.896875,47.303125,3030.6,502.896875,47.303125,3140.7,502.896875,47.303125,3243.2,502.896875,47.303125,3345.6,502.896875,47.303125,3449.1,502.896875,47.303125,3554.4,502.896875,47.303125,3657,502.896875,47.303125,3763.7,502.896875,47.303125,3865.5,502.896875,47.303125,3968.8,502.896875,47.303125,4072.6,502.896875,47.303125,4173.5,502.896875,47.303125,4278.5,502.896875,47.303125,4381.9,502.896875,47.303125,4482.9,502.896875,47.303125,4589.3,502.896875,47.303125,4689.7,502.896875,47.303125,4794.2,502.896875,47.303125,4898.8,502.896875,47.303125,4999.6]","[4944.9,4944.9,2530.9,2009.5,404.5,""smooth"",""up"",""up"",""good_move"",8463.7,3518,3049,4945.7,469,""smooth"",""up"",""up"",""good_move"",12092.3,3628.3,3213.5,8464,414.8,""smooth"",""up"",""up"",""good_move"",14913,2820.4,2428.4,12092.6,392,""smooth"",""right"",""right"",""good_move"",18149,3235.6,2863.9,14913.4,371.7,""smooth"",""right"",""right"",""good_move"",21110,2960.7,2525,18149.3,435.7,""smooth"",""right"",""right"",""good_move""]","",""
"3615","","<div style=""width:500px;"">
  <p>What determined the result of this run?</p>
  </div>","100","html-slider-response","20","262066","0.0-5.0-1.2","156","1","2025-07-23 06:37:53","1f75c3e559b7213887762d5229550c2b","216.120.189.41","Mozilla/5.0 (Windows NT 10.0; Win64; x64) AppleWebKit/537.36 (KHTML, like Gecko) Chrome/138.0.0.0 Safari/537.36","WebKit","Chrome","138.0.0.0","Windows","10.0","https://app.prolific.com/","en-US,en;q=0.9","6743c8da977b0d274dad1fc2","683db9eb0562dbf637994deb","68808146c5486920aa5cf889","2","1","6743c8da977b0d274dad1fc2","2","1","2025-07-23T06:42:18.503Z","","","","","","","","","","","AttribQ","","50","","","","","","","","","","","","","","","","","","","","","","","","","","","","",""
"2023","","<div style=""width:500px;"">
  <p>How much control did you have over the ball?</p>
  </div>","100","html-slider-response","21","264090","0.0-5.0-2.2","156","1","2025-07-23 06:37:53","1f75c3e559b7213887762d5229550c2b","216.120.189.41","Mozilla/5.0 (Windows NT 10.0; Win64; x64) AppleWebKit/537.36 (KHTML, like Gecko) Chrome/138.0.0.0 Safari/537.36","WebKit","Chrome","138.0.0.0","Windows","10.0","https://app.prolific.com/","en-US,en;q=0.9","6743c8da977b0d274dad1fc2","683db9eb0562dbf637994deb","68808146c5486920aa5cf889","2","1","6743c8da977b0d274dad1fc2","2","1","2025-07-23T06:42:20.527Z","","","","","","","","","","","ControlQ","","50","","","","","","","","","","","","","","","","","","","","","","","","","","","","",""
"2648","","<div style=""width:500px;"">
  <p>How would you describe your current emotional state?</p>
  </div>","0","html-slider-response","22","266739","0.0-5.0-3.2","156","1","2025-07-23 06:37:53","1f75c3e559b7213887762d5229550c2b","216.120.189.41","Mozilla/5.0 (Windows NT 10.0; Win64; x64) AppleWebKit/537.36 (KHTML, like Gecko) Chrome/138.0.0.0 Safari/537.36","WebKit","Chrome","138.0.0.0","Windows","10.0","https://app.prolific.com/","en-US,en;q=0.9","6743c8da977b0d274dad1fc2","683db9eb0562dbf637994deb","68808146c5486920aa5cf889","2","1","6743c8da977b0d274dad1fc2","2","1","2025-07-23T06:42:23.176Z","","","","","","","","","","","StressQ","","50","","","","","","","","","","","","","","","","","","","","","","","","","","","","",""
"1943","","<div style=""width:500px;"">
  <p>What best describes how you currently feel?</p>
  </div>","100","html-slider-response","23","268683","0.0-5.0-4.2","156","1","2025-07-23 06:37:53","1f75c3e559b7213887762d5229550c2b","216.120.189.41","Mozilla/5.0 (Windows NT 10.0; Win64; x64) AppleWebKit/537.36 (KHTML, like Gecko) Chrome/138.0.0.0 Safari/537.36","WebKit","Chrome","138.0.0.0","Windows","10.0","https://app.prolific.com/","en-US,en;q=0.9","6743c8da977b0d274dad1fc2","683db9eb0562dbf637994deb","68808146c5486920aa5cf889","2","1","6743c8da977b0d274dad1fc2","2","1","2025-07-23T06:42:25.120Z","","","","","","","","","","","MotivationQ","","50","","","","","","","","","","","","","","","","","","","","","","","","","","","","",""
"","","","","ctl-task-cpt","24","295260","0.0-5.0-0.3","156","1","2025-07-23 06:37:53","1f75c3e559b7213887762d5229550c2b","216.120.189.41","Mozilla/5.0 (Windows NT 10.0; Win64; x64) AppleWebKit/537.36 (KHTML, like Gecko) Chrome/138.0.0.0 Safari/537.36","WebKit","Chrome","138.0.0.0","Windows","10.0","https://app.prolific.com/","en-US,en;q=0.9","6743c8da977b0d274dad1fc2","683db9eb0562dbf637994deb","68808146c5486920aa5cf889","2","1","6743c8da977b0d274dad1fc2","2","1","2025-07-23T06:42:51.697Z","","","","","","","","","","","","","","win-only","1","g1:NE,g2:SW","0.7","4","0","272392.2","1232.1","6238.1","23565.5","1","4","8","6","2","8","8","23","15","0.17424242424242425","1045.2","3000","825","[""down"",""left""]","{""num_key_presses"":6,""num_perfect"":5,""num_errors"":0,""num_randdir"":1,""num_randdir_good_moves"":1,""num_whilered"":0,""num_whileblue"":0,""num_blue"":0,""num_good_moves"":6}","[263.896875,260.303125,0.8,263.896875,260.303125,107,276.896875,215.303125,225.6,357.896875,139.303125,329.5,388.896875,103.303125,434.3,255.896875,216.303125,547,137.896875,406.303125,648.2,98.896875,453.303125,748.5,66.896875,480.303125,849.5,58.896875,485.303125,955.7,58.896875,485.303125,1057,58.896875,485.303125,1158.7,109.896875,480.303125,1259.7,254.896875,413.303125,1372,411.896875,361.303125,1475.1,411.896875,361.303125,1575.5,411.896875,361.303125,1675.8,411.896875,361.303125,1780.8,411.896875,361.303125,1882.6,411.896875,361.303125,1984.2,411.896875,361.303125,2094.6,411.896875,361.303125,2198.6,411.896875,361.303125,2299.2,411.896875,361.303125,2400.1,411.896875,361.303125,2508.7,411.896875,361.303125,2609.5,411.896875,361.303125,2710.2,411.896875,361.303125,2810.5,411.896875,361.303125,2911.9,411.896875,361.303125,3013.3,411.896875,361.303125,3114,411.896875,361.303125,3214,411.896875,361.303125,3314,411.896875,361.303125,3415.7,411.896875,361.303125,3519.9,411.896875,361.303125,3624.4,411.896875,361.303125,3728.1,411.896875,361.303125,3828.3,411.896875,361.303125,3930.6,411.896875,361.303125,4036,411.896875,361.303125,4144.7,411.896875,361.303125,4247.4,411.896875,361.303125,4348.5,411.896875,361.303125,4448.7,411.896875,361.303125,4550.3,411.896875,361.303125,4667.4,411.896875,361.303125,4771.3,411.896875,361.303125,4873.6,411.896875,361.303125,4974.1]","[1548.1,1548.1,1000,0,548.1,""smooth"",""down"",""down"",""good_move"",4569.7,3019.6,2578.2,1550.1,441.4,""smooth"",""down"",""down"",""good_move"",7568.7,2998.4,2623.2,4570.3,375.2,""oops"",""down"",""left"",""good_move"",10840.1,3271,2919,7569.2,351.9,""smooth"",""down"",""down"",""good_move"",13937.5,3097.1,2654.8,10840.4,442.3,""smooth"",""left"",""left"",""good_move"",17203.7,3265.9,2900.4,13937.8,365.6,""smooth"",""left"",""left"",""good_move""]","",""
"2997","","<div style=""width:500px;"">
  <p>What determined the result of this run?</p>
  </div>","100","html-slider-response","25","298258","0.0-5.0-1.3","156","1","2025-07-23 06:37:53","1f75c3e559b7213887762d5229550c2b","216.120.189.41","Mozilla/5.0 (Windows NT 10.0; Win64; x64) AppleWebKit/537.36 (KHTML, like Gecko) Chrome/138.0.0.0 Safari/537.36","WebKit","Chrome","138.0.0.0","Windows","10.0","https://app.prolific.com/","en-US,en;q=0.9","6743c8da977b0d274dad1fc2","683db9eb0562dbf637994deb","68808146c5486920aa5cf889","2","1","6743c8da977b0d274dad1fc2","2","1","2025-07-23T06:42:54.695Z","","","","","","","","","","","AttribQ","","50","","","","","","","","","","","","","","","","","","","","","","","","","","","","",""
"1879","","<div style=""width:500px;"">
  <p>How much control did you have over the ball?</p>
  </div>","100","html-slider-response","26","300138","0.0-5.0-2.3","156","1","2025-07-23 06:37:53","1f75c3e559b7213887762d5229550c2b","216.120.189.41","Mozilla/5.0 (Windows NT 10.0; Win64; x64) AppleWebKit/537.36 (KHTML, like Gecko) Chrome/138.0.0.0 Safari/537.36","WebKit","Chrome","138.0.0.0","Windows","10.0","https://app.prolific.com/","en-US,en;q=0.9","6743c8da977b0d274dad1fc2","683db9eb0562dbf637994deb","68808146c5486920aa5cf889","2","1","6743c8da977b0d274dad1fc2","2","1","2025-07-23T06:42:56.575Z","","","","","","","","","","","ControlQ","","50","","","","","","","","","","","","","","","","","","","","","","","","","","","","",""
"2360","","<div style=""width:500px;"">
  <p>How would you describe your current emotional state?</p>
  </div>","0","html-slider-response","27","302499","0.0-5.0-3.3","156","1","2025-07-23 06:37:53","1f75c3e559b7213887762d5229550c2b","216.120.189.41","Mozilla/5.0 (Windows NT 10.0; Win64; x64) AppleWebKit/537.36 (KHTML, like Gecko) Chrome/138.0.0.0 Safari/537.36","WebKit","Chrome","138.0.0.0","Windows","10.0","https://app.prolific.com/","en-US,en;q=0.9","6743c8da977b0d274dad1fc2","683db9eb0562dbf637994deb","68808146c5486920aa5cf889","2","1","6743c8da977b0d274dad1fc2","2","1","2025-07-23T06:42:58.936Z","","","","","","","","","","","StressQ","","50","","","","","","","","","","","","","","","","","","","","","","","","","","","","",""
"2166","","<div style=""width:500px;"">
  <p>What best describes how you currently feel?</p>
  </div>","100","html-slider-response","28","304666","0.0-5.0-4.3","156","1","2025-07-23 06:37:53","1f75c3e559b7213887762d5229550c2b","216.120.189.41","Mozilla/5.0 (Windows NT 10.0; Win64; x64) AppleWebKit/537.36 (KHTML, like Gecko) Chrome/138.0.0.0 Safari/537.36","WebKit","Chrome","138.0.0.0","Windows","10.0","https://app.prolific.com/","en-US,en;q=0.9","6743c8da977b0d274dad1fc2","683db9eb0562dbf637994deb","68808146c5486920aa5cf889","2","1","6743c8da977b0d274dad1fc2","2","1","2025-07-23T06:43:01.103Z","","","","","","","","","","","MotivationQ","","50","","","","","","","","","","","","","","","","","","","","","","","","","","","","",""
"","","","","ctl-task-cpt","29","348238","0.0-5.0-0.4","156","1","2025-07-23 06:37:53","1f75c3e559b7213887762d5229550c2b","216.120.189.41","Mozilla/5.0 (Windows NT 10.0; Win64; x64) AppleWebKit/537.36 (KHTML, like Gecko) Chrome/138.0.0.0 Safari/537.36","WebKit","Chrome","138.0.0.0","Windows","10.0","https://app.prolific.com/","en-US,en;q=0.9","6743c8da977b0d274dad1fc2","683db9eb0562dbf637994deb","68808146c5486920aa5cf889","2","1","6743c8da977b0d274dad1fc2","2","1","2025-07-23T06:43:44.675Z","","","","","","","","","","","","","","win-only","0","g1:NW,g2:SE","0.6","5","0","308374","1392.6","6394.7","40552.9","1","4","8","6","2","-8","-8","15","23","0.11363636363636363","1000.9","3000","-2350","[""down"",""right""]","{""num_key_presses"":8,""num_perfect"":4,""num_errors"":0,""num_randdir"":4,""num_randdir_good_moves"":1,""num_whilered"":0,""num_whileblue"":0,""num_blue"":3,""num_good_moves"":5}","[259.896875,261.303125,0.5,259.896875,261.303125,103.2,259.896875,261.303125,224,259.896875,261.303125,325.2,278.896875,293.303125,428.3,386.896875,404.303125,538,410.896875,432.303125,638.5,443.896875,473.303125,738.9,476.896875,490.303125,843.3,490.896875,493.303125,943.3,490.896875,493.303125,1044.4,490.896875,493.303125,1148.3,494.896875,490.303125,1251.4,494.896875,487.303125,1353.5,493.896875,484.303125,1453.5,494.896875,484.303125,1555,494.896875,484.303125,1661.8,494.896875,484.303125,1763.3,494.896875,484.303125,1875.5,494.896875,484.303125,1984.1,494.896875,484.303125,2089,494.896875,484.303125,2189.4,494.896875,484.303125,2298.2,494.896875,484.303125,2398.6,494.896875,484.303125,2502.6,494.896875,484.303125,2603.5,494.896875,484.303125,2703.5,494.896875,484.303125,2804.8,494.896875,484.303125,2914.2,494.896875,484.303125,3018.6,494.896875,484.303125,3119.5,494.896875,484.303125,3220,494.896875,484.303125,3321.4,494.896875,484.303125,3423.5,494.896875,484.303125,3529.1,494.896875,484.303125,3629.5,494.896875,484.303125,3737.8,494.896875,484.303125,3841.9,494.896875,484.303125,3953.8,494.896875,484.303125,4054.6,494.896875,484.303125,4158,494.896875,484.303125,4262.6,494.896875,484.303125,4367.6,494.896875,484.303125,4469.6,494.896875,484.303125,4574.2,494.896875,484.303125,4683.7,494.896875,484.303125,4783.8,494.896875,484.303125,4888.3]","[1445.5,1445.5,1000,0,445.5,""oops"",""down"",""up"",""bad_move"",3998.7,2548.2,1942.8,1450.5,605.4,""smooth"",""right"",""right"",""good_move"",6951.3,2950.8,2572,4000.5,378.8,""oops"",""right"",""left"",""bad_move"",13221.8,6268.8,2670.8,10177.5,373.6,""smooth"",""down"",""down"",""good_move"",16135.3,2913.1,2481.4,13222.4,431.8,""oops"",""down"",""right"",""good_move"",19109.2,2971.6,2559.2,16137.7,412.3,""oops"",""right"",""up"",""bad_move"",25010.8,5900.1,2041.3,22463.9,505.6,""smooth"",""down"",""down"",""good_move"",27911.9,2900.3,2369.4,25011.6,530.9,""smooth"",""down"",""down"",""good_move""]","",""
"3332","","<div style=""width:500px;"">
  <p>What determined the result of this run?</p>
  </div>","86","html-slider-response","30","351572","0.0-5.0-1.4","156","1","2025-07-23 06:37:53","1f75c3e559b7213887762d5229550c2b","216.120.189.41","Mozilla/5.0 (Windows NT 10.0; Win64; x64) AppleWebKit/537.36 (KHTML, like Gecko) Chrome/138.0.0.0 Safari/537.36","WebKit","Chrome","138.0.0.0","Windows","10.0","https://app.prolific.com/","en-US,en;q=0.9","6743c8da977b0d274dad1fc2","683db9eb0562dbf637994deb","68808146c5486920aa5cf889","2","1","6743c8da977b0d274dad1fc2","2","1","2025-07-23T06:43:48.009Z","","","","","","","","","","","AttribQ","","50","","","","","","","","","","","","","","","","","","","","","","","","","","","","",""
"1333","","<div style=""width:500px;"">
  <p>How much control did you have over the ball?</p>
  </div>","63","html-slider-response","31","352907","0.0-5.0-2.4","156","1","2025-07-23 06:37:53","1f75c3e559b7213887762d5229550c2b","216.120.189.41","Mozilla/5.0 (Windows NT 10.0; Win64; x64) AppleWebKit/537.36 (KHTML, like Gecko) Chrome/138.0.0.0 Safari/537.36","WebKit","Chrome","138.0.0.0","Windows","10.0","https://app.prolific.com/","en-US,en;q=0.9","6743c8da977b0d274dad1fc2","683db9eb0562dbf637994deb","68808146c5486920aa5cf889","2","1","6743c8da977b0d274dad1fc2","2","1","2025-07-23T06:43:49.344Z","","","","","","","","","","","ControlQ","","50","","","","","","","","","","","","","","","","","","","","","","","","","","","","",""
"2831","","<div style=""width:500px;"">
  <p>How would you describe your current emotional state?</p>
  </div>","0","html-slider-response","32","355738","0.0-5.0-3.4","156","1","2025-07-23 06:37:53","1f75c3e559b7213887762d5229550c2b","216.120.189.41","Mozilla/5.0 (Windows NT 10.0; Win64; x64) AppleWebKit/537.36 (KHTML, like Gecko) Chrome/138.0.0.0 Safari/537.36","WebKit","Chrome","138.0.0.0","Windows","10.0","https://app.prolific.com/","en-US,en;q=0.9","6743c8da977b0d274dad1fc2","683db9eb0562dbf637994deb","68808146c5486920aa5cf889","2","1","6743c8da977b0d274dad1fc2","2","1","2025-07-23T06:43:52.176Z","","","","","","","","","","","StressQ","","50","","","","","","","","","","","","","","","","","","","","","","","","","","","","",""
"2519","","<div style=""width:500px;"">
  <p>What best describes how you currently feel?</p>
  </div>","100","html-slider-response","33","358259","0.0-5.0-4.4","156","1","2025-07-23 06:37:53","1f75c3e559b7213887762d5229550c2b","216.120.189.41","Mozilla/5.0 (Windows NT 10.0; Win64; x64) AppleWebKit/537.36 (KHTML, like Gecko) Chrome/138.0.0.0 Safari/537.36","WebKit","Chrome","138.0.0.0","Windows","10.0","https://app.prolific.com/","en-US,en;q=0.9","6743c8da977b0d274dad1fc2","683db9eb0562dbf637994deb","68808146c5486920aa5cf889","2","1","6743c8da977b0d274dad1fc2","2","1","2025-07-23T06:43:54.696Z","","","","","","","","","","","MotivationQ","","50","","","","","","","","","","","","","","","","","","","","","","","","","","","","",""
"","","","","ctl-task-cpt","34","387909","0.0-5.0-0.5","156","1","2025-07-23 06:37:53","1f75c3e559b7213887762d5229550c2b","216.120.189.41","Mozilla/5.0 (Windows NT 10.0; Win64; x64) AppleWebKit/537.36 (KHTML, like Gecko) Chrome/138.0.0.0 Safari/537.36","WebKit","Chrome","138.0.0.0","Windows","10.0","https://app.prolific.com/","en-US,en;q=0.9","6743c8da977b0d274dad1fc2","683db9eb0562dbf637994deb","68808146c5486920aa5cf889","2","1","6743c8da977b0d274dad1fc2","2","1","2025-07-23T06:44:24.346Z","","","","","","","","","","","","","","win-only","2","g1:SE,g2:NW","0.5","6","0","361967.3","1278.2","6282.6","26632.3","1","4","4","6","2","4","4","19","15","0.14393939393939395","1215","3000","1035","[""left"",""up""]","{""num_key_presses"":6,""num_perfect"":3,""num_errors"":0,""num_randdir"":3,""num_randdir_good_moves"":3,""num_whilered"":0,""num_whileblue"":0,""num_blue"":1,""num_good_moves"":6}","[260.896875,260.303125,0.4,260.896875,260.303125,100.6,260.896875,259.303125,204.9,260.896875,259.303125,309.1,386.896875,366.303125,414.6,445.896875,425.303125,524.3,389.896875,392.303125,624.3,125.896875,102.303125,730.2,42.896875,3.3031250000000014,839,35.896875,-4.696874999999999,953.4,37.896875,14.303125000000001,1056.9,44.896875,21.303125,1157.6,44.896875,21.303125,1262.4,49.896875,21.303125,1372.6,131.896875,49.303125,1475.1,703.896875,199.303125,1578.9,943.896875,353.303125,1685.1,938.896875,355.303125,1788.9,938.896875,355.303125,1900,938.896875,355.303125,2002.2,938.896875,355.303125,2102.2,938.896875,355.303125,2202.4,938.896875,355.303125,2315.3,938.896875,355.303125,2421.8,938.896875,355.303125,2523.2,938.896875,355.303125,2635.9,938.896875,355.303125,2741.3,938.896875,355.303125,2858.7,938.896875,355.303125,2967.6,938.896875,355.303125,3069.5,938.896875,355.303125,3175.9,938.896875,355.303125,3282.3,938.896875,355.303125,3384.2,938.896875,355.303125,3487.5,938.896875,355.303125,3592.6,938.896875,355.303125,3697.8,938.896875,355.303125,3803.6,938.896875,355.303125,3903.6,938.896875,355.303125,4004.4,938.896875,355.303125,4107.8,938.896875,355.303125,4217.3,938.896875,355.303125,4336.9,938.896875,355.303125,4437.9,938.896875,355.303125,4539.9,938.896875,355.303125,4642.3,938.896875,355.303125,4754.2,938.896875,355.303125,4855.4,938.896875,355.303125,4958]","[4705.3,4705.3,2243.3,2014.8,447.2,""smooth"",""up"",""up"",""good_move"",8391.2,3683.1,3241.5,4708.3,441.5,""oops"",""up"",""left"",""good_move"",11822.5,3430.5,2900.9,8392.1,529.5,""smooth"",""up"",""up"",""good_move"",15077.9,3253.2,2872.8,11824.7,380.4,""oops"",""up"",""left"",""good_move"",17742.8,2664.4,2204,15078.4,460.4,""smooth"",""up"",""up"",""good_move"",20223.5,2480.2,2018.6,17743.3,461.6,""oops"",""left"",""left"",""good_move""]","",""
"2253","","<div style=""width:500px;"">
  <p>What determined the result of this run?</p>
  </div>","100","html-slider-response","35","390163","0.0-5.0-1.5","156","1","2025-07-23 06:37:53","1f75c3e559b7213887762d5229550c2b","216.120.189.41","Mozilla/5.0 (Windows NT 10.0; Win64; x64) AppleWebKit/537.36 (KHTML, like Gecko) Chrome/138.0.0.0 Safari/537.36","WebKit","Chrome","138.0.0.0","Windows","10.0","https://app.prolific.com/","en-US,en;q=0.9","6743c8da977b0d274dad1fc2","683db9eb0562dbf637994deb","68808146c5486920aa5cf889","2","1","6743c8da977b0d274dad1fc2","2","1","2025-07-23T06:44:26.600Z","","","","","","","","","","","AttribQ","","50","","","","","","","","","","","","","","","","","","","","","","","","","","","","",""
"2566","","<div style=""width:500px;"">
  <p>How much control did you have over the ball?</p>
  </div>","92","html-slider-response","36","392730","0.0-5.0-2.5","156","1","2025-07-23 06:37:53","1f75c3e559b7213887762d5229550c2b","216.120.189.41","Mozilla/5.0 (Windows NT 10.0; Win64; x64) AppleWebKit/537.36 (KHTML, like Gecko) Chrome/138.0.0.0 Safari/537.36","WebKit","Chrome","138.0.0.0","Windows","10.0","https://app.prolific.com/","en-US,en;q=0.9","6743c8da977b0d274dad1fc2","683db9eb0562dbf637994deb","68808146c5486920aa5cf889","2","1","6743c8da977b0d274dad1fc2","2","1","2025-07-23T06:44:29.168Z","","","","","","","","","","","ControlQ","","50","","","","","","","","","","","","","","","","","","","","","","","","","","","","",""
"2222","","<div style=""width:500px;"">
  <p>How would you describe your current emotional state?</p>
  </div>","0","html-slider-response","37","394954","0.0-5.0-3.5","156","1","2025-07-23 06:37:53","1f75c3e559b7213887762d5229550c2b","216.120.189.41","Mozilla/5.0 (Windows NT 10.0; Win64; x64) AppleWebKit/537.36 (KHTML, like Gecko) Chrome/138.0.0.0 Safari/537.36","WebKit","Chrome","138.0.0.0","Windows","10.0","https://app.prolific.com/","en-US,en;q=0.9","6743c8da977b0d274dad1fc2","683db9eb0562dbf637994deb","68808146c5486920aa5cf889","2","1","6743c8da977b0d274dad1fc2","2","1","2025-07-23T06:44:31.391Z","","","","","","","","","","","StressQ","","50","","","","","","","","","","","","","","","","","","","","","","","","","","","","",""
"2144","","<div style=""width:500px;"">
  <p>What best describes how you currently feel?</p>
  </div>","100","html-slider-response","38","397099","0.0-5.0-4.5","156","1","2025-07-23 06:37:53","1f75c3e559b7213887762d5229550c2b","216.120.189.41","Mozilla/5.0 (Windows NT 10.0; Win64; x64) AppleWebKit/537.36 (KHTML, like Gecko) Chrome/138.0.0.0 Safari/537.36","WebKit","Chrome","138.0.0.0","Windows","10.0","https://app.prolific.com/","en-US,en;q=0.9","6743c8da977b0d274dad1fc2","683db9eb0562dbf637994deb","68808146c5486920aa5cf889","2","1","6743c8da977b0d274dad1fc2","2","1","2025-07-23T06:44:33.536Z","","","","","","","","","","","MotivationQ","","50","","","","","","","","","","","","","","","","","","","","","","","","","","","","",""
"","","","","ctl-task-cpt","39","426769","0.0-5.0-0.6","156","1","2025-07-23 06:37:53","1f75c3e559b7213887762d5229550c2b","216.120.189.41","Mozilla/5.0 (Windows NT 10.0; Win64; x64) AppleWebKit/537.36 (KHTML, like Gecko) Chrome/138.0.0.0 Safari/537.36","WebKit","Chrome","138.0.0.0","Windows","10.0","https://app.prolific.com/","en-US,en;q=0.9","6743c8da977b0d274dad1fc2","683db9eb0562dbf637994deb","68808146c5486920aa5cf889","2","1","6743c8da977b0d274dad1fc2","2","1","2025-07-23T06:45:03.206Z","","","","","","","","","","","","","","win-only","0","g1:NW,g2:SE","0.4","7","0","400808.9","1251.5","6256.3","26643.8","1","4","4","6","2","-4","-4","15","19","0.11363636363636363","1175.9","3000","-2325","[""down"",""right""]","{""num_key_presses"":6,""num_perfect"":3,""num_errors"":0,""num_randdir"":3,""num_randdir_good_moves"":1,""num_whilered"":0,""num_whileblue"":0,""num_blue"":0,""num_good_moves"":4}","[256.896875,262.303125,0.3,256.896875,262.303125,100.4,258.896875,254.303125,222.2,259.896875,247.303125,325.3,246.896875,242.303125,431.2,239.896875,240.303125,531.6,372.896875,348.303125,635,492.896875,454.303125,735.8,518.896875,479.303125,839.3,515.896875,480.303125,944.5,482.896875,484.303125,1049.2,479.896875,477.303125,1150.7,480.896875,476.303125,1251.3,481.896875,476.303125,1354.4,528.896875,476.303125,1459.1,598.896875,472.303125,1559.2,602.896875,468.303125,1659.2,602.896875,468.303125,1775.2,602.896875,468.303125,1885,602.896875,468.303125,1985.5,602.896875,468.303125,2087,602.896875,468.303125,2189.1,602.896875,468.303125,2299.1,602.896875,468.303125,2401.6,602.896875,468.303125,2504.4,602.896875,468.303125,2611,602.896875,468.303125,2712.2,602.896875,468.303125,2814.3,602.896875,468.303125,2915.2,602.896875,468.303125,3017.7,602.896875,468.303125,3121.7,602.896875,468.303125,3234,602.896875,468.303125,3334.8,602.896875,468.303125,3434.8,602.896875,468.303125,3535.5,602.896875,468.303125,3640.1,602.896875,468.303125,3744,602.896875,468.303125,3845,602.896875,468.303125,3949,602.896875,468.303125,4051,602.896875,468.303125,4153.8,602.896875,468.303125,4254,602.896875,468.303125,4365.4,602.896875,468.303125,4470.7,602.896875,468.303125,4579.3,602.896875,468.303125,4684.9,602.896875,468.303125,4791,602.896875,468.303125,4895.5,602.896875,468.303125,4999.2]","[1980.2,1980.3,1000,0,980.3,""smooth"",""down"",""down"",""good_move"",4626.7,2644.4,2208,1982.3,436.4,""smooth"",""right"",""right"",""good_move"",7348.2,2720.7,2306.9,4627.6,413.7,""oops"",""right"",""down"",""good_move"",10142,2793.6,2340,7348.4,453.6,""oops"",""down"",""up"",""bad_move"",13190.5,3047,2621.6,10143.5,425.4,""smooth"",""right"",""right"",""good_move"",16335.9,3144.8,2752.2,13191.1,392.6,""oops"",""right"",""up"",""bad_move""]","",""
"3288","","<div style=""width:500px;"">
  <p>What determined the result of this run?</p>
  </div>","100","html-slider-response","40","430058","0.0-5.0-1.6","156","1","2025-07-23 06:37:53","1f75c3e559b7213887762d5229550c2b","216.120.189.41","Mozilla/5.0 (Windows NT 10.0; Win64; x64) AppleWebKit/537.36 (KHTML, like Gecko) Chrome/138.0.0.0 Safari/537.36","WebKit","Chrome","138.0.0.0","Windows","10.0","https://app.prolific.com/","en-US,en;q=0.9","6743c8da977b0d274dad1fc2","683db9eb0562dbf637994deb","68808146c5486920aa5cf889","2","1","6743c8da977b0d274dad1fc2","2","1","2025-07-23T06:45:06.495Z","","","","","","","","","","","AttribQ","","50","","","","","","","","","","","","","","","","","","","","","","","","","","","","",""
"3782","","<div style=""width:500px;"">
  <p>How much control did you have over the ball?</p>
  </div>","74","html-slider-response","41","433842","0.0-5.0-2.6","156","1","2025-07-23 06:37:53","1f75c3e559b7213887762d5229550c2b","216.120.189.41","Mozilla/5.0 (Windows NT 10.0; Win64; x64) AppleWebKit/537.36 (KHTML, like Gecko) Chrome/138.0.0.0 Safari/537.36","WebKit","Chrome","138.0.0.0","Windows","10.0","https://app.prolific.com/","en-US,en;q=0.9","6743c8da977b0d274dad1fc2","683db9eb0562dbf637994deb","68808146c5486920aa5cf889","2","1","6743c8da977b0d274dad1fc2","2","1","2025-07-23T06:45:10.279Z","","","","","","","","","","","ControlQ","","50","","","","","","","","","","","","","","","","","","","","","","","","","","","","",""
"3184","","<div style=""width:500px;"">
  <p>How would you describe your current emotional state?</p>
  </div>","0","html-slider-response","42","437026","0.0-5.0-3.6","156","1","2025-07-23 06:37:53","1f75c3e559b7213887762d5229550c2b","216.120.189.41","Mozilla/5.0 (Windows NT 10.0; Win64; x64) AppleWebKit/537.36 (KHTML, like Gecko) Chrome/138.0.0.0 Safari/537.36","WebKit","Chrome","138.0.0.0","Windows","10.0","https://app.prolific.com/","en-US,en;q=0.9","6743c8da977b0d274dad1fc2","683db9eb0562dbf637994deb","68808146c5486920aa5cf889","2","1","6743c8da977b0d274dad1fc2","2","1","2025-07-23T06:45:13.464Z","","","","","","","","","","","StressQ","","50","","","","","","","","","","","","","","","","","","","","","","","","","","","","",""
"3631","","<div style=""width:500px;"">
  <p>What best describes how you currently feel?</p>
  </div>","100","html-slider-response","43","440659","0.0-5.0-4.6","156","1","2025-07-23 06:37:53","1f75c3e559b7213887762d5229550c2b","216.120.189.41","Mozilla/5.0 (Windows NT 10.0; Win64; x64) AppleWebKit/537.36 (KHTML, like Gecko) Chrome/138.0.0.0 Safari/537.36","WebKit","Chrome","138.0.0.0","Windows","10.0","https://app.prolific.com/","en-US,en;q=0.9","6743c8da977b0d274dad1fc2","683db9eb0562dbf637994deb","68808146c5486920aa5cf889","2","1","6743c8da977b0d274dad1fc2","2","1","2025-07-23T06:45:17.096Z","","","","","","","","","","","MotivationQ","","50","","","","","","","","","","","","","","","","","","","","","","","","","","","","",""
"","","","","ctl-task-cpt","44","465084","0.0-5.0-0.7","156","1","2025-07-23 06:37:53","1f75c3e559b7213887762d5229550c2b","216.120.189.41","Mozilla/5.0 (Windows NT 10.0; Win64; x64) AppleWebKit/537.36 (KHTML, like Gecko) Chrome/138.0.0.0 Safari/537.36","WebKit","Chrome","138.0.0.0","Windows","10.0","https://app.prolific.com/","en-US,en;q=0.9","6743c8da977b0d274dad1fc2","683db9eb0562dbf637994deb","68808146c5486920aa5cf889","2","1","6743c8da977b0d274dad1fc2","2","1","2025-07-23T06:45:41.522Z","","","","","","","","","","","","","","win-only","0","g1:NW,g2:SE","0.3","8","0","444366.9","3438.8","8442.2","21403.1","1","4","8","6","2","-8","-8","7","15","0.05303030303030303","882","3000","-2390","[""down"",""right""]","{""num_key_presses"":3,""num_perfect"":0,""num_errors"":0,""num_randdir"":3,""num_randdir_good_moves"":0,""num_whilered"":0,""num_whileblue"":0,""num_blue"":0,""num_good_moves"":0}","[256.896875,266.303125,0.4,256.896875,266.303125,106.5,260.896875,266.303125,211.3,293.896875,283.303125,311.9,323.896875,319.303125,425.2,426.896875,415.303125,535.5,462.896875,466.303125,637,467.896875,471.303125,737.1,467.896875,471.303125,837.4,467.896875,471.303125,938.3,467.896875,472.303125,1045.3,469.896875,473.303125,1148.8,477.896875,459.303125,1250.8,480.896875,449.303125,1351.6,466.896875,407.303125,1451.7,424.896875,328.303125,1552.1,425.896875,324.303125,1653.3,470.896875,350.303125,1753.7,510.896875,368.303125,1858.2,510.896875,369.303125,1968,510.896875,369.303125,2071.5,510.896875,369.303125,2172.1,510.896875,369.303125,2273.7,510.896875,369.303125,2375.5,510.896875,369.303125,2479,510.896875,369.303125,2582.3,510.896875,369.303125,2682.8,510.896875,369.303125,2787.4,510.896875,369.303125,2888.8,510.896875,369.303125,2991.7,510.896875,369.303125,3095,510.896875,369.303125,3202.2,510.896875,369.303125,3302.3,510.896875,369.303125,3407.1,510.896875,369.303125,3508.3,510.896875,369.303125,3611.8,510.896875,369.303125,3743.8,510.896875,369.303125,3855.1,510.896875,369.303125,3956.7,510.896875,369.303125,4058.5,510.896875,369.303125,4166.5,510.896875,369.303125,4267.1,510.896875,369.303125,4377,510.896875,369.303125,4483,510.896875,369.303125,4589.6,510.896875,369.303125,4691.5,510.896875,369.303125,4792.4,510.896875,369.303125,4892.9,510.896875,369.303125,4997.7]","[1409.5,1409.5,1000,0,409.5,""oops"",""down"",""left"",""bad_move"",4210.7,2800.6,2267.7,1410.2,532.9,""oops"",""down"",""up"",""bad_move"",8088.9,3876.5,3448.1,4212.4,428.5,""oops"",""right"",""up"",""bad_move""]","",""
"3261","","<div style=""width:500px;"">
  <p>What determined the result of this run?</p>
  </div>","70","html-slider-response","45","468347","0.0-5.0-1.7","156","1","2025-07-23 06:37:53","1f75c3e559b7213887762d5229550c2b","216.120.189.41","Mozilla/5.0 (Windows NT 10.0; Win64; x64) AppleWebKit/537.36 (KHTML, like Gecko) Chrome/138.0.0.0 Safari/537.36","WebKit","Chrome","138.0.0.0","Windows","10.0","https://app.prolific.com/","en-US,en;q=0.9","6743c8da977b0d274dad1fc2","683db9eb0562dbf637994deb","68808146c5486920aa5cf889","2","1","6743c8da977b0d274dad1fc2","2","1","2025-07-23T06:45:44.784Z","","","","","","","","","","","AttribQ","","50","","","","","","","","","","","","","","","","","","","","","","","","","","","","",""
"3094","","<div style=""width:500px;"">
  <p>How much control did you have over the ball?</p>
  </div>","56","html-slider-response","46","471442","0.0-5.0-2.7","156","1","2025-07-23 06:37:53","1f75c3e559b7213887762d5229550c2b","216.120.189.41","Mozilla/5.0 (Windows NT 10.0; Win64; x64) AppleWebKit/537.36 (KHTML, like Gecko) Chrome/138.0.0.0 Safari/537.36","WebKit","Chrome","138.0.0.0","Windows","10.0","https://app.prolific.com/","en-US,en;q=0.9","6743c8da977b0d274dad1fc2","683db9eb0562dbf637994deb","68808146c5486920aa5cf889","2","1","6743c8da977b0d274dad1fc2","2","1","2025-07-23T06:45:47.880Z","","","","","","","","","","","ControlQ","","50","","","","","","","","","","","","","","","","","","","","","","","","","","","","",""
"2798","","<div style=""width:500px;"">
  <p>How would you describe your current emotional state?</p>
  </div>","0","html-slider-response","47","474243","0.0-5.0-3.7","156","1","2025-07-23 06:37:53","1f75c3e559b7213887762d5229550c2b","216.120.189.41","Mozilla/5.0 (Windows NT 10.0; Win64; x64) AppleWebKit/537.36 (KHTML, like Gecko) Chrome/138.0.0.0 Safari/537.36","WebKit","Chrome","138.0.0.0","Windows","10.0","https://app.prolific.com/","en-US,en;q=0.9","6743c8da977b0d274dad1fc2","683db9eb0562dbf637994deb","68808146c5486920aa5cf889","2","1","6743c8da977b0d274dad1fc2","2","1","2025-07-23T06:45:50.680Z","","","","","","","","","","","StressQ","","50","","","","","","","","","","","","","","","","","","","","","","","","","","","","",""
"3606","","<div style=""width:500px;"">
  <p>What best describes how you currently feel?</p>
  </div>","100","html-slider-response","48","477850","0.0-5.0-4.7","156","1","2025-07-23 06:37:53","1f75c3e559b7213887762d5229550c2b","216.120.189.41","Mozilla/5.0 (Windows NT 10.0; Win64; x64) AppleWebKit/537.36 (KHTML, like Gecko) Chrome/138.0.0.0 Safari/537.36","WebKit","Chrome","138.0.0.0","Windows","10.0","https://app.prolific.com/","en-US,en;q=0.9","6743c8da977b0d274dad1fc2","683db9eb0562dbf637994deb","68808146c5486920aa5cf889","2","1","6743c8da977b0d274dad1fc2","2","1","2025-07-23T06:45:54.287Z","","","","","","","","","","","MotivationQ","","50","","","","","","","","","","","","","","","","","","","","","","","","","","","","",""
"","","","","ctl-task-cpt","49","512418","0.0-5.0-0.8","156","1","2025-07-23 06:37:53","1f75c3e559b7213887762d5229550c2b","216.120.189.41","Mozilla/5.0 (Windows NT 10.0; Win64; x64) AppleWebKit/537.36 (KHTML, like Gecko) Chrome/138.0.0.0 Safari/537.36","WebKit","Chrome","138.0.0.0","Windows","10.0","https://app.prolific.com/","en-US,en;q=0.9","6743c8da977b0d274dad1fc2","683db9eb0562dbf637994deb","68808146c5486920aa5cf889","2","1","6743c8da977b0d274dad1fc2","2","1","2025-07-23T06:46:28.855Z","","","","","","","","","","","","","","win-only","2","g1:SE,g2:NW","0.2","9","0","481558","1968.8","6974.2","31549.8","1","4","4","6","2","-4","-5","2","7","0.015151515151515152","1255.2","3000","-2365","[""left"",""up""]","{""num_key_presses"":7,""num_perfect"":2,""num_errors"":1,""num_randdir"":4,""num_randdir_good_moves"":2,""num_whilered"":0,""num_whileblue"":1,""num_blue"":2,""num_good_moves"":4}","[264.896875,269.303125,0.7,264.896875,269.303125,100.2,264.896875,269.303125,202.9,272.896875,295.303125,326.8,340.896875,368.303125,430.1,330.896875,370.303125,532.1,26.896875,150.303125,633.5,-0.10312499999999858,79.303125,735.7,-10.103124999999999,65.303125,840.7,-26.103125,47.303125,949.4,-0.10312499999999858,47.303125,1053.8,15.896875000000001,49.303125,1164.7,21.896875,49.303125,1269.8,21.896875,49.303125,1377,59.896875,61.303125,1478.8,271.896875,169.303125,1583.7,504.896875,220.303125,1686.1,524.896875,193.303125,1790.1,524.896875,220.303125,1900.1,534.896875,226.303125,2003.2,537.896875,228.303125,2111.4,537.896875,227.303125,2214.1,303.896875,9.303125000000001,2317.8,303.896875,9.303125000000001,2423.3,303.896875,9.303125000000001,2562.8,303.896875,9.303125000000001,2664.6,943.896875,232.303125,2769,943.896875,550.303125,2891.2,943.896875,565.303125,2998.4,943.896875,565.303125,3101.9,943.896875,565.303125,3203.8,943.896875,565.303125,3304,943.896875,565.303125,3408.7,943.896875,565.303125,3509.6,943.896875,565.303125,3610.4,943.896875,565.303125,3711.6,943.896875,565.303125,3812.2,943.896875,565.303125,3916,943.896875,565.303125,4019.8,943.896875,565.303125,4122,943.896875,565.303125,4233.9,943.896875,565.303125,4337.8,943.896875,565.303125,4447.2,943.896875,565.303125,4549.4,943.896875,565.303125,4653.1,943.896875,565.303125,4754.9,943.896875,565.303125,4863.1,943.896875,565.303125,4963.6]","[1444.7,1444.7,1000,0,444.7,""oops"",""up"",""up"",""good_move"",4171.7,2726.2,1886.1,1445.5,840.1,""smooth"",""up"",""up"",""good_move"",7139.6,2967.3,2505.9,4172.4,461.3,""oops"",""up"",""up"",""good_move"",9866.4,2726.5,2293.4,7139.9,433.1,""smooth"",""left"",""left"",""good_move"",13323.8,3455.3,3056.4,9868.6,398.9,""oops"",""left"",""right"",""bad_move"",15775.2,2450.6,2036,13324.6,414.6,""while_blue"",""left"",""down"",""bad_move"",21360.5,5584.6,2311,18647.9,401.6,""oops"",""left"",""right"",""bad_move""]","",""
"5215","","<div style=""width:500px;"">
  <p>What determined the result of this run?</p>
  </div>","74","html-slider-response","50","517634","0.0-5.0-1.8","156","1","2025-07-23 06:37:53","1f75c3e559b7213887762d5229550c2b","216.120.189.41","Mozilla/5.0 (Windows NT 10.0; Win64; x64) AppleWebKit/537.36 (KHTML, like Gecko) Chrome/138.0.0.0 Safari/537.36","WebKit","Chrome","138.0.0.0","Windows","10.0","https://app.prolific.com/","en-US,en;q=0.9","6743c8da977b0d274dad1fc2","683db9eb0562dbf637994deb","68808146c5486920aa5cf889","2","1","6743c8da977b0d274dad1fc2","2","1","2025-07-23T06:46:34.071Z","","","","","","","","","","","AttribQ","","50","","","","","","","","","","","","","","","","","","","","","","","","","","","","",""
"4009","","<div style=""width:500px;"">
  <p>How much control did you have over the ball?</p>
  </div>","66","html-slider-response","51","521643","0.0-5.0-2.8","156","1","2025-07-23 06:37:53","1f75c3e559b7213887762d5229550c2b","216.120.189.41","Mozilla/5.0 (Windows NT 10.0; Win64; x64) AppleWebKit/537.36 (KHTML, like Gecko) Chrome/138.0.0.0 Safari/537.36","WebKit","Chrome","138.0.0.0","Windows","10.0","https://app.prolific.com/","en-US,en;q=0.9","6743c8da977b0d274dad1fc2","683db9eb0562dbf637994deb","68808146c5486920aa5cf889","2","1","6743c8da977b0d274dad1fc2","2","1","2025-07-23T06:46:38.081Z","","","","","","","","","","","ControlQ","","50","","","","","","","","","","","","","","","","","","","","","","","","","","","","",""
"2949","","<div style=""width:500px;"">
  <p>How would you describe your current emotional state?</p>
  </div>","0","html-slider-response","52","524594","0.0-5.0-3.8","156","1","2025-07-23 06:37:53","1f75c3e559b7213887762d5229550c2b","216.120.189.41","Mozilla/5.0 (Windows NT 10.0; Win64; x64) AppleWebKit/537.36 (KHTML, like Gecko) Chrome/138.0.0.0 Safari/537.36","WebKit","Chrome","138.0.0.0","Windows","10.0","https://app.prolific.com/","en-US,en;q=0.9","6743c8da977b0d274dad1fc2","683db9eb0562dbf637994deb","68808146c5486920aa5cf889","2","1","6743c8da977b0d274dad1fc2","2","1","2025-07-23T06:46:41.031Z","","","","","","","","","","","StressQ","","50","","","","","","","","","","","","","","","","","","","","","","","","","","","","",""
"3079","","<div style=""width:500px;"">
  <p>What best describes how you currently feel?</p>
  </div>","100","html-slider-response","53","527674","0.0-5.0-4.8","156","1","2025-07-23 06:37:53","1f75c3e559b7213887762d5229550c2b","216.120.189.41","Mozilla/5.0 (Windows NT 10.0; Win64; x64) AppleWebKit/537.36 (KHTML, like Gecko) Chrome/138.0.0.0 Safari/537.36","WebKit","Chrome","138.0.0.0","Windows","10.0","https://app.prolific.com/","en-US,en;q=0.9","6743c8da977b0d274dad1fc2","683db9eb0562dbf637994deb","68808146c5486920aa5cf889","2","1","6743c8da977b0d274dad1fc2","2","1","2025-07-23T06:46:44.111Z","","","","","","","","","","","MotivationQ","","50","","","","","","","","","","","","","","","","","","","","","","","","","","","","",""
"","","","","ctl-task-cpt","54","562584","0.0-5.0-0.9","156","1","2025-07-23 06:37:53","1f75c3e559b7213887762d5229550c2b","216.120.189.41","Mozilla/5.0 (Windows NT 10.0; Win64; x64) AppleWebKit/537.36 (KHTML, like Gecko) Chrome/138.0.0.0 Safari/537.36","WebKit","Chrome","138.0.0.0","Windows","10.0","https://app.prolific.com/","en-US,en;q=0.9","6743c8da977b0d274dad1fc2","683db9eb0562dbf637994deb","68808146c5486920aa5cf889","2","1","6743c8da977b0d274dad1fc2","2","1","2025-07-23T06:47:19.021Z","","","","","","","","","","","","","","win-only","0","g1:NW,g2:SE","0.4","10","0","531382.6","2302.4","7316.8","31890.3","1","4","8","6","2","-8","-8","0","2","0","2000","3000","-2310","[""down"",""right""]","{""num_key_presses"":4,""num_perfect"":2,""num_errors"":0,""num_randdir"":2,""num_randdir_good_moves"":0,""num_whilered"":0,""num_whileblue"":0,""num_blue"":3,""num_good_moves"":2}","[262.896875,264.303125,0.6,262.896875,264.303125,105.5,263.896875,265.303125,207.2,294.896875,282.303125,309.7,366.896875,348.303125,423.8,380.896875,380.303125,527.3,405.896875,390.303125,638.8,399.896875,381.303125,739.3,397.896875,381.303125,839.7,408.896875,395.303125,941.5,296.896875,343.303125,1043.9,272.896875,297.303125,1147,295.896875,319.303125,1250.3,468.896875,448.303125,1353,479.896875,460.303125,1456.3,495.896875,466.303125,1559.1,484.896875,475.303125,1668.6,481.896875,474.303125,1775.9,481.896875,474.303125,1878.5,481.896875,474.303125,1989.6,481.896875,474.303125,2093.4,447.896875,447.303125,2197.9,380.896875,416.303125,2301.8,373.896875,407.303125,2405.7,392.896875,401.303125,2510.7,460.896875,392.303125,2616.4,454.896875,376.303125,2717.5,450.896875,375.303125,2819.8,450.896875,375.303125,2922,450.896875,375.303125,3026,450.896875,375.303125,3132.6,450.896875,375.303125,3234.9,450.896875,375.303125,3338.9,450.896875,375.303125,3439.6,450.896875,375.303125,3540.4,450.896875,375.303125,3641.7,450.896875,375.303125,3745,450.896875,375.303125,3853,450.896875,375.303125,3954.7,450.896875,375.303125,4057.9,450.896875,375.303125,4158.8,450.896875,375.303125,4259.8,450.896875,375.303125,4371.2,450.896875,375.303125,4477.2,450.896875,375.303125,4578.4,450.896875,375.303125,4686,450.896875,375.303125,4789.9,450.896875,375.303125,4894,450.896875,375.303125,4995.7]","[1497,1497,1000,0,497,""smooth"",""down"",""down"",""good_move"",8289.1,6790.4,2771.2,4890.9,627.1,""smooth"",""down"",""down"",""good_move"",11193.2,2901.7,2213,8291.5,688.7,""oops"",""down"",""up"",""bad_move"",17206.9,6013.2,2064.4,14686.7,455.8,""oops"",""right"",""up"",""bad_move""]","",""
"2537","","<div style=""width:500px;"">
  <p>What determined the result of this run?</p>
  </div>","100","html-slider-response","55","565123","0.0-5.0-1.9","156","1","2025-07-23 06:37:53","1f75c3e559b7213887762d5229550c2b","216.120.189.41","Mozilla/5.0 (Windows NT 10.0; Win64; x64) AppleWebKit/537.36 (KHTML, like Gecko) Chrome/138.0.0.0 Safari/537.36","WebKit","Chrome","138.0.0.0","Windows","10.0","https://app.prolific.com/","en-US,en;q=0.9","6743c8da977b0d274dad1fc2","683db9eb0562dbf637994deb","68808146c5486920aa5cf889","2","1","6743c8da977b0d274dad1fc2","2","1","2025-07-23T06:47:21.560Z","","","","","","","","","","","AttribQ","","50","","","","","","","","","","","","","","","","","","","","","","","","","","","","",""
"3485","","<div style=""width:500px;"">
  <p>How much control did you have over the ball?</p>
  </div>","63","html-slider-response","56","568610","0.0-5.0-2.9","156","1","2025-07-23 06:37:53","1f75c3e559b7213887762d5229550c2b","216.120.189.41","Mozilla/5.0 (Windows NT 10.0; Win64; x64) AppleWebKit/537.36 (KHTML, like Gecko) Chrome/138.0.0.0 Safari/537.36","WebKit","Chrome","138.0.0.0","Windows","10.0","https://app.prolific.com/","en-US,en;q=0.9","6743c8da977b0d274dad1fc2","683db9eb0562dbf637994deb","68808146c5486920aa5cf889","2","1","6743c8da977b0d274dad1fc2","2","1","2025-07-23T06:47:25.047Z","","","","","","","","","","","ControlQ","","50","","","","","","","","","","","","","","","","","","","","","","","","","","","","",""
"3159","","<div style=""width:500px;"">
  <p>How would you describe your current emotional state?</p>
  </div>","0","html-slider-response","57","571771","0.0-5.0-3.9","156","1","2025-07-23 06:37:53","1f75c3e559b7213887762d5229550c2b","216.120.189.41","Mozilla/5.0 (Windows NT 10.0; Win64; x64) AppleWebKit/537.36 (KHTML, like Gecko) Chrome/138.0.0.0 Safari/537.36","WebKit","Chrome","138.0.0.0","Windows","10.0","https://app.prolific.com/","en-US,en;q=0.9","6743c8da977b0d274dad1fc2","683db9eb0562dbf637994deb","68808146c5486920aa5cf889","2","1","6743c8da977b0d274dad1fc2","2","1","2025-07-23T06:47:28.208Z","","","","","","","","","","","StressQ","","50","","","","","","","","","","","","","","","","","","","","","","","","","","","","",""
"3502","","<div style=""width:500px;"">
  <p>What best describes how you currently feel?</p>
  </div>","100","html-slider-response","58","575275","0.0-5.0-4.9","156","1","2025-07-23 06:37:53","1f75c3e559b7213887762d5229550c2b","216.120.189.41","Mozilla/5.0 (Windows NT 10.0; Win64; x64) AppleWebKit/537.36 (KHTML, like Gecko) Chrome/138.0.0.0 Safari/537.36","WebKit","Chrome","138.0.0.0","Windows","10.0","https://app.prolific.com/","en-US,en;q=0.9","6743c8da977b0d274dad1fc2","683db9eb0562dbf637994deb","68808146c5486920aa5cf889","2","1","6743c8da977b0d274dad1fc2","2","1","2025-07-23T06:47:31.712Z","","","","","","","","","","","MotivationQ","","50","","","","","","","","","","","","","","","","","","","","","","","","","","","","",""
"","","","","ctl-task-cpt","59","616544","0.0-5.0-0.10","156","1","2025-07-23 06:37:53","1f75c3e559b7213887762d5229550c2b","216.120.189.41","Mozilla/5.0 (Windows NT 10.0; Win64; x64) AppleWebKit/537.36 (KHTML, like Gecko) Chrome/138.0.0.0 Safari/537.36","WebKit","Chrome","138.0.0.0","Windows","10.0","https://app.prolific.com/","en-US,en;q=0.9","6743c8da977b0d274dad1fc2","683db9eb0562dbf637994deb","68808146c5486920aa5cf889","2","1","6743c8da977b0d274dad1fc2","2","1","2025-07-23T06:48:12.981Z","","","","","","","","","","","","","","win-only","3","g1:SW,g2:NE","0.5","11","0","578983.2","1054","6056","38240.2","1","4","4","6","2","-4","-4","0","0","0","1215.8","3000","-1695","[""up"",""right""]","{""num_key_presses"":8,""num_perfect"":4,""num_errors"":0,""num_randdir"":4,""num_randdir_good_moves"":1,""num_whilered"":0,""num_whileblue"":0,""num_blue"":2,""num_good_moves"":5}","[260.896875,260.303125,0.2,260.896875,260.303125,100.5,267.896875,264.303125,203.1,315.896875,291.303125,306.5,319.896875,312.303125,412.4,234.896875,344.303125,520.4,291.896875,291.303125,622.6,384.896875,160.303125,727.8,392.896875,130.303125,829,419.896875,118.303125,931.4,440.896875,96.303125,1034.5,457.896875,70.303125,1138.4,457.896875,70.303125,1240.1,457.896875,70.303125,1346.9,458.896875,73.303125,1447.6,470.896875,87.303125,1549.5,473.896875,95.303125,1654.8,473.896875,95.303125,1757.2,473.896875,95.303125,1867.2,473.896875,95.303125,1970,473.896875,95.303125,2072.5,473.896875,95.303125,2179.1,473.896875,95.303125,2281.1,473.896875,95.303125,2382.3,473.896875,95.303125,2484.5,473.896875,95.303125,2584.5,473.896875,95.303125,2685.9,473.896875,95.303125,2787.7,473.896875,95.303125,2894.2,473.896875,95.303125,2996.5,473.896875,95.303125,3096.6,473.896875,95.303125,3197.4,473.896875,95.303125,3302.3,473.896875,95.303125,3410,473.896875,95.303125,3516.2,473.896875,95.303125,3620.9,473.896875,95.303125,3725.1,473.896875,95.303125,3836.7,473.896875,95.303125,3937.3,473.896875,95.303125,4041.9,473.896875,95.303125,4142.9,473.896875,95.303125,4245.2,473.896875,95.303125,4349.6,473.896875,95.303125,4454.3,473.896875,95.303125,4556.4,473.896875,95.303125,4659.7,473.896875,95.303125,4763.1,473.896875,95.303125,4866.2,473.896875,95.303125,4968]","[1421.5,1421.5,1000,0,421.5,""oops"",""up"",""down"",""bad_move"",4768.4,3345.2,2876.6,1423.2,468.6,""smooth"",""right"",""right"",""good_move"",10648.9,5880.1,2535.9,7667.2,445.8,""smooth"",""right"",""right"",""good_move"",13665.9,3016.6,2492.2,10649.3,524.4,""smooth"",""right"",""right"",""good_move"",16581.4,2915,2493.7,13666.4,421.3,""oops"",""up"",""down"",""bad_move"",19174.7,2592.5,1889.6,16582.2,702.9,""oops"",""up"",""up"",""good_move"",21782.2,2607,2164.4,19175.3,442.5,""smooth"",""up"",""up"",""good_move"",28647.8,6864.7,2908.8,25401.1,337.9,""oops"",""up"",""down"",""bad_move""]","",""
"4027","","<div style=""width:500px;"">
  <p>What determined the result of this run?</p>
  </div>","80","html-slider-response","60","620573","0.0-5.0-1.10","156","1","2025-07-23 06:37:53","1f75c3e559b7213887762d5229550c2b","216.120.189.41","Mozilla/5.0 (Windows NT 10.0; Win64; x64) AppleWebKit/537.36 (KHTML, like Gecko) Chrome/138.0.0.0 Safari/537.36","WebKit","Chrome","138.0.0.0","Windows","10.0","https://app.prolific.com/","en-US,en;q=0.9","6743c8da977b0d274dad1fc2","683db9eb0562dbf637994deb","68808146c5486920aa5cf889","2","1","6743c8da977b0d274dad1fc2","2","1","2025-07-23T06:48:17.010Z","","","","","","","","","","","AttribQ","","50","","","","","","","","","","","","","","","","","","","","","","","","","","","","",""
"3988","","<div style=""width:500px;"">
  <p>How much control did you have over the ball?</p>
  </div>","68","html-slider-response","61","624562","0.0-5.0-2.10","156","1","2025-07-23 06:37:53","1f75c3e559b7213887762d5229550c2b","216.120.189.41","Mozilla/5.0 (Windows NT 10.0; Win64; x64) AppleWebKit/537.36 (KHTML, like Gecko) Chrome/138.0.0.0 Safari/537.36","WebKit","Chrome","138.0.0.0","Windows","10.0","https://app.prolific.com/","en-US,en;q=0.9","6743c8da977b0d274dad1fc2","683db9eb0562dbf637994deb","68808146c5486920aa5cf889","2","1","6743c8da977b0d274dad1fc2","2","1","2025-07-23T06:48:20.999Z","","","","","","","","","","","ControlQ","","50","","","","","","","","","","","","","","","","","","","","","","","","","","","","",""
"5295","","<div style=""width:500px;"">
  <p>How would you describe your current emotional state?</p>
  </div>","0","html-slider-response","62","629859","0.0-5.0-3.10","156","1","2025-07-23 06:37:53","1f75c3e559b7213887762d5229550c2b","216.120.189.41","Mozilla/5.0 (Windows NT 10.0; Win64; x64) AppleWebKit/537.36 (KHTML, like Gecko) Chrome/138.0.0.0 Safari/537.36","WebKit","Chrome","138.0.0.0","Windows","10.0","https://app.prolific.com/","en-US,en;q=0.9","6743c8da977b0d274dad1fc2","683db9eb0562dbf637994deb","68808146c5486920aa5cf889","2","1","6743c8da977b0d274dad1fc2","2","1","2025-07-23T06:48:26.296Z","","","","","","","","","","","StressQ","","50","","","","","","","","","","","","","","","","","","","","","","","","","","","","",""
"4055","","<div style=""width:500px;"">
  <p>What best describes how you currently feel?</p>
  </div>","100","html-slider-response","63","633914","0.0-5.0-4.10","156","1","2025-07-23 06:37:53","1f75c3e559b7213887762d5229550c2b","216.120.189.41","Mozilla/5.0 (Windows NT 10.0; Win64; x64) AppleWebKit/537.36 (KHTML, like Gecko) Chrome/138.0.0.0 Safari/537.36","WebKit","Chrome","138.0.0.0","Windows","10.0","https://app.prolific.com/","en-US,en;q=0.9","6743c8da977b0d274dad1fc2","683db9eb0562dbf637994deb","68808146c5486920aa5cf889","2","1","6743c8da977b0d274dad1fc2","2","1","2025-07-23T06:48:30.351Z","","","","","","","","","","","MotivationQ","","50","","","","","","","","","","","","","","","","","","","","","","","","","","","","",""
"","","","","ctl-task-cpt","64","669182","0.0-5.0-0.11","156","1","2025-07-23 06:37:53","1f75c3e559b7213887762d5229550c2b","216.120.189.41","Mozilla/5.0 (Windows NT 10.0; Win64; x64) AppleWebKit/537.36 (KHTML, like Gecko) Chrome/138.0.0.0 Safari/537.36","WebKit","Chrome","138.0.0.0","Windows","10.0","https://app.prolific.com/","en-US,en;q=0.9","6743c8da977b0d274dad1fc2","683db9eb0562dbf637994deb","68808146c5486920aa5cf889","2","1","6743c8da977b0d274dad1fc2","2","1","2025-07-23T06:49:05.619Z","","","","","","","","","","","","","","win-only","3","g1:SW,g2:NE","0.6","12","0","637622.6","1519.9","6521.1","32256.1","1","4","8","6","2","8","8","8","0","0.06060606060606061","1239.7","3000","275","[""up"",""right""]","{""num_key_presses"":6,""num_perfect"":4,""num_errors"":0,""num_randdir"":2,""num_randdir_good_moves"":2,""num_whilered"":0,""num_whileblue"":0,""num_blue"":2,""num_good_moves"":6}","[263.896875,260.303125,1.9,263.896875,260.303125,107,263.896875,260.303125,215.1,257.896875,259.303125,323.9,228.896875,284.303125,434.7,172.896875,313.303125,539.5,272.896875,236.303125,646.1,402.896875,65.303125,757.9,404.896875,50.303125,859.8,409.896875,49.303125,963.9,437.896875,51.303125,1070.2,453.896875,57.303125,1174.5,457.896875,57.303125,1280.8,457.896875,57.303125,1383.6,457.896875,62.303125,1494.7,462.896875,80.303125,1598.2,477.896875,127.303125,1704.4,450.896875,171.303125,1805,442.896875,178.303125,1912.2,391.896875,189.303125,2016.1,371.896875,201.303125,2120.6,371.896875,201.303125,2232.2,371.896875,201.303125,2336,370.896875,199.303125,2439.7,365.896875,189.303125,2544.4,361.896875,184.303125,2645.6,347.896875,188.303125,2749.4,335.896875,193.303125,2864.1,324.896875,185.303125,2970.6,319.896875,167.303125,3076.9,319.896875,167.303125,3177.1,289.896875,202.303125,3281.7,275.896875,213.303125,3384.4,270.896875,227.303125,3485.7,269.896875,228.303125,3588.1,269.896875,228.303125,3692.8,268.896875,227.303125,3793.8,268.896875,227.303125,3896.7,268.896875,223.303125,3997.4,267.896875,207.303125,4104,267.896875,205.303125,4205.5,267.896875,204.303125,4307.5,273.896875,192.303125,4413,277.896875,180.303125,4513.9,277.896875,175.303125,4621.6,278.896875,172.303125,4729.5,279.896875,169.303125,4835.4,240.896875,254.303125,4948.3]","[2343.7,2343.7,1000,0,1343.7,""oops"",""up"",""right"",""good_move"",9312,6967.5,2992.9,5954.5,364.6,""smooth"",""up"",""up"",""good_move"",13317.1,4004.6,2944.5,9312.5,1060.1,""smooth"",""up"",""up"",""good_move"",16304.2,2986.6,2555.8,13317.7,430.8,""smooth"",""up"",""up"",""good_move"",22045.1,5740.3,1756.5,19872.8,415.8,""smooth"",""right"",""right"",""good_move"",25607,3561.4,3135.7,22045.6,425.7,""oops"",""right"",""right"",""good_move""]","",""
"3180","","<div style=""width:500px;"">
  <p>What determined the result of this run?</p>
  </div>","100","html-slider-response","65","672363","0.0-5.0-1.11","156","1","2025-07-23 06:37:53","1f75c3e559b7213887762d5229550c2b","216.120.189.41","Mozilla/5.0 (Windows NT 10.0; Win64; x64) AppleWebKit/537.36 (KHTML, like Gecko) Chrome/138.0.0.0 Safari/537.36","WebKit","Chrome","138.0.0.0","Windows","10.0","https://app.prolific.com/","en-US,en;q=0.9","6743c8da977b0d274dad1fc2","683db9eb0562dbf637994deb","68808146c5486920aa5cf889","2","1","6743c8da977b0d274dad1fc2","2","1","2025-07-23T06:49:08.800Z","","","","","","","","","","","AttribQ","","50","","","","","","","","","","","","","","","","","","","","","","","","","","","","",""
"2078","","<div style=""width:500px;"">
  <p>How much control did you have over the ball?</p>
  </div>","100","html-slider-response","66","674442","0.0-5.0-2.11","156","1","2025-07-23 06:37:53","1f75c3e559b7213887762d5229550c2b","216.120.189.41","Mozilla/5.0 (Windows NT 10.0; Win64; x64) AppleWebKit/537.36 (KHTML, like Gecko) Chrome/138.0.0.0 Safari/537.36","WebKit","Chrome","138.0.0.0","Windows","10.0","https://app.prolific.com/","en-US,en;q=0.9","6743c8da977b0d274dad1fc2","683db9eb0562dbf637994deb","68808146c5486920aa5cf889","2","1","6743c8da977b0d274dad1fc2","2","1","2025-07-23T06:49:10.879Z","","","","","","","","","","","ControlQ","","50","","","","","","","","","","","","","","","","","","","","","","","","","","","","",""
"2998","","<div style=""width:500px;"">
  <p>How would you describe your current emotional state?</p>
  </div>","0","html-slider-response","67","677442","0.0-5.0-3.11","156","1","2025-07-23 06:37:53","1f75c3e559b7213887762d5229550c2b","216.120.189.41","Mozilla/5.0 (Windows NT 10.0; Win64; x64) AppleWebKit/537.36 (KHTML, like Gecko) Chrome/138.0.0.0 Safari/537.36","WebKit","Chrome","138.0.0.0","Windows","10.0","https://app.prolific.com/","en-US,en;q=0.9","6743c8da977b0d274dad1fc2","683db9eb0562dbf637994deb","68808146c5486920aa5cf889","2","1","6743c8da977b0d274dad1fc2","2","1","2025-07-23T06:49:13.879Z","","","","","","","","","","","StressQ","","50","","","","","","","","","","","","","","","","","","","","","","","","","","","","",""
"2599","","<div style=""width:500px;"">
  <p>What best describes how you currently feel?</p>
  </div>","100","html-slider-response","68","680043","0.0-5.0-4.11","156","1","2025-07-23 06:37:53","1f75c3e559b7213887762d5229550c2b","216.120.189.41","Mozilla/5.0 (Windows NT 10.0; Win64; x64) AppleWebKit/537.36 (KHTML, like Gecko) Chrome/138.0.0.0 Safari/537.36","WebKit","Chrome","138.0.0.0","Windows","10.0","https://app.prolific.com/","en-US,en;q=0.9","6743c8da977b0d274dad1fc2","683db9eb0562dbf637994deb","68808146c5486920aa5cf889","2","1","6743c8da977b0d274dad1fc2","2","1","2025-07-23T06:49:16.480Z","","","","","","","","","","","MotivationQ","","50","","","","","","","","","","","","","","","","","","","","","","","","","","","","",""
"","","","","ctl-task-cpt","69","725179","0.0-5.0-0.12","156","1","2025-07-23 06:37:53","1f75c3e559b7213887762d5229550c2b","216.120.189.41","Mozilla/5.0 (Windows NT 10.0; Win64; x64) AppleWebKit/537.36 (KHTML, like Gecko) Chrome/138.0.0.0 Safari/537.36","WebKit","Chrome","138.0.0.0","Windows","10.0","https://app.prolific.com/","en-US,en;q=0.9","6743c8da977b0d274dad1fc2","683db9eb0562dbf637994deb","68808146c5486920aa5cf889","2","1","6743c8da977b0d274dad1fc2","2","1","2025-07-23T06:50:01.616Z","","","","","","","","","","","","","","win-only","0","g1:NW,g2:SE","0.7","13","0","683751.9","1893","6900.7","42113.1","1","4","4","6","2","-4","-4","4","8","0.030303030303030304","1031.6","3000","-1845","[""down"",""right""]","{""num_key_presses"":9,""num_perfect"":6,""num_errors"":0,""num_randdir"":3,""num_randdir_good_moves"":1,""num_whilered"":0,""num_whileblue"":0,""num_blue"":2,""num_good_moves"":7}","[260.896875,260.303125,0.3,260.896875,260.303125,106.5,260.896875,260.303125,209.3,268.896875,277.303125,318.3,335.896875,346.303125,423.8,366.896875,367.303125,526.4,389.896875,374.303125,627.8,433.896875,410.303125,729.2,476.896875,446.303125,829.5,478.896875,446.303125,936.5,479.896875,450.303125,1044.6,479.896875,451.303125,1148.7,481.896875,452.303125,1256.2,483.896875,454.303125,1359.1,485.896875,454.303125,1463.7,433.896875,419.303125,1571.1,365.896875,381.303125,1675.9,350.896875,369.303125,1779.5,321.896875,355.303125,1883.6,266.896875,321.303125,1991.3,210.896875,288.303125,2096.3,151.896875,253.303125,2199.3,130.896875,242.303125,2302.5,130.896875,242.303125,2404.1,109.896875,553.303125,2506,109.896875,553.303125,2609.4,109.896875,553.303125,2714.2,148.896875,592.303125,2818,148.896875,592.303125,2918.7,148.896875,592.303125,3026.1,148.896875,592.303125,3129.4,148.896875,592.303125,3234.4,148.896875,592.303125,3336.2,148.896875,592.303125,3442.2,148.896875,592.303125,3551,339.896875,515.303125,3657.8,384.896875,461.303125,3760.1,432.896875,414.303125,3860.2,440.896875,408.303125,3962.8,440.896875,408.303125,4066.3,440.896875,408.303125,4173.3,440.896875,408.303125,4273.5,440.896875,408.303125,4386.6,440.896875,408.303125,4488,440.896875,408.303125,4588.5,440.896875,408.303125,4691.1,440.896875,408.303125,4791.6,440.896875,408.303125,4892.3,440.896875,408.303125,4992.4]","[4632.5,4632.5,2169.7,2009.5,453.3,""oops"",""down"",""left"",""bad_move"",11471.7,6838.6,2075.9,8825.4,570.4,""smooth"",""down"",""down"",""good_move"",14341.4,2869,2342.6,11472.5,526.3,""smooth"",""down"",""down"",""good_move"",16978.4,2636.8,2173.1,14341.6,463.7,""smooth"",""down"",""down"",""good_move"",19506.9,2527.8,2025,16979.1,502.8,""oops"",""right"",""left"",""bad_move"",23056.6,3549,3182.4,19507.6,366.6,""oops"",""right"",""right"",""good_move"",26195,3138,2691.4,23057,446.6,""smooth"",""right"",""right"",""good_move"",29362.3,3166.6,2734.1,26195.8,432.4,""smooth"",""right"",""right"",""good_move"",32211.3,2848.2,2533.2,29363.1,315,""smooth"",""right"",""right"",""good_move""]","",""
"6807","","<div style=""width:500px;"">
  <p>What determined the result of this run?</p>
  </div>","68","html-slider-response","70","731987","0.0-5.0-1.12","156","1","2025-07-23 06:37:53","1f75c3e559b7213887762d5229550c2b","216.120.189.41","Mozilla/5.0 (Windows NT 10.0; Win64; x64) AppleWebKit/537.36 (KHTML, like Gecko) Chrome/138.0.0.0 Safari/537.36","WebKit","Chrome","138.0.0.0","Windows","10.0","https://app.prolific.com/","en-US,en;q=0.9","6743c8da977b0d274dad1fc2","683db9eb0562dbf637994deb","68808146c5486920aa5cf889","2","1","6743c8da977b0d274dad1fc2","2","1","2025-07-23T06:50:08.425Z","","","","","","","","","","","AttribQ","","50","","","","","","","","","","","","","","","","","","","","","","","","","","","","",""
"1893","","<div style=""width:500px;"">
  <p>How much control did you have over the ball?</p>
  </div>","55","html-slider-response","71","733883","0.0-5.0-2.12","156","1","2025-07-23 06:37:53","1f75c3e559b7213887762d5229550c2b","216.120.189.41","Mozilla/5.0 (Windows NT 10.0; Win64; x64) AppleWebKit/537.36 (KHTML, like Gecko) Chrome/138.0.0.0 Safari/537.36","WebKit","Chrome","138.0.0.0","Windows","10.0","https://app.prolific.com/","en-US,en;q=0.9","6743c8da977b0d274dad1fc2","683db9eb0562dbf637994deb","68808146c5486920aa5cf889","2","1","6743c8da977b0d274dad1fc2","2","1","2025-07-23T06:50:10.320Z","","","","","","","","","","","ControlQ","","50","","","","","","","","","","","","","","","","","","","","","","","","","","","","",""
"2711","","<div style=""width:500px;"">
  <p>How would you describe your current emotional state?</p>
  </div>","0","html-slider-response","72","736595","0.0-5.0-3.12","156","1","2025-07-23 06:37:53","1f75c3e559b7213887762d5229550c2b","216.120.189.41","Mozilla/5.0 (Windows NT 10.0; Win64; x64) AppleWebKit/537.36 (KHTML, like Gecko) Chrome/138.0.0.0 Safari/537.36","WebKit","Chrome","138.0.0.0","Windows","10.0","https://app.prolific.com/","en-US,en;q=0.9","6743c8da977b0d274dad1fc2","683db9eb0562dbf637994deb","68808146c5486920aa5cf889","2","1","6743c8da977b0d274dad1fc2","2","1","2025-07-23T06:50:13.033Z","","","","","","","","","","","StressQ","","50","","","","","","","","","","","","","","","","","","","","","","","","","","","","",""
"3156","","<div style=""width:500px;"">
  <p>What best describes how you currently feel?</p>
  </div>","100","html-slider-response","73","739754","0.0-5.0-4.12","156","1","2025-07-23 06:37:53","1f75c3e559b7213887762d5229550c2b","216.120.189.41","Mozilla/5.0 (Windows NT 10.0; Win64; x64) AppleWebKit/537.36 (KHTML, like Gecko) Chrome/138.0.0.0 Safari/537.36","WebKit","Chrome","138.0.0.0","Windows","10.0","https://app.prolific.com/","en-US,en;q=0.9","6743c8da977b0d274dad1fc2","683db9eb0562dbf637994deb","68808146c5486920aa5cf889","2","1","6743c8da977b0d274dad1fc2","2","1","2025-07-23T06:50:16.191Z","","","","","","","","","","","MotivationQ","","50","","","","","","","","","","","","","","","","","","","","","","","","","","","","",""
"","","","","ctl-task-cpt","74","811890","0.0-5.0-0.13","156","1","2025-07-23 06:37:53","1f75c3e559b7213887762d5229550c2b","216.120.189.41","Mozilla/5.0 (Windows NT 10.0; Win64; x64) AppleWebKit/537.36 (KHTML, like Gecko) Chrome/138.0.0.0 Safari/537.36","WebKit","Chrome","138.0.0.0","Windows","10.0","https://app.prolific.com/","en-US,en;q=0.9","6743c8da977b0d274dad1fc2","683db9eb0562dbf637994deb","68808146c5486920aa5cf889","2","1","6743c8da977b0d274dad1fc2","2","1","2025-07-23T06:51:28.328Z","","","","","","","","","","","","","","win-only","1","g1:NE,g2:SW","0.8","14","0","743462.2","21829.3","26859.8","69083.3","1","4","8","6","2","8","8","12","4","0.09090909090909091","2665.4","3000","2410","[""down"",""left""]","{""num_key_presses"":8,""num_perfect"":7,""num_errors"":0,""num_randdir"":1,""num_randdir_good_moves"":0,""num_whilered"":0,""num_whileblue"":0,""num_blue"":2,""num_good_moves"":7}","[264.896875,267.303125,0.9,264.896875,267.303125,104.4,264.896875,267.303125,213.9,264.896875,267.303125,321.5,264.896875,267.303125,449,264.896875,267.303125,565,264.896875,267.303125,676.6,264.896875,267.303125,795.5,264.896875,267.303125,913.8,264.896875,267.303125,1015.4,48.896875,544.303125,1135.7,23.896875,585.303125,1250,23.896875,585.303125,1358.6,22.896875,569.303125,1462.2,37.896875,509.303125,1602.3,41.896875,494.303125,1712.5,69.896875,419.303125,1814.9,71.896875,417.303125,1917.1,71.896875,417.303125,2017.3,71.896875,417.303125,2135.9,58.896875,451.303125,2237.4,57.896875,477.303125,2341.3,55.896875,482.303125,2466,55.896875,482.303125,2567.1,55.896875,482.303125,2674.5,55.896875,482.303125,2784.4,55.896875,482.303125,2899.4,55.896875,482.303125,3002.1,55.896875,482.303125,3112.2,55.896875,482.303125,3228.9,55.896875,482.303125,3340.5,55.896875,482.303125,3452.8,55.896875,482.303125,3561.6,55.896875,482.303125,3675.3,55.896875,482.303125,3786.5,55.896875,482.303125,3900.6,55.896875,482.303125,4010.8,55.896875,482.303125,4117.3,55.896875,482.303125,4231.5,55.896875,482.303125,4346,55.896875,482.303125,4453.2,55.896875,482.303125,4566.8,55.896875,482.303125,4672.2,55.896875,482.303125,4789.3,55.896875,482.303125,4906.4]","[1432.3,1432.3,1000,0,432.3,""smooth"",""down"",""down"",""good_move"",4675.8,3243,2736.2,1432.8,506.8,""oops"",""down"",""up"",""bad_move"",9904.4,5227.9,2169.7,4676.5,3058.2,""smooth"",""left"",""left"",""good_move"",18876.8,8971.5,2603.2,15800.3,473.3,""smooth"",""left"",""left"",""good_move"",24457,5579.8,2317.4,18877.2,3262.4,""smooth"",""down"",""down"",""good_move"",31925.3,7468,3396,28028.7,500.6,""smooth"",""left"",""left"",""good_move"",37688.7,5763.1,2258,31925.6,3505.1,""smooth"",""down"",""down"",""good_move"",41308.4,3619.5,3039,37688.9,580.5,""smooth"",""down"",""down"",""good_move""]","",""
"4200","","<div style=""width:500px;"">
  <p>What determined the result of this run?</p>
  </div>","100","html-slider-response","75","816094","0.0-5.0-1.13","156","1","2025-07-23 06:37:53","1f75c3e559b7213887762d5229550c2b","216.120.189.41","Mozilla/5.0 (Windows NT 10.0; Win64; x64) AppleWebKit/537.36 (KHTML, like Gecko) Chrome/138.0.0.0 Safari/537.36","WebKit","Chrome","138.0.0.0","Windows","10.0","https://app.prolific.com/","en-US,en;q=0.9","6743c8da977b0d274dad1fc2","683db9eb0562dbf637994deb","68808146c5486920aa5cf889","2","1","6743c8da977b0d274dad1fc2","2","1","2025-07-23T06:51:32.531Z","","","","","","","","","","","AttribQ","","50","","","","","","","","","","","","","","","","","","","","","","","","","","","","",""
"4574","","<div style=""width:500px;"">
  <p>How much control did you have over the ball?</p>
  </div>","84","html-slider-response","76","820672","0.0-5.0-2.13","156","1","2025-07-23 06:37:53","1f75c3e559b7213887762d5229550c2b","216.120.189.41","Mozilla/5.0 (Windows NT 10.0; Win64; x64) AppleWebKit/537.36 (KHTML, like Gecko) Chrome/138.0.0.0 Safari/537.36","WebKit","Chrome","138.0.0.0","Windows","10.0","https://app.prolific.com/","en-US,en;q=0.9","6743c8da977b0d274dad1fc2","683db9eb0562dbf637994deb","68808146c5486920aa5cf889","2","1","6743c8da977b0d274dad1fc2","2","1","2025-07-23T06:51:37.109Z","","","","","","","","","","","ControlQ","","50","","","","","","","","","","","","","","","","","","","","","","","","","","","","",""
"4736","","<div style=""width:500px;"">
  <p>How would you describe your current emotional state?</p>
  </div>","0","html-slider-response","77","825410","0.0-5.0-3.13","156","1","2025-07-23 06:37:53","1f75c3e559b7213887762d5229550c2b","216.120.189.41","Mozilla/5.0 (Windows NT 10.0; Win64; x64) AppleWebKit/537.36 (KHTML, like Gecko) Chrome/138.0.0.0 Safari/537.36","WebKit","Chrome","138.0.0.0","Windows","10.0","https://app.prolific.com/","en-US,en;q=0.9","6743c8da977b0d274dad1fc2","683db9eb0562dbf637994deb","68808146c5486920aa5cf889","2","1","6743c8da977b0d274dad1fc2","2","1","2025-07-23T06:51:41.847Z","","","","","","","","","","","StressQ","","50","","","","","","","","","","","","","","","","","","","","","","","","","","","","",""
"7365","","<div style=""width:500px;"">
  <p>What best describes how you currently feel?</p>
  </div>","100","html-slider-response","78","832777","0.0-5.0-4.13","156","1","2025-07-23 06:37:53","1f75c3e559b7213887762d5229550c2b","216.120.189.41","Mozilla/5.0 (Windows NT 10.0; Win64; x64) AppleWebKit/537.36 (KHTML, like Gecko) Chrome/138.0.0.0 Safari/537.36","WebKit","Chrome","138.0.0.0","Windows","10.0","https://app.prolific.com/","en-US,en;q=0.9","6743c8da977b0d274dad1fc2","683db9eb0562dbf637994deb","68808146c5486920aa5cf889","2","1","6743c8da977b0d274dad1fc2","2","1","2025-07-23T06:51:49.214Z","","","","","","","","","","","MotivationQ","","50","","","","","","","","","","","","","","","","","","","","","","","","","","","","",""
"","","","","ctl-task-cpt","79","871075","0.0-5.0-0.14","156","1","2025-07-23 06:37:53","1f75c3e559b7213887762d5229550c2b","216.120.189.41","Mozilla/5.0 (Windows NT 10.0; Win64; x64) AppleWebKit/537.36 (KHTML, like Gecko) Chrome/138.0.0.0 Safari/537.36","WebKit","Chrome","138.0.0.0","Windows","10.0","https://app.prolific.com/","en-US,en;q=0.9","6743c8da977b0d274dad1fc2","683db9eb0562dbf637994deb","68808146c5486920aa5cf889","2","1","6743c8da977b0d274dad1fc2","2","1","2025-07-23T06:52:27.512Z","","","","","","","","","","","","","","win-only","1","g1:NE,g2:SW","0.9","15","0","836486.1","3137","8151.1","35282.2","1","4","8","6","2","8","8","20","12","0.15151515151515152","1233.7","3000","2055","[""down"",""left""]","{""num_key_presses"":6,""num_perfect"":6,""num_errors"":0,""num_randdir"":0,""num_randdir_good_moves"":0,""num_whilered"":0,""num_whileblue"":0,""num_blue"":2,""num_good_moves"":6}","[259.896875,261.303125,0.7,259.896875,261.303125,117.4,259.896875,261.303125,232.6,259.896875,261.303125,347.5,259.896875,261.303125,452.3,176.896875,345.303125,563.7,55.896875,492.303125,670.8,53.896875,505.303125,778.9,53.896875,505.303125,899.1,52.896875,505.303125,1029.8,52.896875,505.303125,1150.8,52.896875,505.303125,1256.3,52.896875,505.303125,1367.3,52.896875,505.303125,1486.4,52.896875,505.303125,1605.8,52.896875,505.303125,1714.4,52.896875,505.303125,1835.8,52.896875,505.303125,1946.5,52.896875,505.303125,2053.5,52.896875,505.303125,2172.8,52.896875,505.303125,2292.7,52.896875,505.303125,2405.8,52.896875,505.303125,2510.5,52.896875,505.303125,2614.6,52.896875,505.303125,2749.5,52.896875,505.303125,2849.5,52.896875,505.303125,2960,52.896875,505.303125,3064.7,52.896875,505.303125,3185,52.896875,505.303125,3289.4,52.896875,505.303125,3416.9,52.896875,505.303125,3541.7,52.896875,505.303125,3665.9,52.896875,505.303125,3780.3,52.896875,505.303125,3883.7,52.896875,505.303125,3999.7,52.896875,505.303125,4105.2,52.896875,505.303125,4206.7,52.896875,505.303125,4309.3,52.896875,505.303125,4413,52.896875,505.303125,4516.2,52.896875,505.303125,4616.6,52.896875,505.303125,4735.7,52.896875,505.303125,4837.7,52.896875,505.303125,4955.2]","[1842.3,1842.3,1000,0,842.4,""smooth"",""down"",""down"",""good_move"",8753.3,6909.5,2888.1,5365.7,499.5,""smooth"",""left"",""left"",""good_move"",17303.4,8549.7,2012.6,14870.4,420.4,""smooth"",""down"",""down"",""good_move"",20100.4,2796.1,2157.7,17304.4,638.4,""smooth"",""left"",""left"",""good_move"",23840.2,3739.1,2852.6,20101.1,886.5,""smooth"",""down"",""down"",""good_move"",26901.7,3060.5,2483.4,23841.3,577.1,""smooth"",""left"",""left"",""good_move""]","",""
"3553","","<div style=""width:500px;"">
  <p>What determined the result of this run?</p>
  </div>","100","html-slider-response","80","874630","0.0-5.0-1.14","156","1","2025-07-23 06:37:53","1f75c3e559b7213887762d5229550c2b","216.120.189.41","Mozilla/5.0 (Windows NT 10.0; Win64; x64) AppleWebKit/537.36 (KHTML, like Gecko) Chrome/138.0.0.0 Safari/537.36","WebKit","Chrome","138.0.0.0","Windows","10.0","https://app.prolific.com/","en-US,en;q=0.9","6743c8da977b0d274dad1fc2","683db9eb0562dbf637994deb","68808146c5486920aa5cf889","2","1","6743c8da977b0d274dad1fc2","2","1","2025-07-23T06:52:31.067Z","","","","","","","","","","","AttribQ","","50","","","","","","","","","","","","","","","","","","","","","","","","","","","","",""
"8533","","<div style=""width:500px;"">
  <p>How much control did you have over the ball?</p>
  </div>","100","html-slider-response","81","883165","0.0-5.0-2.14","156","1","2025-07-23 06:37:53","1f75c3e559b7213887762d5229550c2b","216.120.189.41","Mozilla/5.0 (Windows NT 10.0; Win64; x64) AppleWebKit/537.36 (KHTML, like Gecko) Chrome/138.0.0.0 Safari/537.36","WebKit","Chrome","138.0.0.0","Windows","10.0","https://app.prolific.com/","en-US,en;q=0.9","6743c8da977b0d274dad1fc2","683db9eb0562dbf637994deb","68808146c5486920aa5cf889","2","1","6743c8da977b0d274dad1fc2","2","1","2025-07-23T06:52:39.602Z","","","","","","","","","","","ControlQ","","50","","","","","","","","","","","","","","","","","","","","","","","","","","","","",""
"3861","","<div style=""width:500px;"">
  <p>How would you describe your current emotional state?</p>
  </div>","0","html-slider-response","82","887028","0.0-5.0-3.14","156","1","2025-07-23 06:37:53","1f75c3e559b7213887762d5229550c2b","216.120.189.41","Mozilla/5.0 (Windows NT 10.0; Win64; x64) AppleWebKit/537.36 (KHTML, like Gecko) Chrome/138.0.0.0 Safari/537.36","WebKit","Chrome","138.0.0.0","Windows","10.0","https://app.prolific.com/","en-US,en;q=0.9","6743c8da977b0d274dad1fc2","683db9eb0562dbf637994deb","68808146c5486920aa5cf889","2","1","6743c8da977b0d274dad1fc2","2","1","2025-07-23T06:52:43.465Z","","","","","","","","","","","StressQ","","50","","","","","","","","","","","","","","","","","","","","","","","","","","","","",""
"4255","","<div style=""width:500px;"">
  <p>What best describes how you currently feel?</p>
  </div>","100","html-slider-response","83","891285","0.0-5.0-4.14","156","1","2025-07-23 06:37:53","1f75c3e559b7213887762d5229550c2b","216.120.189.41","Mozilla/5.0 (Windows NT 10.0; Win64; x64) AppleWebKit/537.36 (KHTML, like Gecko) Chrome/138.0.0.0 Safari/537.36","WebKit","Chrome","138.0.0.0","Windows","10.0","https://app.prolific.com/","en-US,en;q=0.9","6743c8da977b0d274dad1fc2","683db9eb0562dbf637994deb","68808146c5486920aa5cf889","2","1","6743c8da977b0d274dad1fc2","2","1","2025-07-23T06:52:47.722Z","","","","","","","","","","","MotivationQ","","50","","","","","","","","","","","","","","","","","","","","","","","","","","","","",""
"","","","","ctl-task-cpt","84","924691","0.0-5.0-0.15","156","1","2025-07-23 06:37:53","1f75c3e559b7213887762d5229550c2b","216.120.189.41","Mozilla/5.0 (Windows NT 10.0; Win64; x64) AppleWebKit/537.36 (KHTML, like Gecko) Chrome/138.0.0.0 Safari/537.36","WebKit","Chrome","138.0.0.0","Windows","10.0","https://app.prolific.com/","en-US,en;q=0.9","6743c8da977b0d274dad1fc2","683db9eb0562dbf637994deb","68808146c5486920aa5cf889","2","1","6743c8da977b0d274dad1fc2","2","1","2025-07-23T06:53:21.129Z","","","","","","","","","","","","","","win-only","1","g1:NE,g2:SW","0.8","16","0","894994.4","1890.2","6897.1","30377.6","1","4","4","6","2","4","4","24","20","0.18181818181818182","1836.5","3000","2075","[""down"",""left""]","{""num_key_presses"":6,""num_perfect"":4,""num_errors"":0,""num_randdir"":2,""num_randdir_good_moves"":2,""num_whilered"":0,""num_whileblue"":0,""num_blue"":1,""num_good_moves"":6}","[259.896875,256.303125,1.6,259.896875,256.303125,116.9,259.896875,256.303125,228.6,259.896875,256.303125,342.9,259.896875,256.303125,445.2,259.896875,256.303125,546.6,270.896875,242.303125,660.4,317.896875,211.303125,764.4,259.896875,160.303125,878.3,110.896875,439.303125,994.9,110.896875,474.303125,1098.7,110.896875,474.303125,1208.6,99.896875,474.303125,1313.3,75.896875,472.303125,1415.6,71.896875,476.303125,1520.6,69.896875,477.303125,1625.3,69.896875,477.303125,1736.9,69.896875,477.303125,1855.7,69.896875,477.303125,1961.2,69.896875,477.303125,2062.5,69.896875,477.303125,2171,69.896875,477.303125,2271,69.896875,477.303125,2373.9,69.896875,477.303125,2477.6,69.896875,477.303125,2578.2,69.896875,477.303125,2682.7,69.896875,477.303125,2786.5,69.896875,477.303125,2887.6,149.896875,396.303125,2996.1,201.896875,367.303125,3107.2,231.896875,338.303125,3212.4,231.896875,338.303125,3319.5,231.896875,338.303125,3427.2,268.896875,327.303125,3540,291.896875,329.303125,3641.8,291.896875,329.303125,3743.5,291.896875,329.303125,3849.2,291.896875,329.303125,3958.4,291.896875,329.303125,4087.2,291.896875,329.303125,4200.1,291.896875,329.303125,4301.3,291.896875,329.303125,4406.1,291.896875,329.303125,4509.5,291.896875,329.303125,4616.3,291.896875,329.303125,4726.5,291.896875,329.303125,4834.8,291.896875,329.303125,4935.6]","[1596.4,1596.4,1000,0,596.4,""oops"",""down"",""down"",""good_move"",7457.9,5860.4,2712.4,4312.9,432.6,""smooth"",""left"",""left"",""good_move"",12343.2,4884.6,2553.5,7458.6,2331.1,""smooth"",""left"",""left"",""good_move"",17097.7,4753,1848.1,12344.8,2904.9,""smooth"",""down"",""down"",""good_move"",20650.4,3551.5,3097.3,17098.9,454.2,""oops"",""left"",""down"",""good_move"",23243.8,2592.8,1886.1,20651,706.7,""smooth"",""left"",""left"",""good_move""]","",""
"3324","","<div style=""width:500px;"">
  <p>What determined the result of this run?</p>
  </div>","100","html-slider-response","85","928018","0.0-5.0-1.15","156","1","2025-07-23 06:37:53","1f75c3e559b7213887762d5229550c2b","216.120.189.41","Mozilla/5.0 (Windows NT 10.0; Win64; x64) AppleWebKit/537.36 (KHTML, like Gecko) Chrome/138.0.0.0 Safari/537.36","WebKit","Chrome","138.0.0.0","Windows","10.0","https://app.prolific.com/","en-US,en;q=0.9","6743c8da977b0d274dad1fc2","683db9eb0562dbf637994deb","68808146c5486920aa5cf889","2","1","6743c8da977b0d274dad1fc2","2","1","2025-07-23T06:53:24.455Z","","","","","","","","","","","AttribQ","","50","","","","","","","","","","","","","","","","","","","","","","","","","","","","",""
"5929","","<div style=""width:500px;"">
  <p>How much control did you have over the ball?</p>
  </div>","97","html-slider-response","86","933948","0.0-5.0-2.15","156","1","2025-07-23 06:37:53","1f75c3e559b7213887762d5229550c2b","216.120.189.41","Mozilla/5.0 (Windows NT 10.0; Win64; x64) AppleWebKit/537.36 (KHTML, like Gecko) Chrome/138.0.0.0 Safari/537.36","WebKit","Chrome","138.0.0.0","Windows","10.0","https://app.prolific.com/","en-US,en;q=0.9","6743c8da977b0d274dad1fc2","683db9eb0562dbf637994deb","68808146c5486920aa5cf889","2","1","6743c8da977b0d274dad1fc2","2","1","2025-07-23T06:53:30.385Z","","","","","","","","","","","ControlQ","","50","","","","","","","","","","","","","","","","","","","","","","","","","","","","",""
"3984","","<div style=""width:500px;"">
  <p>How would you describe your current emotional state?</p>
