"rt","response_timestamp","stimulus","response","trial_type","trial_index","time_elapsed","internal_node_id","run_id","condition","recorded_at","source_code_version","ip","user_agent","device","browser","browser_version","platform","platform_version","referer","accept_language","PROLIFIC_PID","STUDY_ID","SESSION_ID","WEEK","BATCH","prolific_id","week","batch","realtime","success","responses","item_order","radio_event_ids","radio_event_times","key_event_times","mouse_event_times","straightlining","zigzagging","honeypot","eventType","view_history","slider_start","which_type","canvas_config","goals_layout","control_level","trial_number","tutorial_trial_number","trial_start_time","phase1_start_time","phase2_start_time","phase3_start_time","goal_1_value","goal_1_distance","goal_2_value","goal_2_distance","goal_selected","outcome","outcome_total","participant_final_score","participant_initial_score","participant_final_score_prop","goal_choice_rt","allocated_time","allocated_time_remaining","goal_direction","counts","mouse_movements","key_presses","question_order","question_id"
"3622","1753255099262","<p style='font-size:40px;line-height:1.25'><strong>Welcome to the experiment!</strong></p><p style='font-size:1.1em;line-height:1.25'>Thank you for participanting in our experiment again! You will be asked to play the Dysfunctional Ball Game again. We will briefly recap the rules before we start.</p><p style='font-size:1.1em;line-height:1.25'>Press <strong>Next</strong> to continue.</p>","0","custom-html-button-response","0","3625","0.0-0.0","171","1","2025-07-23 07:18:12","1f75c3e559b7213887762d5229550c2b","86.158.68.150","Mozilla/5.0 (Windows NT 10.0; Win64; x64) AppleWebKit/537.36 (KHTML, like Gecko) Chrome/138.0.0.0 Safari/537.36","WebKit","Chrome","138.0.0.0","Windows","10.0","https://app.prolific.com/","en-US,en;q=0.9","5d1290103b20b0000102e8e3","683dba2a8a9dda3513610c04","68808bdf63a5a19f12f06260","3","0","5d1290103b20b0000102e8e3","3","0","2025-07-23T07:18:19.265Z","","","","","","","","","","","","","","","","","","","","","","","","","","","","","","","","","","","","","","","","","",""
"5002","","","","fullscreen","1","9654","0.0-1.0","171","1","2025-07-23 07:18:12","1f75c3e559b7213887762d5229550c2b","86.158.68.150","Mozilla/5.0 (Windows NT 10.0; Win64; x64) AppleWebKit/537.36 (KHTML, like Gecko) Chrome/138.0.0.0 Safari/537.36","WebKit","Chrome","138.0.0.0","Windows","10.0","https://app.prolific.com/","en-US,en;q=0.9","5d1290103b20b0000102e8e3","683dba2a8a9dda3513610c04","68808bdf63a5a19f12f06260","3","0","5d1290103b20b0000102e8e3","3","0","","true","","","","","","","","","","","","","","","","","","","","","","","","","","","","","","","","","","","","","","","","",""
"1516","1753255106810","<p style='font-size:1.1em;line-height:1.25'>In the following, we will ask you a few questions relating to your feelings in the last 24 hours.<br></p><p style='font-size:1.1em;line-height:1.25'>Press the <strong>Next</strong> button to continue.</p>","0","custom-html-button-response","2","11172","0.0-2.0-0.0","171","1","2025-07-23 07:18:12","1f75c3e559b7213887762d5229550c2b","86.158.68.150","Mozilla/5.0 (Windows NT 10.0; Win64; x64) AppleWebKit/537.36 (KHTML, like Gecko) Chrome/138.0.0.0 Safari/537.36","WebKit","Chrome","138.0.0.0","Windows","10.0","https://app.prolific.com/","en-US,en;q=0.9","5d1290103b20b0000102e8e3","683dba2a8a9dda3513610c04","68808bdf63a5a19f12f06260","3","0","5d1290103b20b0000102e8e3","3","0","2025-07-23T07:18:26.811Z","","","","","","","","","","","","","","","","","","","","","","","","","","","","","","","","","","","","","","","","","",""
"73685.80000007153","","","","survey-template","3","84874","0.0-2.0-1.0","171","1","2025-07-23 07:18:12","1f75c3e559b7213887762d5229550c2b","86.158.68.150","Mozilla/5.0 (Windows NT 10.0; Win64; x64) AppleWebKit/537.36 (KHTML, like Gecko) Chrome/138.0.0.0 Safari/537.36","WebKit","Chrome","138.0.0.0","Windows","10.0","https://app.prolific.com/","en-US,en;q=0.9","5d1290103b20b0000102e8e3","683dba2a8a9dda3513610c04","68808bdf63a5a19f12f06260","3","0","5d1290103b20b0000102e8e3","3","0","2025-07-23T07:19:40.513Z","","{""Q01"":""2"",""Q02"":""3"",""Q03"":""2"",""Q04"":""3"",""Q05"":""1"",""Q06"":""1"",""Q07"":""3"",""Q08"":""2"",""Q09"":""2"",""Q10"":""1"",""Q11"":""3"",""Q12"":""1"",""Q13"":""5"",""Q14"":""2"",""Q15"":""0"",""Q16"":""3"",""Q17"":""3"",""Q18"":""2"",""Q19"":""2"",""Q20"":""2"",""Q21"":""2"",""Q22"":""1""}","[0,1,2,3,4,5,6,7,8,9,10,11,12,13,14,15,16,17,18,19,20,21]","[""Q01"",""Q02"",""Q03"",""Q04"",""Q05"",""Q06"",""Q07"",""Q08"",""Q09"",""Q10"",""Q11"",""Q12"",""Q13"",""Q14"",""Q15"",""Q16"",""Q16"",""Q17"",""Q18"",""Q19"",""Q20"",""Q21"",""Q22""]","[3841.7000000476837,5204.800000071526,7538.5,9156.100000023842,12538,13636.300000071526,17105.100000023842,19369,25619.100000023842,27885.300000071526,32505.300000071526,34088.800000071526,36672.300000071526,38488,42172,46507.40000009537,46726.40000009537,51154.90000009537,52855.60000002384,61637.40000009537,66273,69237.80000007153,72588.80000007153]","[]","[0.10000002384185791,2483.5,3841.7000000476837,5204.800000071526,7538.5,9156.100000023842,11039.600000023842,12538,13636.300000071526,15822.5,17105.100000023842,18304.400000095367,19369,20220.300000071526,20913.300000071526,25619.100000023842,27885.300000071526,30287.900000095367,32505.300000071526,34088.800000071526,36672.300000071526,38488,42172,46507.40000009537,46726.40000009537,49620.90000009537,51154.90000009537,52855.60000002384,61637.40000009537,66273,68538,69237.80000007153,72588.80000007153,73672.20000004768]","0.4090909090909091","0.3333333333333333","0","drsp","","","","","","","","","","","","","","","","","","","","","","","","","","","","","","",""
"14861.600000023842","","","","survey-template","4","99739","0.0-2.0-2.0","171","1","2025-07-23 07:18:12","1f75c3e559b7213887762d5229550c2b","86.158.68.150","Mozilla/5.0 (Windows NT 10.0; Win64; x64) AppleWebKit/537.36 (KHTML, like Gecko) Chrome/138.0.0.0 Safari/537.36","WebKit","Chrome","138.0.0.0","Windows","10.0","https://app.prolific.com/","en-US,en;q=0.9","5d1290103b20b0000102e8e3","683dba2a8a9dda3513610c04","68808bdf63a5a19f12f06260","3","0","5d1290103b20b0000102e8e3","3","0","2025-07-23T07:19:55.379Z","","{""Q01"":""3"",""Q02"":""2"",""Q03"":""2""}","[0,1,2]","[""Q02"",""Q01"",""Q03""]","[4378.5,5631.100000023842,13777.5]","[]","[2577.4000000953674,4378.5,5631.100000023842,13777.5,14860.200000047684]","0.6666666666666666","0.5","0","stress","","","","","","","","","","","","","","","","","","","","","","","","","","","","","","",""
"6547","","","","instructions","5","106288","0.0-3.0-0.0","171","1","2025-07-23 07:18:12","1f75c3e559b7213887762d5229550c2b","86.158.68.150","Mozilla/5.0 (Windows NT 10.0; Win64; x64) AppleWebKit/537.36 (KHTML, like Gecko) Chrome/138.0.0.0 Safari/537.36","WebKit","Chrome","138.0.0.0","Windows","10.0","https://app.prolific.com/","en-US,en;q=0.9","5d1290103b20b0000102e8e3","683dba2a8a9dda3513610c04","68808bdf63a5a19f12f06260","3","0","5d1290103b20b0000102e8e3","3","0","","","","","","","","","","","","","[{""page_index"":0,""viewing_time"":6546}]","","","","","","","","","","","","","","","","","","","","","","","","","","","","","",""
"4609","","<p>Before you start with this game please answer the following three questions yourself. </p>
  <p>Through this game, we measure several aspects of your cognitive performance, such as reaction times, multi-tasking capabilities </p>
  <p>and the ability to assess the situation you are in.</p>
  <p></p>
  <p><b>How good do you usually are in such tasks?</b></p>","61","html-slider-response","6","110905","0.0-4.0-0.0","171","1","2025-07-23 07:18:12","1f75c3e559b7213887762d5229550c2b","86.158.68.150","Mozilla/5.0 (Windows NT 10.0; Win64; x64) AppleWebKit/537.36 (KHTML, like Gecko) Chrome/138.0.0.0 Safari/537.36","WebKit","Chrome","138.0.0.0","Windows","10.0","https://app.prolific.com/","en-US,en;q=0.9","5d1290103b20b0000102e8e3","683dba2a8a9dda3513610c04","68808bdf63a5a19f12f06260","3","0","5d1290103b20b0000102e8e3","3","0","2025-07-23T07:20:06.544Z","","","","","","","","","","","PreSkillQ","","50","","","","","","","","","","","","","","","","","","","","","","","","","","","","",""
"3448","","<div style=""width:500px;"">
  <p>How well do you think you will perform in this task compared to other participants?</p>
  </div>","60","html-slider-response","7","114355","0.0-4.0-1.0","171","1","2025-07-23 07:18:12","1f75c3e559b7213887762d5229550c2b","86.158.68.150","Mozilla/5.0 (Windows NT 10.0; Win64; x64) AppleWebKit/537.36 (KHTML, like Gecko) Chrome/138.0.0.0 Safari/537.36","WebKit","Chrome","138.0.0.0","Windows","10.0","https://app.prolific.com/","en-US,en;q=0.9","5d1290103b20b0000102e8e3","683dba2a8a9dda3513610c04","68808bdf63a5a19f12f06260","3","0","5d1290103b20b0000102e8e3","3","0","2025-07-23T07:20:09.994Z","","","","","","","","","","","PrePerfQ","","50","","","","","","","","","","","","","","","","","","","","","","","","","","","","",""
"4082","","<div style=""width:500px;"">
  <p>What best describes how you currently feel?</p>
  </div>","29","html-slider-response","8","118439","0.0-4.0-2.0","171","1","2025-07-23 07:18:12","1f75c3e559b7213887762d5229550c2b","86.158.68.150","Mozilla/5.0 (Windows NT 10.0; Win64; x64) AppleWebKit/537.36 (KHTML, like Gecko) Chrome/138.0.0.0 Safari/537.36","WebKit","Chrome","138.0.0.0","Windows","10.0","https://app.prolific.com/","en-US,en;q=0.9","5d1290103b20b0000102e8e3","683dba2a8a9dda3513610c04","68808bdf63a5a19f12f06260","3","0","5d1290103b20b0000102e8e3","3","0","2025-07-23T07:20:14.078Z","","","","","","","","","","","PreMotivationQ","","50","","","","","","","","","","","","","","","","","","","","","","","","","","","","",""
"","","","","ctl-task-cpt","9","149431","0.0-5.0-0.0","171","1","2025-07-23 07:18:12","1f75c3e559b7213887762d5229550c2b","86.158.68.150","Mozilla/5.0 (Windows NT 10.0; Win64; x64) AppleWebKit/537.36 (KHTML, like Gecko) Chrome/138.0.0.0 Safari/537.36","WebKit","Chrome","138.0.0.0","Windows","10.0","https://app.prolific.com/","en-US,en;q=0.9","5d1290103b20b0000102e8e3","683dba2a8a9dda3513610c04","68808bdf63a5a19f12f06260","3","0","5d1290103b20b0000102e8e3","3","0","2025-07-23T07:20:45.070Z","","","","","","","","","","","","","","win-only","2","g1:SE,g2:NW","1","1","0","120683.3","6623.4","11627.3","27968.1","1","4","8","6","2","8","8","8","0","0.06060606060606061","5003.8","3000","265","[""left"",""up""]","{""num_key_presses"":6,""num_perfect"":6,""num_errors"":0,""num_randdir"":0,""num_randdir_good_moves"":0,""num_whilered"":0,""num_whileblue"":0,""num_blue"":0,""num_good_moves"":6}","[416.57142857142856,407.1808016640799,2.2,416.57142857142856,407.1808016640799,100,416.57142857142856,407.1808016640799,201,416.57142857142856,407.1808016640799,303.3,416.57142857142856,407.1808016640799,403.8,1001.5714285714286,372.6808016640799,509.5,1375.0714285714287,302.1808016640799,613,1375.0714285714287,302.1808016640799,713.6,1375.0714285714287,302.1808016640799,814.4,1375.0714285714287,302.1808016640799,917,1375.0714285714287,302.1808016640799,1018.9,1375.0714285714287,302.1808016640799,1123.3,1375.0714285714287,302.1808016640799,1228.5,1375.0714285714287,302.1808016640799,1333.6,1375.0714285714287,302.1808016640799,1433.8,1375.0714285714287,302.1808016640799,1537.8,1375.0714285714287,302.1808016640799,1638.7,1375.0714285714287,302.1808016640799,1739.8,1375.0714285714287,302.1808016640799,1843.7,1375.0714285714287,302.1808016640799,1948.1,1375.0714285714287,302.1808016640799,2053.6,1375.0714285714287,302.1808016640799,2159.7,1375.0714285714287,302.1808016640799,2263.4,1375.0714285714287,302.1808016640799,2368.4,1375.0714285714287,302.1808016640799,2473.2,1375.0714285714287,302.1808016640799,2578.7,1375.0714285714287,302.1808016640799,2683.3,1375.0714285714287,302.1808016640799,2783.6,1375.0714285714287,302.1808016640799,2889.6,1375.0714285714287,302.1808016640799,2993.9,1375.0714285714287,302.1808016640799,3097.6,1375.0714285714287,302.1808016640799,3197.6,1375.0714285714287,302.1808016640799,3297.7,1375.0714285714287,302.1808016640799,3399.7,1375.0714285714287,302.1808016640799,3503.3,1375.0714285714287,302.1808016640799,3607.8,1375.0714285714287,302.1808016640799,3708.8,1375.0714285714287,302.1808016640799,3813.4,1375.0714285714287,302.1808016640799,3913.8,1375.0714285714287,302.1808016640799,4017.5,1375.0714285714287,302.1808016640799,4118.6,1375.0714285714287,302.1808016640799,4218.6,1375.0714285714287,302.1808016640799,4323.5,1375.0714285714287,302.1808016640799,4428.4,1375.0714285714287,302.1808016640799,4533.4,1375.0714285714287,302.1808016640799,4639.8,1375.0714285714287,302.1808016640799,4739.9,1375.0714285714287,302.1808016640799,4842.9,1375.0714285714287,302.1808016640799,4943.3]","[1417.3,1417.3,1000,0,417.3,""smooth"",""up"",""up"",""good_move"",4829.9,3412,2743.7,1417.9,668.3,""smooth"",""up"",""up"",""good_move"",7590.4,2760.3,2106.3,4830.2,653.9,""smooth"",""up"",""up"",""good_move"",10634.5,3043.4,2592.3,7591.1,451.1,""smooth"",""left"",""left"",""good_move"",13600.4,2965.6,2540.6,10634.8,425,""smooth"",""left"",""left"",""good_move"",16233.3,2632.7,2122.2,13600.6,510.5,""smooth"",""left"",""left"",""good_move""]","",""
"5946","","<div style=""width:500px;"">
  <p>What determined the result of this run?</p>
  </div>","58","html-slider-response","10","155378","0.0-5.0-1.0","171","1","2025-07-23 07:18:12","1f75c3e559b7213887762d5229550c2b","86.158.68.150","Mozilla/5.0 (Windows NT 10.0; Win64; x64) AppleWebKit/537.36 (KHTML, like Gecko) Chrome/138.0.0.0 Safari/537.36","WebKit","Chrome","138.0.0.0","Windows","10.0","https://app.prolific.com/","en-US,en;q=0.9","5d1290103b20b0000102e8e3","683dba2a8a9dda3513610c04","68808bdf63a5a19f12f06260","3","0","5d1290103b20b0000102e8e3","3","0","2025-07-23T07:20:51.017Z","","","","","","","","","","","AttribQ","","50","","","","","","","","","","","","","","","","","","","","","","","","","","","","",""
"3115","","<div style=""width:500px;"">
  <p>How much control did you have over the ball?</p>
  </div>","79","html-slider-response","11","158495","0.0-5.0-2.0","171","1","2025-07-23 07:18:12","1f75c3e559b7213887762d5229550c2b","86.158.68.150","Mozilla/5.0 (Windows NT 10.0; Win64; x64) AppleWebKit/537.36 (KHTML, like Gecko) Chrome/138.0.0.0 Safari/537.36","WebKit","Chrome","138.0.0.0","Windows","10.0","https://app.prolific.com/","en-US,en;q=0.9","5d1290103b20b0000102e8e3","683dba2a8a9dda3513610c04","68808bdf63a5a19f12f06260","3","0","5d1290103b20b0000102e8e3","3","0","2025-07-23T07:20:54.134Z","","","","","","","","","","","ControlQ","","50","","","","","","","","","","","","","","","","","","","","","","","","","","","","",""
"4035","","<div style=""width:500px;"">
  <p>How would you describe your current emotional state?</p>
  </div>","37","html-slider-response","12","162531","0.0-5.0-3.0","171","1","2025-07-23 07:18:12","1f75c3e559b7213887762d5229550c2b","86.158.68.150","Mozilla/5.0 (Windows NT 10.0; Win64; x64) AppleWebKit/537.36 (KHTML, like Gecko) Chrome/138.0.0.0 Safari/537.36","WebKit","Chrome","138.0.0.0","Windows","10.0","https://app.prolific.com/","en-US,en;q=0.9","5d1290103b20b0000102e8e3","683dba2a8a9dda3513610c04","68808bdf63a5a19f12f06260","3","0","5d1290103b20b0000102e8e3","3","0","2025-07-23T07:20:58.170Z","","","","","","","","","","","StressQ","","50","","","","","","","","","","","","","","","","","","","","","","","","","","","","",""
"3964","","<div style=""width:500px;"">
  <p>What best describes how you currently feel?</p>
  </div>","72","html-slider-response","13","166497","0.0-5.0-4.0","171","1","2025-07-23 07:18:12","1f75c3e559b7213887762d5229550c2b","86.158.68.150","Mozilla/5.0 (Windows NT 10.0; Win64; x64) AppleWebKit/537.36 (KHTML, like Gecko) Chrome/138.0.0.0 Safari/537.36","WebKit","Chrome","138.0.0.0","Windows","10.0","https://app.prolific.com/","en-US,en;q=0.9","5d1290103b20b0000102e8e3","683dba2a8a9dda3513610c04","68808bdf63a5a19f12f06260","3","0","5d1290103b20b0000102e8e3","3","0","2025-07-23T07:21:02.137Z","","","","","","","","","","","MotivationQ","","50","","","","","","","","","","","","","","","","","","","","","","","","","","","","",""
"","","","","ctl-task-cpt","14","195697","0.0-5.0-0.1","171","1","2025-07-23 07:18:12","1f75c3e559b7213887762d5229550c2b","86.158.68.150","Mozilla/5.0 (Windows NT 10.0; Win64; x64) AppleWebKit/537.36 (KHTML, like Gecko) Chrome/138.0.0.0 Safari/537.36","WebKit","Chrome","138.0.0.0","Windows","10.0","https://app.prolific.com/","en-US,en;q=0.9","5d1290103b20b0000102e8e3","683dba2a8a9dda3513610c04","68808bdf63a5a19f12f06260","3","0","5d1290103b20b0000102e8e3","3","0","2025-07-23T07:21:31.336Z","","","","","","","","","","","","","","win-only","1","g1:NE,g2:SW","0.9","2","0","168726.2","1467.6","6471.1","26190.9","1","4","4","6","2","4","4","12","8","0.09090909090909091","5003.5","3000","550","[""down"",""left""]","{""num_key_presses"":6,""num_perfect"":6,""num_errors"":0,""num_randdir"":0,""num_randdir_good_moves"":0,""num_whilered"":0,""num_whileblue"":0,""num_blue"":1,""num_good_moves"":6}","[410.57142857142856,417.6808016640799,0.2,410.57142857142856,417.6808016640799,103.4,410.57142857142856,417.6808016640799,215.5,410.57142857142856,417.6808016640799,316.4,1106.5714285714287,203.18080166407992,417.2,1375.0714285714287,107.18080166407994,518.6,1375.0714285714287,107.18080166407994,619.2,1375.0714285714287,107.18080166407994,723,1375.0714285714287,107.18080166407994,823.5,1375.0714285714287,107.18080166407994,932.6,1375.0714285714287,107.18080166407994,1032.7,1375.0714285714287,107.18080166407994,1133.2,1375.0714285714287,107.18080166407994,1233.3,1375.0714285714287,107.18080166407994,1333.4,1375.0714285714287,107.18080166407994,1438.2,1375.0714285714287,107.18080166407994,1538.3,1375.0714285714287,107.18080166407994,1638.3,1375.0714285714287,107.18080166407994,1748.3,1375.0714285714287,107.18080166407994,1848.6,1375.0714285714287,107.18080166407994,1953.8,1375.0714285714287,107.18080166407994,2053.9,1375.0714285714287,107.18080166407994,2158.6,1375.0714285714287,107.18080166407994,2266,1375.0714285714287,107.18080166407994,2366.4,1375.0714285714287,107.18080166407994,2468.8,1375.0714285714287,107.18080166407994,2573.2,1375.0714285714287,107.18080166407994,2673.2,1375.0714285714287,107.18080166407994,2773.4,1375.0714285714287,107.18080166407994,2873.4,1375.0714285714287,107.18080166407994,2981.9,1375.0714285714287,107.18080166407994,3083.1,1375.0714285714287,107.18080166407994,3184.4,1375.0714285714287,107.18080166407994,3288.4,1375.0714285714287,107.18080166407994,3388.6,1375.0714285714287,107.18080166407994,3488.7,1375.0714285714287,107.18080166407994,3598.4,1375.0714285714287,107.18080166407994,3699.1,1375.0714285714287,107.18080166407994,3799,1375.0714285714287,107.18080166407994,3900.7,1375.0714285714287,107.18080166407994,4003.5,1375.0714285714287,107.18080166407994,4103.8,1375.0714285714287,107.18080166407994,4204,1375.0714285714287,107.18080166407994,4304,1375.0714285714287,107.18080166407994,4408.9,1375.0714285714287,107.18080166407994,4515.9,1375.0714285714287,107.18080166407994,4616.7,1375.0714285714287,107.18080166407994,4718.2,1375.0714285714287,107.18080166407994,4823.1,1375.0714285714287,107.18080166407994,4923.1]","[1544.4,1544.4,1000,0,544.4,""smooth"",""down"",""down"",""good_move"",8764.9,7220.2,3007.8,5136.2,620.9,""smooth"",""down"",""down"",""good_move"",11344.6,2579.4,2176.1,8765.2,403.3,""smooth"",""left"",""left"",""good_move"",14493.3,3148.5,2815.1,11344.8,333.4,""smooth"",""left"",""left"",""good_move"",16746.6,2252.8,1886.9,14493.8,365.9,""smooth"",""down"",""down"",""good_move"",19626.1,2879.2,2551.5,16746.9,327.7,""smooth"",""left"",""left"",""good_move""]","",""
"3459","","<div style=""width:500px;"">
  <p>What determined the result of this run?</p>
  </div>","70","html-slider-response","15","199157","0.0-5.0-1.1","171","1","2025-07-23 07:18:12","1f75c3e559b7213887762d5229550c2b","86.158.68.150","Mozilla/5.0 (Windows NT 10.0; Win64; x64) AppleWebKit/537.36 (KHTML, like Gecko) Chrome/138.0.0.0 Safari/537.36","WebKit","Chrome","138.0.0.0","Windows","10.0","https://app.prolific.com/","en-US,en;q=0.9","5d1290103b20b0000102e8e3","683dba2a8a9dda3513610c04","68808bdf63a5a19f12f06260","3","0","5d1290103b20b0000102e8e3","3","0","2025-07-23T07:21:34.796Z","","","","","","","","","","","AttribQ","","50","","","","","","","","","","","","","","","","","","","","","","","","","","","","",""
"6260","","<div style=""width:500px;"">
  <p>How much control did you have over the ball?</p>
  </div>","66","html-slider-response","16","205421","0.0-5.0-2.1","171","1","2025-07-23 07:18:12","1f75c3e559b7213887762d5229550c2b","86.158.68.150","Mozilla/5.0 (Windows NT 10.0; Win64; x64) AppleWebKit/537.36 (KHTML, like Gecko) Chrome/138.0.0.0 Safari/537.36","WebKit","Chrome","138.0.0.0","Windows","10.0","https://app.prolific.com/","en-US,en;q=0.9","5d1290103b20b0000102e8e3","683dba2a8a9dda3513610c04","68808bdf63a5a19f12f06260","3","0","5d1290103b20b0000102e8e3","3","0","2025-07-23T07:21:41.061Z","","","","","","","","","","","ControlQ","","50","","","","","","","","","","","","","","","","","","","","","","","","","","","","",""
"6086","","<div style=""width:500px;"">
  <p>How would you describe your current emotional state?</p>
  </div>","39","html-slider-response","17","211514","0.0-5.0-3.1","171","1","2025-07-23 07:18:12","1f75c3e559b7213887762d5229550c2b","86.158.68.150","Mozilla/5.0 (Windows NT 10.0; Win64; x64) AppleWebKit/537.36 (KHTML, like Gecko) Chrome/138.0.0.0 Safari/537.36","WebKit","Chrome","138.0.0.0","Windows","10.0","https://app.prolific.com/","en-US,en;q=0.9","5d1290103b20b0000102e8e3","683dba2a8a9dda3513610c04","68808bdf63a5a19f12f06260","3","0","5d1290103b20b0000102e8e3","3","0","2025-07-23T07:21:47.153Z","","","","","","","","","","","StressQ","","50","","","","","","","","","","","","","","","","","","","","","","","","","","","","",""
"3507","","<div style=""width:500px;"">
  <p>What best describes how you currently feel?</p>
  </div>","74","html-slider-response","18","215023","0.0-5.0-4.1","171","1","2025-07-23 07:18:12","1f75c3e559b7213887762d5229550c2b","86.158.68.150","Mozilla/5.0 (Windows NT 10.0; Win64; x64) AppleWebKit/537.36 (KHTML, like Gecko) Chrome/138.0.0.0 Safari/537.36","WebKit","Chrome","138.0.0.0","Windows","10.0","https://app.prolific.com/","en-US,en;q=0.9","5d1290103b20b0000102e8e3","683dba2a8a9dda3513610c04","68808bdf63a5a19f12f06260","3","0","5d1290103b20b0000102e8e3","3","0","2025-07-23T07:21:50.662Z","","","","","","","","","","","MotivationQ","","50","","","","","","","","","","","","","","","","","","","","","","","","","","","","",""
"","","","","ctl-task-cpt","19","235935","0.0-5.0-0.2","171","1","2025-07-23 07:18:12","1f75c3e559b7213887762d5229550c2b","86.158.68.150","Mozilla/5.0 (Windows NT 10.0; Win64; x64) AppleWebKit/537.36 (KHTML, like Gecko) Chrome/138.0.0.0 Safari/537.36","WebKit","Chrome","138.0.0.0","Windows","10.0","https://app.prolific.com/","en-US,en;q=0.9","5d1290103b20b0000102e8e3","683dba2a8a9dda3513610c04","68808bdf63a5a19f12f06260","3","0","5d1290103b20b0000102e8e3","3","0","2025-07-23T07:22:11.575Z","","","","","","","","","","","","","","win-only","2","g1:SE,g2:NW","0.8","3","0","217257.5","2138.7","7141.6","17887.9","1","4","4","6","1","1","1","13","12","0.09848484848484848","5002.9","3000","1470","[""down"",""right""]","{""num_key_presses"":4,""num_perfect"":3,""num_errors"":0,""num_randdir"":1,""num_randdir_good_moves"":1,""num_whilered"":0,""num_whileblue"":0,""num_blue"":0,""num_good_moves"":4}","[419.57142857142856,414.6808016640799,0.2,419.57142857142856,414.6808016640799,101.7,419.57142857142856,414.6808016640799,206.9,419.57142857142856,414.6808016640799,349.7,1291.0714285714287,141.68080166407992,452,1367.5714285714287,126.68080166407994,552,1367.5714285714287,126.68080166407994,652.3,1367.5714285714287,126.68080166407994,753.2,1367.5714285714287,126.68080166407994,857.3,1367.5714285714287,126.68080166407994,961,1367.5714285714287,126.68080166407994,1062.9,1367.5714285714287,126.68080166407994,1166.8,1367.5714285714287,126.68080166407994,1267,1367.5714285714287,126.68080166407994,1372.7,1367.5714285714287,126.68080166407994,1477.1,1367.5714285714287,126.68080166407994,1578.7,1367.5714285714287,126.68080166407994,1686.6,1367.5714285714287,126.68080166407994,1787.1,1367.5714285714287,126.68080166407994,1901,1367.5714285714287,126.68080166407994,2002.9,1367.5714285714287,126.68080166407994,2111.3,1367.5714285714287,126.68080166407994,2211.6,1367.5714285714287,126.68080166407994,2312.9,1367.5714285714287,126.68080166407994,2417.1,1367.5714285714287,126.68080166407994,2517.5,1367.5714285714287,126.68080166407994,2622.3,1367.5714285714287,126.68080166407994,2727.1,1367.5714285714287,126.68080166407994,2833.8,1367.5714285714287,126.68080166407994,2937.4,1367.5714285714287,126.68080166407994,3044.7,1367.5714285714287,126.68080166407994,3147.2,1367.5714285714287,126.68080166407994,3252.2,1367.5714285714287,126.68080166407994,3353.7,1367.5714285714287,126.68080166407994,3463.9,1367.5714285714287,126.68080166407994,3567.5,1367.5714285714287,126.68080166407994,3672.1,1367.5714285714287,126.68080166407994,3772.2,1367.5714285714287,126.68080166407994,3880.9,1367.5714285714287,126.68080166407994,3982.2,1367.5714285714287,126.68080166407994,4084.8,1367.5714285714287,126.68080166407994,4186.6,1367.5714285714287,126.68080166407994,4286.8,1367.5714285714287,126.68080166407994,4387,1367.5714285714287,126.68080166407994,4488.1,1367.5714285714287,126.68080166407994,4596.1,1367.5714285714287,126.68080166407994,4697.6,1367.5714285714287,126.68080166407994,4802.9,1367.5714285714287,126.68080166407994,4903.1]","[1545.6,1545.6,1000,0,545.6,""smooth"",""down"",""down"",""good_move"",4669.4,3123.5,2658.7,1545.9,464.8,""smooth"",""right"",""right"",""good_move"",7518.8,2849,2351.1,4669.8,497.9,""oops"",""right"",""right"",""good_move"",10639.9,3120.9,2725.9,7519,395,""smooth"",""down"",""down"",""good_move""]","",""
"5015","","<div style=""width:500px;"">
  <p>What determined the result of this run?</p>
  </div>","69","html-slider-response","20","240952","0.0-5.0-1.2","171","1","2025-07-23 07:18:12","1f75c3e559b7213887762d5229550c2b","86.158.68.150","Mozilla/5.0 (Windows NT 10.0; Win64; x64) AppleWebKit/537.36 (KHTML, like Gecko) Chrome/138.0.0.0 Safari/537.36","WebKit","Chrome","138.0.0.0","Windows","10.0","https://app.prolific.com/","en-US,en;q=0.9","5d1290103b20b0000102e8e3","683dba2a8a9dda3513610c04","68808bdf63a5a19f12f06260","3","0","5d1290103b20b0000102e8e3","3","0","2025-07-23T07:22:16.591Z","","","","","","","","","","","AttribQ","","50","","","","","","","","","","","","","","","","","","","","","","","","","","","","",""
"4399","","<div style=""width:500px;"">
  <p>How much control did you have over the ball?</p>
  </div>","79","html-slider-response","21","245353","0.0-5.0-2.2","171","1","2025-07-23 07:18:12","1f75c3e559b7213887762d5229550c2b","86.158.68.150","Mozilla/5.0 (Windows NT 10.0; Win64; x64) AppleWebKit/537.36 (KHTML, like Gecko) Chrome/138.0.0.0 Safari/537.36","WebKit","Chrome","138.0.0.0","Windows","10.0","https://app.prolific.com/","en-US,en;q=0.9","5d1290103b20b0000102e8e3","683dba2a8a9dda3513610c04","68808bdf63a5a19f12f06260","3","0","5d1290103b20b0000102e8e3","3","0","2025-07-23T07:22:20.992Z","","","","","","","","","","","ControlQ","","50","","","","","","","","","","","","","","","","","","","","","","","","","","","","",""
"5075","","<div style=""width:500px;"">
  <p>How would you describe your current emotional state?</p>
  </div>","49","html-slider-response","22","250428","0.0-5.0-3.2","171","1","2025-07-23 07:18:12","1f75c3e559b7213887762d5229550c2b","86.158.68.150","Mozilla/5.0 (Windows NT 10.0; Win64; x64) AppleWebKit/537.36 (KHTML, like Gecko) Chrome/138.0.0.0 Safari/537.36","WebKit","Chrome","138.0.0.0","Windows","10.0","https://app.prolific.com/","en-US,en;q=0.9","5d1290103b20b0000102e8e3","683dba2a8a9dda3513610c04","68808bdf63a5a19f12f06260","3","0","5d1290103b20b0000102e8e3","3","0","2025-07-23T07:22:26.067Z","","","","","","","","","","","StressQ","","50","","","","","","","","","","","","","","","","","","","","","","","","","","","","",""
"4020","","<div style=""width:500px;"">
  <p>What best describes how you currently feel?</p>
  </div>","75","html-slider-response","23","254450","0.0-5.0-4.2","171","1","2025-07-23 07:18:12","1f75c3e559b7213887762d5229550c2b","86.158.68.150","Mozilla/5.0 (Windows NT 10.0; Win64; x64) AppleWebKit/537.36 (KHTML, like Gecko) Chrome/138.0.0.0 Safari/537.36","WebKit","Chrome","138.0.0.0","Windows","10.0","https://app.prolific.com/","en-US,en;q=0.9","5d1290103b20b0000102e8e3","683dba2a8a9dda3513610c04","68808bdf63a5a19f12f06260","3","0","5d1290103b20b0000102e8e3","3","0","2025-07-23T07:22:30.089Z","","","","","","","","","","","MotivationQ","","50","","","","","","","","","","","","","","","","","","","","","","","","","","","","",""
"","","","","ctl-task-cpt","24","290269","0.0-5.0-0.3","171","1","2025-07-23 07:18:12","1f75c3e559b7213887762d5229550c2b","86.158.68.150","Mozilla/5.0 (Windows NT 10.0; Win64; x64) AppleWebKit/537.36 (KHTML, like Gecko) Chrome/138.0.0.0 Safari/537.36","WebKit","Chrome","138.0.0.0","Windows","10.0","https://app.prolific.com/","en-US,en;q=0.9","5d1290103b20b0000102e8e3","683dba2a8a9dda3513610c04","68808bdf63a5a19f12f06260","3","0","5d1290103b20b0000102e8e3","3","0","2025-07-23T07:23:05.908Z","","","","","","","","","","","","","","win-only","0","g1:NW,g2:SE","0.7","4","0","256680.8","1964.4","6965.3","32799.3","1","4","8","6","2","-8","-8","5","13","0.03787878787878788","5000.8","3000","-2400","[""down"",""right""]","{""num_key_presses"":8,""num_perfect"":6,""num_errors"":0,""num_randdir"":2,""num_randdir_good_moves"":0,""num_whilered"":0,""num_whileblue"":0,""num_blue"":0,""num_good_moves"":5}","[416.57142857142856,422.1808016640799,0.2,416.57142857142856,422.1808016640799,100.9,416.57142857142856,422.1808016640799,202.2,416.57142857142856,422.1808016640799,306.9,533.5714285714286,386.1808016640799,406.9,1375.0714285714287,39.68080166407994,513,1375.0714285714287,39.68080166407994,613,1375.0714285714287,39.68080166407994,713.2,1375.0714285714287,39.68080166407994,817.6,1375.0714285714287,39.68080166407994,917.7,1375.0714285714287,39.68080166407994,1021.1,1375.0714285714287,39.68080166407994,1121.5,1375.0714285714287,39.68080166407994,1221.9,1375.0714285714287,39.68080166407994,1326.5,1375.0714285714287,39.68080166407994,1433.2,1375.0714285714287,39.68080166407994,1536.6,1375.0714285714287,39.68080166407994,1637.9,1375.0714285714287,39.68080166407994,1742.8,1375.0714285714287,39.68080166407994,1851.5,1375.0714285714287,39.68080166407994,1952.2,1375.0714285714287,39.68080166407994,2053,1375.0714285714287,39.68080166407994,2156.4,1375.0714285714287,39.68080166407994,2256.9,1375.0714285714287,39.68080166407994,2356.9,1375.0714285714287,39.68080166407994,2465.9,1375.0714285714287,39.68080166407994,2567.7,1375.0714285714287,39.68080166407994,2671.8,1375.0714285714287,39.68080166407994,2776.3,1375.0714285714287,39.68080166407994,2876.4,1375.0714285714287,39.68080166407994,2977.9,1375.0714285714287,39.68080166407994,3083.7,1375.0714285714287,39.68080166407994,3186.4,1375.0714285714287,39.68080166407994,3286.6,1375.0714285714287,39.68080166407994,3386.6,1375.0714285714287,39.68080166407994,3491.3,1375.0714285714287,39.68080166407994,3592.2,1375.0714285714287,39.68080166407994,3700.2,1375.0714285714287,39.68080166407994,3800.4,1375.0714285714287,39.68080166407994,3900.8,1375.0714285714287,39.68080166407994,4000.8,1375.0714285714287,39.68080166407994,4101.7,1375.0714285714287,39.68080166407994,4217.5,1375.0714285714287,39.68080166407994,4321.7,1375.0714285714287,39.68080166407994,4423,1375.0714285714287,39.68080166407994,4526.3,1375.0714285714287,39.68080166407994,4626.5,1375.0714285714287,39.68080166407994,4734.5,1375.0714285714287,39.68080166407994,4836.7,1375.0714285714287,39.68080166407994,4937.2]","[1364.4,1364.5,1000,0,364.5,""oops"",""down"",""up"",""bad_move"",4652.6,3287.8,2374.7,1364.8,913.1,""smooth"",""up"",""up"",""bad_move"",8134.4,3481.5,2993.3,4652.9,488.2,""smooth"",""down"",""down"",""good_move"",11662.2,3527.5,2987.1,8134.7,540.4,""smooth"",""right"",""right"",""good_move"",14785.4,3121.3,2796.8,11664.1,324.5,""smooth"",""down"",""down"",""good_move"",17564.7,2779,2443.5,14785.7,335.5,""smooth"",""down"",""down"",""good_move"",20554.9,2990,2700.3,17564.9,289.7,""oops"",""down"",""up"",""bad_move"",23404,2848.9,2459.1,20555.1,389.8,""smooth"",""down"",""down"",""good_move""]","",""
"6484","","<div style=""width:500px;"">
  <p>What determined the result of this run?</p>
  </div>","27","html-slider-response","25","296759","0.0-5.0-1.3","171","1","2025-07-23 07:18:12","1f75c3e559b7213887762d5229550c2b","86.158.68.150","Mozilla/5.0 (Windows NT 10.0; Win64; x64) AppleWebKit/537.36 (KHTML, like Gecko) Chrome/138.0.0.0 Safari/537.36","WebKit","Chrome","138.0.0.0","Windows","10.0","https://app.prolific.com/","en-US,en;q=0.9","5d1290103b20b0000102e8e3","683dba2a8a9dda3513610c04","68808bdf63a5a19f12f06260","3","0","5d1290103b20b0000102e8e3","3","0","2025-07-23T07:23:12.402Z","","","","","","","","","","","AttribQ","","50","","","","","","","","","","","","","","","","","","","","","","","","","","","","",""
"3377","","<div style=""width:500px;"">
  <p>How much control did you have over the ball?</p>
  </div>","23","html-slider-response","26","300157","0.0-5.0-2.3","171","1","2025-07-23 07:18:12","1f75c3e559b7213887762d5229550c2b","86.158.68.150","Mozilla/5.0 (Windows NT 10.0; Win64; x64) AppleWebKit/537.36 (KHTML, like Gecko) Chrome/138.0.0.0 Safari/537.36","WebKit","Chrome","138.0.0.0","Windows","10.0","https://app.prolific.com/","en-US,en;q=0.9","5d1290103b20b0000102e8e3","683dba2a8a9dda3513610c04","68808bdf63a5a19f12f06260","3","0","5d1290103b20b0000102e8e3","3","0","2025-07-23T07:23:15.796Z","","","","","","","","","","","ControlQ","","50","","","","","","","","","","","","","","","","","","","","","","","","","","","","",""
"5397","","<div style=""width:500px;"">
  <p>How would you describe your current emotional state?</p>
  </div>","63","html-slider-response","27","305558","0.0-5.0-3.3","171","1","2025-07-23 07:18:12","1f75c3e559b7213887762d5229550c2b","86.158.68.150","Mozilla/5.0 (Windows NT 10.0; Win64; x64) AppleWebKit/537.36 (KHTML, like Gecko) Chrome/138.0.0.0 Safari/537.36","WebKit","Chrome","138.0.0.0","Windows","10.0","https://app.prolific.com/","en-US,en;q=0.9","5d1290103b20b0000102e8e3","683dba2a8a9dda3513610c04","68808bdf63a5a19f12f06260","3","0","5d1290103b20b0000102e8e3","3","0","2025-07-23T07:23:21.198Z","","","","","","","","","","","StressQ","","50","","","","","","","","","","","","","","","","","","","","","","","","","","","","",""
"4348","","<div style=""width:500px;"">
  <p>What best describes how you currently feel?</p>
  </div>","70","html-slider-response","28","309922","0.0-5.0-4.3","171","1","2025-07-23 07:18:12","1f75c3e559b7213887762d5229550c2b","86.158.68.150","Mozilla/5.0 (Windows NT 10.0; Win64; x64) AppleWebKit/537.36 (KHTML, like Gecko) Chrome/138.0.0.0 Safari/537.36","WebKit","Chrome","138.0.0.0","Windows","10.0","https://app.prolific.com/","en-US,en;q=0.9","5d1290103b20b0000102e8e3","683dba2a8a9dda3513610c04","68808bdf63a5a19f12f06260","3","0","5d1290103b20b0000102e8e3","3","0","2025-07-23T07:23:25.561Z","","","","","","","","","","","MotivationQ","","50","","","","","","","","","","","","","","","","","","","","","","","","","","","","",""
"","","","","ctl-task-cpt","29","357971","0.0-5.0-0.4","171","1","2025-07-23 07:18:12","1f75c3e559b7213887762d5229550c2b","86.158.68.150","Mozilla/5.0 (Windows NT 10.0; Win64; x64) AppleWebKit/537.36 (KHTML, like Gecko) Chrome/138.0.0.0 Safari/537.36","WebKit","Chrome","138.0.0.0","Windows","10.0","https://app.prolific.com/","en-US,en;q=0.9","5d1290103b20b0000102e8e3","683dba2a8a9dda3513610c04","68808bdf63a5a19f12f06260","3","0","5d1290103b20b0000102e8e3","3","0","2025-07-23T07:24:13.610Z","","","","","","","","","","","","","","win-only","0","g1:NW,g2:SE","0.6","5","0","312150.6","1579.5","6581.5","45041.5","1","4","4","6","2","4","3","8","5","0.06060606060606061","5002","3000","1235","[""down"",""right""]","{""num_key_presses"":7,""num_perfect"":5,""num_errors"":1,""num_randdir"":1,""num_randdir_good_moves"":1,""num_whilered"":0,""num_whileblue"":0,""num_blue"":6,""num_good_moves"":6}","[413.57142857142856,416.1808016640799,0.2,413.57142857142856,416.1808016640799,101.4,413.57142857142856,416.1808016640799,208.2,413.57142857142856,416.1808016640799,317.2,413.57142857142856,416.1808016640799,417.2,1073.5714285714287,275.1808016640799,519.6,1232.5714285714287,260.1808016640799,620.9,1232.5714285714287,260.1808016640799,720.9,1232.5714285714287,260.1808016640799,826.6,1232.5714285714287,260.1808016640799,929,1232.5714285714287,260.1808016640799,1032,1232.5714285714287,260.1808016640799,1136.4,1232.5714285714287,260.1808016640799,1236.7,1232.5714285714287,260.1808016640799,1336.9,1232.5714285714287,260.1808016640799,1441.9,1232.5714285714287,260.1808016640799,1546.4,1232.5714285714287,260.1808016640799,1648,1232.5714285714287,260.1808016640799,1751.8,1232.5714285714287,260.1808016640799,1868.1,1232.5714285714287,260.1808016640799,1971.5,1232.5714285714287,260.1808016640799,2071.7,1232.5714285714287,260.1808016640799,2176.8,1232.5714285714287,260.1808016640799,2277.4,1232.5714285714287,260.1808016640799,2378.5,1232.5714285714287,260.1808016640799,2478.8,1232.5714285714287,260.1808016640799,2582.5,1232.5714285714287,260.1808016640799,2683.1,1232.5714285714287,260.1808016640799,2786.9,1232.5714285714287,260.1808016640799,2901.9,1232.5714285714287,260.1808016640799,3006,1232.5714285714287,260.1808016640799,3108.7,1232.5714285714287,260.1808016640799,3212.9,1232.5714285714287,260.1808016640799,3312.9,1232.5714285714287,260.1808016640799,3413.1,1232.5714285714287,260.1808016640799,3518.8,1232.5714285714287,260.1808016640799,3621,1232.5714285714287,260.1808016640799,3721.5,1232.5714285714287,260.1808016640799,3821.6,1232.5714285714287,260.1808016640799,3934.1,1232.5714285714287,260.1808016640799,4039.8,1232.5714285714287,260.1808016640799,4141.2,1232.5714285714287,260.1808016640799,4241.4,1232.5714285714287,260.1808016640799,4342.5,1232.5714285714287,260.1808016640799,4447.4,1232.5714285714287,260.1808016640799,4551.2,1232.5714285714287,260.1808016640799,4651.9,1232.5714285714287,260.1808016640799,4767.5,1232.5714285714287,260.1808016640799,4871.8,1232.5714285714287,260.1808016640799,4986]","[1414.4,1414.4,1000,0,414.4,""smooth"",""right"",""right"",""good_move"",5878.9,4464,2388.4,5565.6,-2075,""error"",""-"",""-"",""no_move"",10020.2,4140.7,2691.3,6883.3,445.6,""oops"",""down"",""down"",""good_move"",31117.5,21097.1,3059.8,27565.6,492.1,""smooth"",""down"",""down"",""good_move"",33214.5,2096.6,1663.7,31117.9,432.9,""smooth"",""right"",""right"",""good_move"",35933.2,2718.3,2346,33214.9,372.3,""smooth"",""right"",""right"",""good_move"",38349.3,2416,2066.2,35933.4,349.8,""smooth"",""down"",""down"",""good_move""]","",""
"5595","","<div style=""width:500px;"">
  <p>What determined the result of this run?</p>
  </div>","61","html-slider-response","30","363570","0.0-5.0-1.4","171","1","2025-07-23 07:18:12","1f75c3e559b7213887762d5229550c2b","86.158.68.150","Mozilla/5.0 (Windows NT 10.0; Win64; x64) AppleWebKit/537.36 (KHTML, like Gecko) Chrome/138.0.0.0 Safari/537.36","WebKit","Chrome","138.0.0.0","Windows","10.0","https://app.prolific.com/","en-US,en;q=0.9","5d1290103b20b0000102e8e3","683dba2a8a9dda3513610c04","68808bdf63a5a19f12f06260","3","0","5d1290103b20b0000102e8e3","3","0","2025-07-23T07:24:19.210Z","","","","","","","","","","","AttribQ","","50","","","","","","","","","","","","","","","","","","","","","","","","","","","","",""
"6537","","<div style=""width:500px;"">
  <p>How much control did you have over the ball?</p>
  </div>","66","html-slider-response","31","370121","0.0-5.0-2.4","171","1","2025-07-23 07:18:12","1f75c3e559b7213887762d5229550c2b","86.158.68.150","Mozilla/5.0 (Windows NT 10.0; Win64; x64) AppleWebKit/537.36 (KHTML, like Gecko) Chrome/138.0.0.0 Safari/537.36","WebKit","Chrome","138.0.0.0","Windows","10.0","https://app.prolific.com/","en-US,en;q=0.9","5d1290103b20b0000102e8e3","683dba2a8a9dda3513610c04","68808bdf63a5a19f12f06260","3","0","5d1290103b20b0000102e8e3","3","0","2025-07-23T07:24:25.762Z","","","","","","","","","","","ControlQ","","50","","","","","","","","","","","","","","","","","","","","","","","","","","","","",""
"4318","","<div style=""width:500px;"">
  <p>How would you describe your current emotional state?</p>
  </div>","58","html-slider-response","32","374455","0.0-5.0-3.4","171","1","2025-07-23 07:18:12","1f75c3e559b7213887762d5229550c2b","86.158.68.150","Mozilla/5.0 (Windows NT 10.0; Win64; x64) AppleWebKit/537.36 (KHTML, like Gecko) Chrome/138.0.0.0 Safari/537.36","WebKit","Chrome","138.0.0.0","Windows","10.0","https://app.prolific.com/","en-US,en;q=0.9","5d1290103b20b0000102e8e3","683dba2a8a9dda3513610c04","68808bdf63a5a19f12f06260","3","0","5d1290103b20b0000102e8e3","3","0","2025-07-23T07:24:30.094Z","","","","","","","","","","","StressQ","","50","","","","","","","","","","","","","","","","","","","","","","","","","","","","",""
"4509","","<div style=""width:500px;"">
  <p>What best describes how you currently feel?</p>
  </div>","75","html-slider-response","33","378966","0.0-5.0-4.4","171","1","2025-07-23 07:18:12","1f75c3e559b7213887762d5229550c2b","86.158.68.150","Mozilla/5.0 (Windows NT 10.0; Win64; x64) AppleWebKit/537.36 (KHTML, like Gecko) Chrome/138.0.0.0 Safari/537.36","WebKit","Chrome","138.0.0.0","Windows","10.0","https://app.prolific.com/","en-US,en;q=0.9","5d1290103b20b0000102e8e3","683dba2a8a9dda3513610c04","68808bdf63a5a19f12f06260","3","0","5d1290103b20b0000102e8e3","3","0","2025-07-23T07:24:34.605Z","","","","","","","","","","","MotivationQ","","50","","","","","","","","","","","","","","","","","","","","","","","","","","","","",""
"","","","","ctl-task-cpt","34","419789","0.0-5.0-0.5","171","1","2025-07-23 07:18:12","1f75c3e559b7213887762d5229550c2b","86.158.68.150","Mozilla/5.0 (Windows NT 10.0; Win64; x64) AppleWebKit/537.36 (KHTML, like Gecko) Chrome/138.0.0.0 Safari/537.36","WebKit","Chrome","138.0.0.0","Windows","10.0","https://app.prolific.com/","en-US,en;q=0.9","5d1290103b20b0000102e8e3","683dba2a8a9dda3513610c04","68808bdf63a5a19f12f06260","3","0","5d1290103b20b0000102e8e3","3","0","2025-07-23T07:25:15.428Z","","","","","","","","","","","","","","win-only","0","g1:NW,g2:SE","0.5","6","0","381194.7","1530.9","6539.2","37803.2","1","4","8","6","1","-1","-1","7","8","0.05303030303030303","5008.3","3000","-2105","[""left"",""up""]","{""num_key_presses"":8,""num_perfect"":4,""num_errors"":0,""num_randdir"":4,""num_randdir_good_moves"":0,""num_whilered"":0,""num_whileblue"":0,""num_blue"":2,""num_good_moves"":4}","[425.57142857142856,422.1808016640799,1.6,425.57142857142856,422.1808016640799,106.7,425.57142857142856,422.1808016640799,207.2,425.57142857142856,422.1808016640799,308,425.57142857142856,422.1808016640799,409.8,425.57142857142856,422.1808016640799,509.9,907.0714285714286,326.1808016640799,617.2,1178.5714285714287,225.68080166407992,720.1,1178.5714285714287,225.68080166407992,822,1178.5714285714287,225.68080166407992,923.8,1178.5714285714287,225.68080166407992,1025.3,1178.5714285714287,225.68080166407992,1140.6,1178.5714285714287,225.68080166407992,1240.9,1178.5714285714287,225.68080166407992,1343.2,1178.5714285714287,225.68080166407992,1455.9,1178.5714285714287,225.68080166407992,1556.9,1178.5714285714287,225.68080166407992,1659.7,1178.5714285714287,225.68080166407992,1760.3,1178.5714285714287,225.68080166407992,1867.2,1178.5714285714287,225.68080166407992,1969.2,1178.5714285714287,225.68080166407992,2072.9,1178.5714285714287,225.68080166407992,2176.1,1178.5714285714287,225.68080166407992,2281.1,1178.5714285714287,225.68080166407992,2386.4,1178.5714285714287,225.68080166407992,2490,1178.5714285714287,225.68080166407992,2608,1178.5714285714287,225.68080166407992,2709.7,1178.5714285714287,225.68080166407992,2816.2,1178.5714285714287,225.68080166407992,2921,1178.5714285714287,225.68080166407992,3023.2,1178.5714285714287,225.68080166407992,3123.2,1178.5714285714287,225.68080166407992,3225.7,1178.5714285714287,225.68080166407992,3340.1,1178.5714285714287,225.68080166407992,3440.2,1178.5714285714287,225.68080166407992,3542.9,1178.5714285714287,225.68080166407992,3644.2,1178.5714285714287,225.68080166407992,3744.9,1178.5714285714287,225.68080166407992,3851.9,1178.5714285714287,225.68080166407992,3952.1,1178.5714285714287,225.68080166407992,4055.5,1178.5714285714287,225.68080166407992,4156.8,1178.5714285714287,225.68080166407992,4259.1,1178.5714285714287,225.68080166407992,4360.7,1178.5714285714287,225.68080166407992,4476.9,1178.5714285714287,225.68080166407992,4577.4,1178.5714285714287,225.68080166407992,4677.7,1178.5714285714287,225.68080166407992,4780.7,1178.5714285714287,225.68080166407992,4885.3,1178.5714285714287,225.68080166407992,4989.5]","[1431.3,1431.4,1000,0,431.4,""smooth"",""up"",""up"",""good_move"",8068.5,6636.7,2737,4761.1,570.4,""smooth"",""up"",""up"",""good_move"",10817.8,2749.1,2341.5,8068.7,407.6,""oops"",""left"",""right"",""bad_move"",13896.7,3078.5,2628.6,10818.2,449.9,""smooth"",""left"",""left"",""good_move"",20265.2,6368.2,2394.5,17451.9,418.8,""oops"",""left"",""right"",""bad_move"",24249.1,3983.6,2957.4,20265.5,1026.2,""smooth"",""left"",""left"",""good_move"",26217.2,1967.8,1509.1,24249.4,458.7,""oops"",""left"",""right"",""bad_move"",29231.6,3014.1,2385,26217.6,629,""oops"",""left"",""right"",""bad_move""]","",""
"11698","","<div style=""width:500px;"">
  <p>What determined the result of this run?</p>
  </div>","34","html-slider-response","35","431501","0.0-5.0-1.5","171","1","2025-07-23 07:18:12","1f75c3e559b7213887762d5229550c2b","86.158.68.150","Mozilla/5.0 (Windows NT 10.0; Win64; x64) AppleWebKit/537.36 (KHTML, like Gecko) Chrome/138.0.0.0 Safari/537.36","WebKit","Chrome","138.0.0.0","Windows","10.0","https://app.prolific.com/","en-US,en;q=0.9","5d1290103b20b0000102e8e3","683dba2a8a9dda3513610c04","68808bdf63a5a19f12f06260","3","0","5d1290103b20b0000102e8e3","3","0","2025-07-23T07:25:27.142Z","","","","","","","","","","","AttribQ","","50","","","","","","","","","","","","","","","","","","","","","","","","","","","","",""
"5095","","<div style=""width:500px;"">
  <p>How much control did you have over the ball?</p>
  </div>","31","html-slider-response","36","436624","0.0-5.0-2.5","171","1","2025-07-23 07:18:12","1f75c3e559b7213887762d5229550c2b","86.158.68.150","Mozilla/5.0 (Windows NT 10.0; Win64; x64) AppleWebKit/537.36 (KHTML, like Gecko) Chrome/138.0.0.0 Safari/537.36","WebKit","Chrome","138.0.0.0","Windows","10.0","https://app.prolific.com/","en-US,en;q=0.9","5d1290103b20b0000102e8e3","683dba2a8a9dda3513610c04","68808bdf63a5a19f12f06260","3","0","5d1290103b20b0000102e8e3","3","0","2025-07-23T07:25:32.265Z","","","","","","","","","","","ControlQ","","50","","","","","","","","","","","","","","","","","","","","","","","","","","","","",""
"14293","","<div style=""width:500px;"">
  <p>How would you describe your current emotional state?</p>
  </div>","66","html-slider-response","37","450951","0.0-5.0-3.5","171","1","2025-07-23 07:18:12","1f75c3e559b7213887762d5229550c2b","86.158.68.150","Mozilla/5.0 (Windows NT 10.0; Win64; x64) AppleWebKit/537.36 (KHTML, like Gecko) Chrome/138.0.0.0 Safari/537.36","WebKit","Chrome","138.0.0.0","Windows","10.0","https://app.prolific.com/","en-US,en;q=0.9","5d1290103b20b0000102e8e3","683dba2a8a9dda3513610c04","68808bdf63a5a19f12f06260","3","0","5d1290103b20b0000102e8e3","3","0","2025-07-23T07:25:46.592Z","","","","","","","","","","","StressQ","","50","","","","","","","","","","","","","","","","","","","","","","","","","","","","",""
"7492","","<div style=""width:500px;"">
  <p>What best describes how you currently feel?</p>
  </div>","72","html-slider-response","38","458466","0.0-5.0-4.5","171","1","2025-07-23 07:18:12","1f75c3e559b7213887762d5229550c2b","86.158.68.150","Mozilla/5.0 (Windows NT 10.0; Win64; x64) AppleWebKit/537.36 (KHTML, like Gecko) Chrome/138.0.0.0 Safari/537.36","WebKit","Chrome","138.0.0.0","Windows","10.0","https://app.prolific.com/","en-US,en;q=0.9","5d1290103b20b0000102e8e3","683dba2a8a9dda3513610c04","68808bdf63a5a19f12f06260","3","0","5d1290103b20b0000102e8e3","3","0","2025-07-23T07:25:54.107Z","","","","","","","","","","","MotivationQ","","50","","","","","","","","","","","","","","","","","","","","","","","","","","","","",""
"","","","","ctl-task-cpt","39","511572","0.0-5.0-0.6","171","1","2025-07-23 07:18:12","1f75c3e559b7213887762d5229550c2b","86.158.68.150","Mozilla/5.0 (Windows NT 10.0; Win64; x64) AppleWebKit/537.36 (KHTML, like Gecko) Chrome/138.0.0.0 Safari/537.36","WebKit","Chrome","138.0.0.0","Windows","10.0","https://app.prolific.com/","en-US,en;q=0.9","5d1290103b20b0000102e8e3","683dba2a8a9dda3513610c04","68808bdf63a5a19f12f06260","3","0","5d1290103b20b0000102e8e3","3","0","2025-07-23T07:26:47.211Z","","","","","","","","","","","","","","win-only","3","g1:SW,g2:NE","0.4","7","0","460714.2","3120.3","8125.2","50064.9","1","4","4","6","1","-1","-1","6","7","0.045454545454545456","5004.9","3000","-1920","[""down"",""left""]","{""num_key_presses"":9,""num_perfect"":3,""num_errors"":0,""num_randdir"":6,""num_randdir_good_moves"":3,""num_whilered"":0,""num_whileblue"":0,""num_blue"":4,""num_good_moves"":6}","[418.07142857142856,423.6808016640799,0.7,418.07142857142856,423.6808016640799,107.7,418.07142857142856,423.6808016640799,224.6,418.07142857142856,423.6808016640799,334.5,418.07142857142856,423.6808016640799,442.5,856.0714285714286,290.1808016640799,551.5,1303.0714285714287,197.18080166407992,668.6,1303.0714285714287,197.18080166407992,782.9,1303.0714285714287,197.18080166407992,883.3,1303.0714285714287,197.18080166407992,987.2,1303.0714285714287,197.18080166407992,1091,1303.0714285714287,197.18080166407992,1194.3,1303.0714285714287,197.18080166407992,1302.5,1303.0714285714287,197.18080166407992,1405.7,1303.0714285714287,197.18080166407992,1507.5,1303.0714285714287,197.18080166407992,1615.1,1303.0714285714287,197.18080166407992,1715.3,1303.0714285714287,197.18080166407992,1822.2,1303.0714285714287,197.18080166407992,1930.3,1303.0714285714287,197.18080166407992,2034.1,1303.0714285714287,197.18080166407992,2137.5,1303.0714285714287,197.18080166407992,2243.2,1303.0714285714287,197.18080166407992,2347.6,1303.0714285714287,197.18080166407992,2450.6,1303.0714285714287,197.18080166407992,2551.6,1303.0714285714287,197.18080166407992,2651.6,1303.0714285714287,197.18080166407992,2757,1303.0714285714287,197.18080166407992,2857.6,1303.0714285714287,197.18080166407992,2970,1303.0714285714287,197.18080166407992,3070.5,1303.0714285714287,197.18080166407992,3177.9,1303.0714285714287,197.18080166407992,3281,1303.0714285714287,197.18080166407992,3385.7,1303.0714285714287,197.18080166407992,3493.9,1303.0714285714287,197.18080166407992,3597.9,1303.0714285714287,197.18080166407992,3706.4,1303.0714285714287,197.18080166407992,3813.7,1303.0714285714287,197.18080166407992,3914.3,1303.0714285714287,197.18080166407992,4016.4,1303.0714285714287,197.18080166407992,4134.3,1303.0714285714287,197.18080166407992,4235.6,1303.0714285714287,197.18080166407992,4344.2,1303.0714285714287,197.18080166407992,4446.2,1303.0714285714287,197.18080166407992,4548.1,1303.0714285714287,197.18080166407992,4648.6,1303.0714285714287,197.18080166407992,4751.5,1303.0714285714287,197.18080166407992,4856.4,1303.0714285714287,197.18080166407992,4970.8]","[1396.1,1396.1,1000,0,396.1,""oops"",""down"",""right"",""bad_move"",7443.2,6046.5,2075.5,4892.8,474.9,""oops"",""down"",""down"",""good_move"",10477.2,3033.6,2362.2,7443.6,671.4,""oops"",""down"",""up"",""bad_move"",13658,3180.5,2766.5,10477.5,414,""oops"",""down"",""up"",""bad_move"",16256.3,2598.3,2179,13658.1,419.3,""smooth"",""left"",""left"",""good_move"",27966.7,11707.3,2456.1,24787.3,723.3,""oops"",""left"",""left"",""good_move"",30582.8,2616,2222.5,27966.9,393.4,""smooth"",""down"",""down"",""good_move"",36192.7,5609.5,1957.6,33658.2,576.9,""oops"",""down"",""left"",""good_move"",38625.6,2432.5,2127.3,36193.1,305.2,""smooth"",""down"",""down"",""good_move""]","",""
"6465","","<div style=""width:500px;"">
  <p>What determined the result of this run?</p>
  </div>","31","html-slider-response","40","518042","0.0-5.0-1.6","171","1","2025-07-23 07:18:12","1f75c3e559b7213887762d5229550c2b","86.158.68.150","Mozilla/5.0 (Windows NT 10.0; Win64; x64) AppleWebKit/537.36 (KHTML, like Gecko) Chrome/138.0.0.0 Safari/537.36","WebKit","Chrome","138.0.0.0","Windows","10.0","https://app.prolific.com/","en-US,en;q=0.9","5d1290103b20b0000102e8e3","683dba2a8a9dda3513610c04","68808bdf63a5a19f12f06260","3","0","5d1290103b20b0000102e8e3","3","0","2025-07-23T07:26:53.683Z","","","","","","","","","","","AttribQ","","50","","","","","","","","","","","","","","","","","","","","","","","","","","","","",""
"6368","","<div style=""width:500px;"">
  <p>How much control did you have over the ball?</p>
  </div>","17","html-slider-response","41","524424","0.0-5.0-2.6","171","1","2025-07-23 07:18:12","1f75c3e559b7213887762d5229550c2b","86.158.68.150","Mozilla/5.0 (Windows NT 10.0; Win64; x64) AppleWebKit/537.36 (KHTML, like Gecko) Chrome/138.0.0.0 Safari/537.36","WebKit","Chrome","138.0.0.0","Windows","10.0","https://app.prolific.com/","en-US,en;q=0.9","5d1290103b20b0000102e8e3","683dba2a8a9dda3513610c04","68808bdf63a5a19f12f06260","3","0","5d1290103b20b0000102e8e3","3","0","2025-07-23T07:27:00.065Z","","","","","","","","","","","ControlQ","","50","","","","","","","","","","","","","","","","","","","","","","","","","","","","",""
"6150","","<div style=""width:500px;"">
  <p>How would you describe your current emotional state?</p>
  </div>","64","html-slider-response","42","530590","0.0-5.0-3.6","171","1","2025-07-23 07:18:12","1f75c3e559b7213887762d5229550c2b","86.158.68.150","Mozilla/5.0 (Windows NT 10.0; Win64; x64) AppleWebKit/537.36 (KHTML, like Gecko) Chrome/138.0.0.0 Safari/537.36","WebKit","Chrome","138.0.0.0","Windows","10.0","https://app.prolific.com/","en-US,en;q=0.9","5d1290103b20b0000102e8e3","683dba2a8a9dda3513610c04","68808bdf63a5a19f12f06260","3","0","5d1290103b20b0000102e8e3","3","0","2025-07-23T07:27:06.231Z","","","","","","","","","","","StressQ","","50","","","","","","","","","","","","","","","","","","","","","","","","","","","","",""
"7225","","<div style=""width:500px;"">
  <p>What best describes how you currently feel?</p>
  </div>","76","html-slider-response","43","537833","0.0-5.0-4.6","171","1","2025-07-23 07:18:12","1f75c3e559b7213887762d5229550c2b","86.158.68.150","Mozilla/5.0 (Windows NT 10.0; Win64; x64) AppleWebKit/537.36 (KHTML, like Gecko) Chrome/138.0.0.0 Safari/537.36","WebKit","Chrome","138.0.0.0","Windows","10.0","https://app.prolific.com/","en-US,en;q=0.9","5d1290103b20b0000102e8e3","683dba2a8a9dda3513610c04","68808bdf63a5a19f12f06260","3","0","5d1290103b20b0000102e8e3","3","0","2025-07-23T07:27:13.474Z","","","","","","","","","","","MotivationQ","","50","","","","","","","","","","","","","","","","","","","","","","","","","","","","",""
"","","","","ctl-task-cpt","44","597588","0.0-5.0-0.7","171","1","2025-07-23 07:18:12","1f75c3e559b7213887762d5229550c2b","86.158.68.150","Mozilla/5.0 (Windows NT 10.0; Win64; x64) AppleWebKit/537.36 (KHTML, like Gecko) Chrome/138.0.0.0 Safari/537.36","WebKit","Chrome","138.0.0.0","Windows","10.0","https://app.prolific.com/","en-US,en;q=0.9","5d1290103b20b0000102e8e3","683dba2a8a9dda3513610c04","68808bdf63a5a19f12f06260","3","0","5d1290103b20b0000102e8e3","3","0","2025-07-23T07:28:13.227Z","","","","","","","","","","","","","","win-only","0","g1:NW,g2:SE","0.3","8","0","540080","2147.2","7151.2","56718.1","1","4","8","6","2","-8","-9","0","6","0","5004","3000","-1835","[""down"",""right""]","{""num_key_presses"":12,""num_perfect"":3,""num_errors"":1,""num_randdir"":8,""num_randdir_good_moves"":5,""num_whilered"":0,""num_whileblue"":1,""num_blue"":4,""num_good_moves"":8}","[413.57142857142856,423.6808016640799,0.2,413.57142857142856,423.6808016640799,100.7,413.57142857142856,423.6808016640799,202.8,413.57142857142856,423.6808016640799,316.3,413.57142857142856,423.6808016640799,416.5,494.57142857142856,395.1808016640799,519.5,1034.5714285714287,230.18080166407992,622.6,1130.5714285714287,207.68080166407992,726,1130.5714285714287,207.68080166407992,835.8,1130.5714285714287,207.68080166407992,942.3,1130.5714285714287,207.68080166407992,1042.8,1130.5714285714287,207.68080166407992,1150.8,1130.5714285714287,207.68080166407992,1251.3,1130.5714285714287,207.68080166407992,1355.5,1130.5714285714287,207.68080166407992,1456.8,1130.5714285714287,207.68080166407992,1561.1,1130.5714285714287,207.68080166407992,1663.7,1130.5714285714287,207.68080166407992,1776.5,1130.5714285714287,207.68080166407992,1878.6,1130.5714285714287,207.68080166407992,1985.6,1130.5714285714287,207.68080166407992,2094.9,1130.5714285714287,207.68080166407992,2205.3,1130.5714285714287,207.68080166407992,2306.9,1130.5714285714287,207.68080166407992,2408.7,1130.5714285714287,207.68080166407992,2516.4,1130.5714285714287,207.68080166407992,2630.1,1130.5714285714287,207.68080166407992,2748.1,1130.5714285714287,207.68080166407992,2851.3,1130.5714285714287,207.68080166407992,2963.6,1130.5714285714287,207.68080166407992,3068.1,1130.5714285714287,207.68080166407992,3168.8,1130.5714285714287,207.68080166407992,3274.9,1130.5714285714287,207.68080166407992,3375.6,1130.5714285714287,207.68080166407992,3494.9,1130.5714285714287,207.68080166407992,3611.4,1130.5714285714287,207.68080166407992,3716.4,1130.5714285714287,207.68080166407992,3827.7,1130.5714285714287,207.68080166407992,3928.7,1130.5714285714287,207.68080166407992,4031.5,1130.5714285714287,207.68080166407992,4135.9,1130.5714285714287,207.68080166407992,4241.8,1130.5714285714287,207.68080166407992,4346.7,1130.5714285714287,207.68080166407992,4452.9,1130.5714285714287,207.68080166407992,4557.4,1130.5714285714287,207.68080166407992,4659.4,1130.5714285714287,207.68080166407992,4767.7,1130.5714285714287,207.68080166407992,4869.1,1130.5714285714287,207.68080166407992,4980]","[1371.9,1371.9,1000,0,371.9,""oops"",""down"",""right"",""good_move"",12555.6,11183.2,3044.6,8862.1,648.9,""smooth"",""down"",""down"",""good_move"",15983.7,3427.9,2905.9,12555.9,522,""oops"",""down"",""up"",""bad_move"",19008.5,3022.7,2568.7,15985.8,454,""oops"",""down"",""right"",""good_move"",25971.7,6961.1,2494.2,23066.4,411.1,""oops"",""down"",""left"",""bad_move"",28851.8,2879.8,2442.4,25972,437.4,""oops"",""down"",""right"",""good_move"",31775.3,2920.9,2424.9,28854.4,496,""smooth"",""right"",""right"",""good_move"",34770.4,2994.6,2574.6,31775.9,419.9,""oops"",""down"",""down"",""good_move"",37997.7,3226.9,2839.4,34770.8,387.5,""oops"",""down"",""up"",""bad_move"",40889.3,2891.3,2587.2,37998.1,304.1,""smooth"",""down"",""down"",""good_move"",43532,2642,2397.7,40890,244.3,""while_blue"",""down"",""up"",""bad_move"",46838.1,3305.4,2838.3,43532.7,467.1,""oops"",""down"",""down"",""good_move""]","",""
"6184","","<div style=""width:500px;"">
  <p>What determined the result of this run?</p>
  </div>","25","html-slider-response","45","603777","0.0-5.0-1.7","171","1","2025-07-23 07:18:12","1f75c3e559b7213887762d5229550c2b","86.158.68.150","Mozilla/5.0 (Windows NT 10.0; Win64; x64) AppleWebKit/537.36 (KHTML, like Gecko) Chrome/138.0.0.0 Safari/537.36","WebKit","Chrome","138.0.0.0","Windows","10.0","https://app.prolific.com/","en-US,en;q=0.9","5d1290103b20b0000102e8e3","683dba2a8a9dda3513610c04","68808bdf63a5a19f12f06260","3","0","5d1290103b20b0000102e8e3","3","0","2025-07-23T07:28:19.423Z","","","","","","","","","","","AttribQ","","50","","","","","","","","","","","","","","","","","","","","","","","","","","","","",""
"5638","","<div style=""width:500px;"">
  <p>How much control did you have over the ball?</p>
  </div>","17","html-slider-response","46","609439","0.0-5.0-2.7","171","1","2025-07-23 07:18:12","1f75c3e559b7213887762d5229550c2b","86.158.68.150","Mozilla/5.0 (Windows NT 10.0; Win64; x64) AppleWebKit/537.36 (KHTML, like Gecko) Chrome/138.0.0.0 Safari/537.36","WebKit","Chrome","138.0.0.0","Windows","10.0","https://app.prolific.com/","en-US,en;q=0.9","5d1290103b20b0000102e8e3","683dba2a8a9dda3513610c04","68808bdf63a5a19f12f06260","3","0","5d1290103b20b0000102e8e3","3","0","2025-07-23T07:28:25.079Z","","","","","","","","","","","ControlQ","","50","","","","","","","","","","","","","","","","","","","","","","","","","","","","",""
"4422","","<div style=""width:500px;"">
  <p>How would you describe your current emotional state?</p>
  </div>","73","html-slider-response","47","613874","0.0-5.0-3.7","171","1","2025-07-23 07:18:12","1f75c3e559b7213887762d5229550c2b","86.158.68.150","Mozilla/5.0 (Windows NT 10.0; Win64; x64) AppleWebKit/537.36 (KHTML, like Gecko) Chrome/138.0.0.0 Safari/537.36","WebKit","Chrome","138.0.0.0","Windows","10.0","https://app.prolific.com/","en-US,en;q=0.9","5d1290103b20b0000102e8e3","683dba2a8a9dda3513610c04","68808bdf63a5a19f12f06260","3","0","5d1290103b20b0000102e8e3","3","0","2025-07-23T07:28:29.515Z","","","","","","","","","","","StressQ","","50","","","","","","","","","","","","","","","","","","","","","","","","","","","","",""
"5631","","<div style=""width:500px;"">
  <p>What best describes how you currently feel?</p>
  </div>","73","html-slider-response","48","619531","0.0-5.0-4.7","171","1","2025-07-23 07:18:12","1f75c3e559b7213887762d5229550c2b","86.158.68.150","Mozilla/5.0 (Windows NT 10.0; Win64; x64) AppleWebKit/537.36 (KHTML, like Gecko) Chrome/138.0.0.0 Safari/537.36","WebKit","Chrome","138.0.0.0","Windows","10.0","https://app.prolific.com/","en-US,en;q=0.9","5d1290103b20b0000102e8e3","683dba2a8a9dda3513610c04","68808bdf63a5a19f12f06260","3","0","5d1290103b20b0000102e8e3","3","0","2025-07-23T07:28:35.171Z","","","","","","","","","","","MotivationQ","","50","","","","","","","","","","","","","","","","","","","","","","","","","","","","",""
"","","","","ctl-task-cpt","49","640614","0.0-5.0-0.8","171","1","2025-07-23 07:18:12","1f75c3e559b7213887762d5229550c2b","86.158.68.150","Mozilla/5.0 (Windows NT 10.0; Win64; x64) AppleWebKit/537.36 (KHTML, like Gecko) Chrome/138.0.0.0 Safari/537.36","WebKit","Chrome","138.0.0.0","Windows","10.0","https://app.prolific.com/","en-US,en;q=0.9","5d1290103b20b0000102e8e3","683dba2a8a9dda3513610c04","68808bdf63a5a19f12f06260","3","0","5d1290103b20b0000102e8e3","3","0","2025-07-23T07:28:56.254Z","","","","","","","","","","","","","","win-only","2","g1:SE,g2:NW","0.2","9","0","621777.1","2075.1","7081.3","18050.3","1","4","4","6","1","1","1","1","0","0.007575757575757576","5006.1","3000","1690","[""down"",""right""]","{""num_key_presses"":4,""num_perfect"":1,""num_errors"":0,""num_randdir"":3,""num_randdir_good_moves"":3,""num_whilered"":0,""num_whileblue"":0,""num_blue"":0,""num_good_moves"":4}","[410.57142857142856,416.1808016640799,0.1,410.57142857142856,416.1808016640799,107.7,410.57142857142856,416.1808016640799,217.3,410.57142857142856,416.1808016640799,333.2,539.5714285714286,414.6808016640799,434.4,997.0714285714286,417.6808016640799,536.7,997.0714285714286,417.6808016640799,641.3,997.0714285714286,417.6808016640799,746.2,997.0714285714286,417.6808016640799,847.4,997.0714285714286,417.6808016640799,953.7,997.0714285714286,417.6808016640799,1053.7,997.0714285714286,417.6808016640799,1156.2,997.0714285714286,417.6808016640799,1266.4,997.0714285714286,417.6808016640799,1380.4,997.0714285714286,417.6808016640799,1488.7,997.0714285714286,417.6808016640799,1609.2,997.0714285714286,417.6808016640799,1718.2,997.0714285714286,417.6808016640799,1826.6,997.0714285714286,417.6808016640799,1929.1,997.0714285714286,417.6808016640799,2032,997.0714285714286,417.6808016640799,2138.8,997.0714285714286,417.6808016640799,2249.7,997.0714285714286,417.6808016640799,2368.7,997.0714285714286,417.6808016640799,2488.9,997.0714285714286,417.6808016640799,2593.1,997.0714285714286,417.6808016640799,2710.1,997.0714285714286,417.6808016640799,2812.4,997.0714285714286,417.6808016640799,2934.4,997.0714285714286,417.6808016640799,3047,997.0714285714286,417.6808016640799,3148.1,997.0714285714286,417.6808016640799,3255.7,997.0714285714286,417.6808016640799,3357.1,997.0714285714286,417.6808016640799,3459.5,997.0714285714286,417.6808016640799,3560.7,997.0714285714286,417.6808016640799,3666.3,997.0714285714286,417.6808016640799,3769.5,997.0714285714286,417.6808016640799,3872.3,997.0714285714286,417.6808016640799,3986.5,997.0714285714286,417.6808016640799,4087.8,997.0714285714286,417.6808016640799,4197.4,997.0714285714286,417.6808016640799,4323.4,997.0714285714286,417.6808016640799,4428.7,997.0714285714286,417.6808016640799,4531.2,997.0714285714286,417.6808016640799,4631.3,997.0714285714286,417.6808016640799,4733.4,997.0714285714286,417.6808016640799,4854.1,997.0714285714286,417.6808016640799,4971]","[1645.3,1645.3,1000,0,645.3,""oops"",""down"",""right"",""good_move"",4423.8,2778,2297.7,1645.9,480.2,""smooth"",""down"",""down"",""good_move"",7361.3,2937.1,2474.7,4424.2,462.4,""oops"",""down"",""right"",""good_move"",10816.1,3454.5,2682.2,7361.6,772.3,""oops"",""down"",""down"",""good_move""]","",""
"11239","","<div style=""width:500px;"">
  <p>What determined the result of this run?</p>
  </div>","59","html-slider-response","50","651854","0.0-5.0-1.8","171","1","2025-07-23 07:18:12","1f75c3e559b7213887762d5229550c2b","86.158.68.150","Mozilla/5.0 (Windows NT 10.0; Win64; x64) AppleWebKit/537.36 (KHTML, like Gecko) Chrome/138.0.0.0 Safari/537.36","WebKit","Chrome","138.0.0.0","Windows","10.0","https://app.prolific.com/","en-US,en;q=0.9","5d1290103b20b0000102e8e3","683dba2a8a9dda3513610c04","68808bdf63a5a19f12f06260","3","0","5d1290103b20b0000102e8e3","3","0","2025-07-23T07:29:07.493Z","","","","","","","","","","","AttribQ","","50","","","","","","","","","","","","","","","","","","","","","","","","","","","","",""
"4182","","<div style=""width:500px;"">
  <p>How much control did you have over the ball?</p>
  </div>","60","html-slider-response","51","656038","0.0-5.0-2.8","171","1","2025-07-23 07:18:12","1f75c3e559b7213887762d5229550c2b","86.158.68.150","Mozilla/5.0 (Windows NT 10.0; Win64; x64) AppleWebKit/537.36 (KHTML, like Gecko) Chrome/138.0.0.0 Safari/537.36","WebKit","Chrome","138.0.0.0","Windows","10.0","https://app.prolific.com/","en-US,en;q=0.9","5d1290103b20b0000102e8e3","683dba2a8a9dda3513610c04","68808bdf63a5a19f12f06260","3","0","5d1290103b20b0000102e8e3","3","0","2025-07-23T07:29:11.677Z","","","","","","","","","","","ControlQ","","50","","","","","","","","","","","","","","","","","","","","","","","","","","","","",""
"2600","","<div style=""width:500px;"">
  <p>How would you describe your current emotional state?</p>
  </div>","59","html-slider-response","52","658639","0.0-5.0-3.8","171","1","2025-07-23 07:18:12","1f75c3e559b7213887762d5229550c2b","86.158.68.150","Mozilla/5.0 (Windows NT 10.0; Win64; x64) AppleWebKit/537.36 (KHTML, like Gecko) Chrome/138.0.0.0 Safari/537.36","WebKit","Chrome","138.0.0.0","Windows","10.0","https://app.prolific.com/","en-US,en;q=0.9","5d1290103b20b0000102e8e3","683dba2a8a9dda3513610c04","68808bdf63a5a19f12f06260","3","0","5d1290103b20b0000102e8e3","3","0","2025-07-23T07:29:14.278Z","","","","","","","","","","","StressQ","","50","","","","","","","","","","","","","","","","","","","","","","","","","","","","",""
"3230","","<div style=""width:500px;"">
  <p>What best describes how you currently feel?</p>
  </div>","76","html-slider-response","53","661871","0.0-5.0-4.8","171","1","2025-07-23 07:18:12","1f75c3e559b7213887762d5229550c2b","86.158.68.150","Mozilla/5.0 (Windows NT 10.0; Win64; x64) AppleWebKit/537.36 (KHTML, like Gecko) Chrome/138.0.0.0 Safari/537.36","WebKit","Chrome","138.0.0.0","Windows","10.0","https://app.prolific.com/","en-US,en;q=0.9","5d1290103b20b0000102e8e3","683dba2a8a9dda3513610c04","68808bdf63a5a19f12f06260","3","0","5d1290103b20b0000102e8e3","3","0","2025-07-23T07:29:17.511Z","","","","","","","","","","","MotivationQ","","50","","","","","","","","","","","","","","","","","","","","","","","","","","","","",""
"","","","","ctl-task-cpt","54","727740","0.0-5.0-0.9","171","1","2025-07-23 07:18:12","1f75c3e559b7213887762d5229550c2b","86.158.68.150","Mozilla/5.0 (Windows NT 10.0; Win64; x64) AppleWebKit/537.36 (KHTML, like Gecko) Chrome/138.0.0.0 Safari/537.36","WebKit","Chrome","138.0.0.0","Windows","10.0","https://app.prolific.com/","en-US,en;q=0.9","5d1290103b20b0000102e8e3","683dba2a8a9dda3513610c04","68808bdf63a5a19f12f06260","3","0","5d1290103b20b0000102e8e3","3","0","2025-07-23T07:30:23.379Z","","","","","","","","","","","","","","win-only","1","g1:NE,g2:SW","0.4","10","0","664101","1564.7","6576","62837.6","1","4","8","6","1","-1","-1","0","1","0","5011.3","3000","-1380","[""up"",""right""]","{""num_key_presses"":16,""num_perfect"":7,""num_errors"":0,""num_randdir"":9,""num_randdir_good_moves"":2,""num_whilered"":0,""num_whileblue"":0,""num_blue"":2,""num_good_moves"":9}","[419.57142857142856,404.1808016640799,0.4,419.57142857142856,404.1808016640799,111.8,419.57142857142856,404.1808016640799,225.9,419.57142857142856,404.1808016640799,340.7,419.57142857142856,404.1808016640799,442.2,824.5714285714286,257.1808016640799,545.5,1298.5714285714287,203.18080166407992,649.3,1298.5714285714287,203.18080166407992,759.6,1298.5714285714287,203.18080166407992,861.1,1298.5714285714287,203.18080166407992,966.5,1298.5714285714287,203.18080166407992,1074.7,1298.5714285714287,203.18080166407992,1189.7,1298.5714285714287,203.18080166407992,1298,1298.5714285714287,203.18080166407992,1409.4,1298.5714285714287,203.18080166407992,1515.6,1298.5714285714287,203.18080166407992,1624.8,1298.5714285714287,203.18080166407992,1735.4,1298.5714285714287,203.18080166407992,1843.2,1298.5714285714287,203.18080166407992,1952.9,1298.5714285714287,203.18080166407992,2064.7,1298.5714285714287,203.18080166407992,2175.7,1298.5714285714287,203.18080166407992,2290.1,1298.5714285714287,203.18080166407992,2399.8,1298.5714285714287,203.18080166407992,2506.4,1298.5714285714287,203.18080166407992,2620.2,1298.5714285714287,203.18080166407992,2728.4,1298.5714285714287,203.18080166407992,2837.9,1298.5714285714287,203.18080166407992,2938.2,1298.5714285714287,203.18080166407992,3050.3,1298.5714285714287,203.18080166407992,3160.6,1298.5714285714287,203.18080166407992,3269.4,1298.5714285714287,203.18080166407992,3374.6,1298.5714285714287,203.18080166407992,3479.8,1298.5714285714287,203.18080166407992,3590.5,1298.5714285714287,203.18080166407992,3701.5,1298.5714285714287,203.18080166407992,3811.6,1298.5714285714287,203.18080166407992,3922,1298.5714285714287,203.18080166407992,4027.4,1298.5714285714287,203.18080166407992,4145.2,1298.5714285714287,203.18080166407992,4258.7,1298.5714285714287,203.18080166407992,4373.2,1298.5714285714287,203.18080166407992,4475.2,1298.5714285714287,203.18080166407992,4585.6,1298.5714285714287,203.18080166407992,4700.6,1298.5714285714287,203.18080166407992,4808.1,1298.5714285714287,203.18080166407992,4917.5]","[1449.9,1449.9,1000,0,449.9,""oops"",""up"",""right"",""good_move"",4260.4,2810.1,2363.7,1450.3,446.4,""oops"",""up"",""left"",""bad_move"",7665.9,3404.9,2934.8,4261,470.1,""oops"",""up"",""down"",""bad_move"",10558.5,2892.2,2423.4,7666.3,468.8,""smooth"",""right"",""right"",""good_move"",13825.4,3266.7,2879,10558.7,387.7,""oops"",""right"",""right"",""good_move"",17430.7,3605,3218.8,13825.7,386.2,""oops"",""up"",""down"",""bad_move"",23267,5836.1,2322.1,20489.9,455,""smooth"",""up"",""up"",""good_move"",29281,6013.7,1794.1,27034.3,452.6,""oops"",""up"",""down"",""bad_move"",31867.9,2586.7,1931.4,29281.2,655.3,""smooth"",""up"",""up"",""good_move"",35033.5,3165.4,2694,31868.1,471.4,""smooth"",""up"",""up"",""good_move"",38516.2,3482.4,3037.3,35033.8,445.1,""smooth"",""up"",""up"",""good_move"",40836.5,2320,1502.4,38516.5,817.6,""oops"",""up"",""down"",""bad_move"",43666.1,2828.9,2339.8,40837.2,489.1,""oops"",""up"",""down"",""bad_move"",46142.6,2476.1,1968.9,43666.5,507.2,""oops"",""up"",""down"",""bad_move"",49980.1,3837.2,3352.8,46142.9,484.4,""smooth"",""up"",""up"",""good_move"",52999.2,3018.4,1961.8,49980.8,1056.6,""smooth"",""up"",""up"",""good_move""]","",""
"4181","","<div style=""width:500px;"">
  <p>What determined the result of this run?</p>
  </div>","10","html-slider-response","55","731922","0.0-5.0-1.9","171","1","2025-07-23 07:18:12","1f75c3e559b7213887762d5229550c2b","86.158.68.150","Mozilla/5.0 (Windows NT 10.0; Win64; x64) AppleWebKit/537.36 (KHTML, like Gecko) Chrome/138.0.0.0 Safari/537.36","WebKit","Chrome","138.0.0.0","Windows","10.0","https://app.prolific.com/","en-US,en;q=0.9","5d1290103b20b0000102e8e3","683dba2a8a9dda3513610c04","68808bdf63a5a19f12f06260","3","0","5d1290103b20b0000102e8e3","3","0","2025-07-23T07:30:27.561Z","","","","","","","","","","","AttribQ","","50","","","","","","","","","","","","","","","","","","","","","","","","","","","","",""
"3596","","<div style=""width:500px;"">
  <p>How much control did you have over the ball?</p>
  </div>","10","html-slider-response","56","735519","0.0-5.0-2.9","171","1","2025-07-23 07:18:12","1f75c3e559b7213887762d5229550c2b","86.158.68.150","Mozilla/5.0 (Windows NT 10.0; Win64; x64) AppleWebKit/537.36 (KHTML, like Gecko) Chrome/138.0.0.0 Safari/537.36","WebKit","Chrome","138.0.0.0","Windows","10.0","https://app.prolific.com/","en-US,en;q=0.9","5d1290103b20b0000102e8e3","683dba2a8a9dda3513610c04","68808bdf63a5a19f12f06260","3","0","5d1290103b20b0000102e8e3","3","0","2025-07-23T07:30:31.158Z","","","","","","","","","","","ControlQ","","50","","","","","","","","","","","","","","","","","","","","","","","","","","","","",""
"2472","","<div style=""width:500px;"">
  <p>How would you describe your current emotional state?</p>
  </div>","75","html-slider-response","57","737993","0.0-5.0-3.9","171","1","2025-07-23 07:18:12","1f75c3e559b7213887762d5229550c2b","86.158.68.150","Mozilla/5.0 (Windows NT 10.0; Win64; x64) AppleWebKit/537.36 (KHTML, like Gecko) Chrome/138.0.0.0 Safari/537.36","WebKit","Chrome","138.0.0.0","Windows","10.0","https://app.prolific.com/","en-US,en;q=0.9","5d1290103b20b0000102e8e3","683dba2a8a9dda3513610c04","68808bdf63a5a19f12f06260","3","0","5d1290103b20b0000102e8e3","3","0","2025-07-23T07:30:33.632Z","","","","","","","","","","","StressQ","","50","","","","","","","","","","","","","","","","","","","","","","","","","","","","",""
"2556","","<div style=""width:500px;"">
  <p>What best describes how you currently feel?</p>
  </div>","78","html-slider-response","58","740553","0.0-5.0-4.9","171","1","2025-07-23 07:18:12","1f75c3e559b7213887762d5229550c2b","86.158.68.150","Mozilla/5.0 (Windows NT 10.0; Win64; x64) AppleWebKit/537.36 (KHTML, like Gecko) Chrome/138.0.0.0 Safari/537.36","WebKit","Chrome","138.0.0.0","Windows","10.0","https://app.prolific.com/","en-US,en;q=0.9","5d1290103b20b0000102e8e3","683dba2a8a9dda3513610c04","68808bdf63a5a19f12f06260","3","0","5d1290103b20b0000102e8e3","3","0","2025-07-23T07:30:36.192Z","","","","","","","","","","","MotivationQ","","50","","","","","","","","","","","","","","","","","","","","","","","","","","","","",""
"","","","","ctl-task-cpt","59","777339","0.0-5.0-0.10","171","1","2025-07-23 07:18:12","1f75c3e559b7213887762d5229550c2b","86.158.68.150","Mozilla/5.0 (Windows NT 10.0; Win64; x64) AppleWebKit/537.36 (KHTML, like Gecko) Chrome/138.0.0.0 Safari/537.36","WebKit","Chrome","138.0.0.0","Windows","10.0","https://app.prolific.com/","en-US,en;q=0.9","5d1290103b20b0000102e8e3","683dba2a8a9dda3513610c04","68808bdf63a5a19f12f06260","3","0","5d1290103b20b0000102e8e3","3","0","2025-07-23T07:31:12.978Z","","","","","","","","","","","","","","win-only","2","g1:SE,g2:NW","0.5","11","0","742782.6","1179.1","6194.7","33769.4","1","4","4","6","1","1","1","1","0","0.007575757575757576","5015.6","3000","1760","[""down"",""right""]","{""num_key_presses"":6,""num_perfect"":3,""num_errors"":0,""num_randdir"":3,""num_randdir_good_moves"":2,""num_whilered"":0,""num_whileblue"":0,""num_blue"":3,""num_good_moves"":5}","[421.07142857142856,416.1808016640799,0.5,421.07142857142856,416.1808016640799,105.6,421.07142857142856,416.1808016640799,208.5,421.07142857142856,416.1808016640799,312.4,656.5714285714286,377.1808016640799,421.2,1208.5714285714287,399.6808016640799,522.7,1208.5714285714287,399.6808016640799,629.7,1208.5714285714287,399.6808016640799,738.1,1208.5714285714287,399.6808016640799,841,1208.5714285714287,399.6808016640799,945.3,1208.5714285714287,399.6808016640799,1045.8,1208.5714285714287,399.6808016640799,1151.1,1208.5714285714287,399.6808016640799,1252.1,1208.5714285714287,399.6808016640799,1359,1208.5714285714287,399.6808016640799,1461.7,1208.5714285714287,399.6808016640799,1568.9,1208.5714285714287,399.6808016640799,1673.3,1208.5714285714287,399.6808016640799,1781.9,1208.5714285714287,399.6808016640799,1886.4,1208.5714285714287,399.6808016640799,1992.1,1208.5714285714287,399.6808016640799,2092.5,1208.5714285714287,399.6808016640799,2196.3,1208.5714285714287,399.6808016640799,2297.4,1208.5714285714287,399.6808016640799,2407.5,1208.5714285714287,399.6808016640799,2519.9,1208.5714285714287,399.6808016640799,2621.4,1208.5714285714287,399.6808016640799,2723.4,1208.5714285714287,399.6808016640799,2824.9,1208.5714285714287,399.6808016640799,2937.4,1208.5714285714287,399.6808016640799,3040,1208.5714285714287,399.6808016640799,3146.8,1208.5714285714287,399.6808016640799,3250.7,1208.5714285714287,399.6808016640799,3356.7,1208.5714285714287,399.6808016640799,3467.7,1208.5714285714287,399.6808016640799,3570,1208.5714285714287,399.6808016640799,3680,1208.5714285714287,399.6808016640799,3783.2,1208.5714285714287,399.6808016640799,3894,1208.5714285714287,399.6808016640799,3998.5,1208.5714285714287,399.6808016640799,4112.8,1208.5714285714287,399.6808016640799,4218.5,1208.5714285714287,399.6808016640799,4323.7,1208.5714285714287,399.6808016640799,4425.3,1208.5714285714287,399.6808016640799,4532.5,1208.5714285714287,399.6808016640799,4638.2,1208.5714285714287,399.6808016640799,4741.4,1208.5714285714287,399.6808016640799,4849.4,1208.5714285714287,399.6808016640799,4958.8]","[1404.9,1404.9,1000,0,404.9,""smooth"",""down"",""down"",""good_move"",3492.2,2086.8,1636.1,1405.4,450.7,""oops"",""down"",""down"",""good_move"",16279.9,12787.4,2827.4,12962.4,490.1,""oops"",""right"",""left"",""bad_move"",20069.8,3789.5,3148.6,16280.3,640.9,""oops"",""right"",""right"",""good_move"",24087.2,4016.8,3401.7,20070.4,615.1,""smooth"",""right"",""right"",""good_move"",27343.6,3255.9,2761.9,24087.7,494,""smooth"",""right"",""right"",""good_move""]","",""
"4365","","<div style=""width:500px;"">
  <p>What determined the result of this run?</p>
  </div>","44","html-slider-response","60","781705","0.0-5.0-1.10","171","1","2025-07-23 07:18:12","1f75c3e559b7213887762d5229550c2b","86.158.68.150","Mozilla/5.0 (Windows NT 10.0; Win64; x64) AppleWebKit/537.36 (KHTML, like Gecko) Chrome/138.0.0.0 Safari/537.36","WebKit","Chrome","138.0.0.0","Windows","10.0","https://app.prolific.com/","en-US,en;q=0.9","5d1290103b20b0000102e8e3","683dba2a8a9dda3513610c04","68808bdf63a5a19f12f06260","3","0","5d1290103b20b0000102e8e3","3","0","2025-07-23T07:31:17.344Z","","","","","","","","","","","AttribQ","","50","","","","","","","","","","","","","","","","","","","","","","","","","","","","",""
"2515","","<div style=""width:500px;"">
  <p>How much control did you have over the ball?</p>
  </div>","39","html-slider-response","61","784221","0.0-5.0-2.10","171","1","2025-07-23 07:18:12","1f75c3e559b7213887762d5229550c2b","86.158.68.150","Mozilla/5.0 (Windows NT 10.0; Win64; x64) AppleWebKit/537.36 (KHTML, like Gecko) Chrome/138.0.0.0 Safari/537.36","WebKit","Chrome","138.0.0.0","Windows","10.0","https://app.prolific.com/","en-US,en;q=0.9","5d1290103b20b0000102e8e3","683dba2a8a9dda3513610c04","68808bdf63a5a19f12f06260","3","0","5d1290103b20b0000102e8e3","3","0","2025-07-23T07:31:19.860Z","","","","","","","","","","","ControlQ","","50","","","","","","","","","","","","","","","","","","","","","","","","","","","","",""
"3934","","<div style=""width:500px;"">
  <p>How would you describe your current emotional state?</p>
  </div>","71","html-slider-response","62","788157","0.0-5.0-3.10","171","1","2025-07-23 07:18:12","1f75c3e559b7213887762d5229550c2b","86.158.68.150","Mozilla/5.0 (Windows NT 10.0; Win64; x64) AppleWebKit/537.36 (KHTML, like Gecko) Chrome/138.0.0.0 Safari/537.36","WebKit","Chrome","138.0.0.0","Windows","10.0","https://app.prolific.com/","en-US,en;q=0.9","5d1290103b20b0000102e8e3","683dba2a8a9dda3513610c04","68808bdf63a5a19f12f06260","3","0","5d1290103b20b0000102e8e3","3","0","2025-07-23T07:31:23.796Z","","","","","","","","","","","StressQ","","50","","","","","","","","","","","","","","","","","","","","","","","","","","","","",""
"4948","","<div style=""width:500px;"">
  <p>What best describes how you currently feel?</p>
  </div>","79","html-slider-response","63","793106","0.0-5.0-4.10","171","1","2025-07-23 07:18:12","1f75c3e559b7213887762d5229550c2b","86.158.68.150","Mozilla/5.0 (Windows NT 10.0; Win64; x64) AppleWebKit/537.36 (KHTML, like Gecko) Chrome/138.0.0.0 Safari/537.36","WebKit","Chrome","138.0.0.0","Windows","10.0","https://app.prolific.com/","en-US,en;q=0.9","5d1290103b20b0000102e8e3","683dba2a8a9dda3513610c04","68808bdf63a5a19f12f06260","3","0","5d1290103b20b0000102e8e3","3","0","2025-07-23T07:31:28.745Z","","","","","","","","","","","MotivationQ","","50","","","","","","","","","","","","","","","","","","","","","","","","","","","","",""
"","","","","ctl-task-cpt","64","847686","0.0-5.0-0.11","171","1","2025-07-23 07:18:12","1f75c3e559b7213887762d5229550c2b","86.158.68.150","Mozilla/5.0 (Windows NT 10.0; Win64; x64) AppleWebKit/537.36 (KHTML, like Gecko) Chrome/138.0.0.0 Safari/537.36","WebKit","Chrome","138.0.0.0","Windows","10.0","https://app.prolific.com/","en-US,en;q=0.9","5d1290103b20b0000102e8e3","683dba2a8a9dda3513610c04","68808bdf63a5a19f12f06260","3","0","5d1290103b20b0000102e8e3","3","0","2025-07-23T07:32:23.325Z","","","","","","","","","","","","","","win-only","1","g1:NE,g2:SW","0.6","12","0","795334.2","1783.2","6796.5","51554","1","4","8","6","2","8","8","9","1","0.06818181818181818","5013.3","3000","1490","[""down"",""left""]","{""num_key_presses"":10,""num_perfect"":6,""num_errors"":0,""num_randdir"":4,""num_randdir_good_moves"":2,""num_whilered"":0,""num_whileblue"":0,""num_blue"":3,""num_good_moves"":8}","[424.07142857142856,407.1808016640799,0.2,424.07142857142856,407.1808016640799,103.7,424.07142857142856,407.1808016640799,205.8,424.07142857142856,407.1808016640799,309,424.07142857142856,407.1808016640799,415.5,902.5714285714286,327.6808016640799,530,1271.5714285714287,272.1808016640799,634.8,1271.5714285714287,272.1808016640799,746.5,1271.5714285714287,272.1808016640799,860.4,1271.5714285714287,272.1808016640799,961.5,1271.5714285714287,272.1808016640799,1075.1,1271.5714285714287,272.1808016640799,1189.5,1271.5714285714287,272.1808016640799,1302.8,1271.5714285714287,272.1808016640799,1416.6,1271.5714285714287,272.1808016640799,1516.9,1271.5714285714287,272.1808016640799,1618.7,1271.5714285714287,272.1808016640799,1732.3,1271.5714285714287,272.1808016640799,1846.4,1271.5714285714287,272.1808016640799,1948.2,1271.5714285714287,272.1808016640799,2058.8,1271.5714285714287,272.1808016640799,2163.1,1271.5714285714287,272.1808016640799,2268.9,1271.5714285714287,272.1808016640799,2375.7,1271.5714285714287,272.1808016640799,2478.1,1271.5714285714287,272.1808016640799,2580.9,1271.5714285714287,272.1808016640799,2684,1271.5714285714287,272.1808016640799,2785.4,1271.5714285714287,272.1808016640799,2905,1271.5714285714287,272.1808016640799,3011,1271.5714285714287,272.1808016640799,3111.7,1271.5714285714287,272.1808016640799,3213.9,1271.5714285714287,272.1808016640799,3315.9,1271.5714285714287,272.1808016640799,3417.3,1271.5714285714287,272.1808016640799,3521.5,1271.5714285714287,272.1808016640799,3626,1271.5714285714287,272.1808016640799,3739,1271.5714285714287,272.1808016640799,3842.4,1271.5714285714287,272.1808016640799,3945.5,1271.5714285714287,272.1808016640799,4059.1,1271.5714285714287,272.1808016640799,4162.4,1271.5714285714287,272.1808016640799,4273.1,1271.5714285714287,272.1808016640799,4379.3,1271.5714285714287,272.1808016640799,4482.4,1271.5714285714287,272.1808016640799,4585.7,1271.5714285714287,272.1808016640799,4698.7,1271.5714285714287,272.1808016640799,4806.8,1271.5714285714287,272.1808016640799,4911.7]","[1460.2,1460.2,1000,0,460.2,""smooth"",""left"",""left"",""good_move"",11929.3,10468.8,2681.3,8755.4,492.6,""smooth"",""left"",""left"",""good_move"",16401.7,4472.2,3094.4,11929.5,1377.8,""smooth"",""down"",""down"",""good_move"",20193.7,3784.9,3195.4,16408.8,589.5,""oops"",""down"",""down"",""good_move"",26985.3,6791.4,2356.7,24129.2,499.4,""oops"",""down"",""up"",""bad_move"",31578.4,4592.6,2064.1,26985.8,2528.5,""smooth"",""down"",""down"",""good_move"",34349.2,2770.7,2172.8,31578.5,597.9,""smooth"",""down"",""down"",""good_move"",37762.2,3412.8,3002,34349.4,410.8,""oops"",""left"",""up"",""bad_move"",40766.6,3004.2,2505.6,37762.4,498.6,""smooth"",""left"",""left"",""good_move"",44426.7,3659.8,3178.7,40766.9,481.1,""oops"",""down"",""down"",""good_move""]","",""
"4453","","<div style=""width:500px;"">
  <p>What determined the result of this run?</p>
  </div>","44","html-slider-response","65","852139","0.0-5.0-1.11","171","1","2025-07-23 07:18:12","1f75c3e559b7213887762d5229550c2b","86.158.68.150","Mozilla/5.0 (Windows NT 10.0; Win64; x64) AppleWebKit/537.36 (KHTML, like Gecko) Chrome/138.0.0.0 Safari/537.36","WebKit","Chrome","138.0.0.0","Windows","10.0","https://app.prolific.com/","en-US,en;q=0.9","5d1290103b20b0000102e8e3","683dba2a8a9dda3513610c04","68808bdf63a5a19f12f06260","3","0","5d1290103b20b0000102e8e3","3","0","2025-07-23T07:32:27.778Z","","","","","","","","","","","AttribQ","","50","","","","","","","","","","","","","","","","","","","","","","","","","","","","",""
"3683","","<div style=""width:500px;"">
  <p>How much control did you have over the ball?</p>
  </div>","56","html-slider-response","66","855823","0.0-5.0-2.11","171","1","2025-07-23 07:18:12","1f75c3e559b7213887762d5229550c2b","86.158.68.150","Mozilla/5.0 (Windows NT 10.0; Win64; x64) AppleWebKit/537.36 (KHTML, like Gecko) Chrome/138.0.0.0 Safari/537.36","WebKit","Chrome","138.0.0.0","Windows","10.0","https://app.prolific.com/","en-US,en;q=0.9","5d1290103b20b0000102e8e3","683dba2a8a9dda3513610c04","68808bdf63a5a19f12f06260","3","0","5d1290103b20b0000102e8e3","3","0","2025-07-23T07:32:31.462Z","","","","","","","","","","","ControlQ","","50","","","","","","","","","","","","","","","","","","","","","","","","","","","","",""
"3080","","<div style=""width:500px;"">
  <p>How would you describe your current emotional state?</p>
  </div>","60","html-slider-response","67","858904","0.0-5.0-3.11","171","1","2025-07-23 07:18:12","1f75c3e559b7213887762d5229550c2b","86.158.68.150","Mozilla/5.0 (Windows NT 10.0; Win64; x64) AppleWebKit/537.36 (KHTML, like Gecko) Chrome/138.0.0.0 Safari/537.36","WebKit","Chrome","138.0.0.0","Windows","10.0","https://app.prolific.com/","en-US,en;q=0.9","5d1290103b20b0000102e8e3","683dba2a8a9dda3513610c04","68808bdf63a5a19f12f06260","3","0","5d1290103b20b0000102e8e3","3","0","2025-07-23T07:32:34.543Z","","","","","","","","","","","StressQ","","50","","","","","","","","","","","","","","","","","","","","","","","","","","","","",""
"2582","","<div style=""width:500px;"">
  <p>What best describes how you currently feel?</p>
  </div>","74","html-slider-response","68","861487","0.0-5.0-4.11","171","1","2025-07-23 07:18:12","1f75c3e559b7213887762d5229550c2b","86.158.68.150","Mozilla/5.0 (Windows NT 10.0; Win64; x64) AppleWebKit/537.36 (KHTML, like Gecko) Chrome/138.0.0.0 Safari/537.36","WebKit","Chrome","138.0.0.0","Windows","10.0","https://app.prolific.com/","en-US,en;q=0.9","5d1290103b20b0000102e8e3","683dba2a8a9dda3513610c04","68808bdf63a5a19f12f06260","3","0","5d1290103b20b0000102e8e3","3","0","2025-07-23T07:32:37.126Z","","","","","","","","","","","MotivationQ","","50","","","","","","","","","","","","","","","","","","","","","","","","","","","","",""
"","","","","ctl-task-cpt","69","883026","0.0-5.0-0.12","171","1","2025-07-23 07:18:12","1f75c3e559b7213887762d5229550c2b","86.158.68.150","Mozilla/5.0 (Windows NT 10.0; Win64; x64) AppleWebKit/537.36 (KHTML, like Gecko) Chrome/138.0.0.0 Safari/537.36","WebKit","Chrome","138.0.0.0","Windows","10.0","https://app.prolific.com/","en-US,en;q=0.9","5d1290103b20b0000102e8e3","683dba2a8a9dda3513610c04","68808bdf63a5a19f12f06260","3","0","5d1290103b20b0000102e8e3","3","0","2025-07-23T07:32:58.666Z","","","","","","","","","","","","","","win-only","3","g1:SW,g2:NE","0.7","13","0","863715.9","1612.3","6618.4","18510.5","1","4","8","6","1","1","1","10","9","0.07575757575757576","5006.1","3000","2220","[""down"",""left""]","{""num_key_presses"":4,""num_perfect"":3,""num_errors"":0,""num_randdir"":1,""num_randdir_good_moves"":1,""num_whilered"":0,""num_whileblue"":0,""num_blue"":0,""num_good_moves"":4}","[407.57142857142856,410.1808016640799,0.1,407.57142857142856,410.1808016640799,113.5,407.57142857142856,410.1808016640799,228.4,407.57142857142856,410.1808016640799,341,434.57142857142856,407.1808016640799,447.1,1273.0714285714287,293.1808016640799,556,1273.0714285714287,293.1808016640799,656.2,1273.0714285714287,293.1808016640799,756.2,1273.0714285714287,293.1808016640799,870.3,1273.0714285714287,293.1808016640799,989.6,1273.0714285714287,293.1808016640799,1107.5,1273.0714285714287,293.1808016640799,1207.8,1273.0714285714287,293.1808016640799,1328.5,1273.0714285714287,293.1808016640799,1445.5,1273.0714285714287,293.1808016640799,1564.6,1273.0714285714287,293.1808016640799,1664.8,1273.0714285714287,293.1808016640799,1782.6,1273.0714285714287,293.1808016640799,1901,1273.0714285714287,293.1808016640799,2001.2,1273.0714285714287,293.1808016640799,2118.4,1273.0714285714287,293.1808016640799,2233.1,1273.0714285714287,293.1808016640799,2350.1,1273.0714285714287,293.1808016640799,2452.2,1273.0714285714287,293.1808016640799,2557.9,1273.0714285714287,293.1808016640799,2675.4,1273.0714285714287,293.1808016640799,2787.7,1273.0714285714287,293.1808016640799,2890.5,1273.0714285714287,293.1808016640799,2992.4,1273.0714285714287,293.1808016640799,3098.4,1273.0714285714287,293.1808016640799,3203.2,1273.0714285714287,293.1808016640799,3304.3,1273.0714285714287,293.1808016640799,3404.4,1273.0714285714287,293.1808016640799,3507.7,1273.0714285714287,293.1808016640799,3610.1,1273.0714285714287,293.1808016640799,3715,1273.0714285714287,293.1808016640799,3823.3,1273.0714285714287,293.1808016640799,3925.4,1273.0714285714287,293.1808016640799,4029.9,1273.0714285714287,293.1808016640799,4140.1,1273.0714285714287,293.1808016640799,4246.6,1273.0714285714287,293.1808016640799,4353.8,1273.0714285714287,293.1808016640799,4459.3,1273.0714285714287,293.1808016640799,4566,1273.0714285714287,293.1808016640799,4670.9,1273.0714285714287,293.1808016640799,4778,1273.0714285714287,293.1808016640799,4885.8,1273.0714285714287,293.1808016640799,4990.1]","[1463.3,1463.3,1000,0,463.3,""smooth"",""down"",""down"",""good_move"",4061.1,2597.5,2078.6,1463.6,518.9,""smooth"",""down"",""down"",""good_move"",7561.6,3500,2977.7,4061.6,522.3,""oops"",""left"",""left"",""good_move"",11689.1,4127.2,2929.2,7561.9,1198,""smooth"",""left"",""left"",""good_move""]","",""
"3186","","<div style=""width:500px;"">
  <p>What determined the result of this run?</p>
  </div>","65","html-slider-response","70","886213","0.0-5.0-1.12","171","1","2025-07-23 07:18:12","1f75c3e559b7213887762d5229550c2b","86.158.68.150","Mozilla/5.0 (Windows NT 10.0; Win64; x64) AppleWebKit/537.36 (KHTML, like Gecko) Chrome/138.0.0.0 Safari/537.36","WebKit","Chrome","138.0.0.0","Windows","10.0","https://app.prolific.com/","en-US,en;q=0.9","5d1290103b20b0000102e8e3","683dba2a8a9dda3513610c04","68808bdf63a5a19f12f06260","3","0","5d1290103b20b0000102e8e3","3","0","2025-07-23T07:33:01.853Z","","","","","","","","","","","AttribQ","","50","","","","","","","","","","","","","","","","","","","","","","","","","","","","",""
"3361","","<div style=""width:500px;"">
  <p>How much control did you have over the ball?</p>
  </div>","61","html-slider-response","71","889576","0.0-5.0-2.12","171","1","2025-07-23 07:18:12","1f75c3e559b7213887762d5229550c2b","86.158.68.150","Mozilla/5.0 (Windows NT 10.0; Win64; x64) AppleWebKit/537.36 (KHTML, like Gecko) Chrome/138.0.0.0 Safari/537.36","WebKit","Chrome","138.0.0.0","Windows","10.0","https://app.prolific.com/","en-US,en;q=0.9","5d1290103b20b0000102e8e3","683dba2a8a9dda3513610c04","68808bdf63a5a19f12f06260","3","0","5d1290103b20b0000102e8e3","3","0","2025-07-23T07:33:05.215Z","","","","","","","","","","","ControlQ","","50","","","","","","","","","","","","","","","","","","","","","","","","","","","","",""
"2145","","<div style=""width:500px;"">
  <p>How would you describe your current emotional state?</p>
  </div>","67","html-slider-response","72","891722","0.0-5.0-3.12","171","1","2025-07-23 07:18:12","1f75c3e559b7213887762d5229550c2b","86.158.68.150","Mozilla/5.0 (Windows NT 10.0; Win64; x64) AppleWebKit/537.36 (KHTML, like Gecko) Chrome/138.0.0.0 Safari/537.36","WebKit","Chrome","138.0.0.0","Windows","10.0","https://app.prolific.com/","en-US,en;q=0.9","5d1290103b20b0000102e8e3","683dba2a8a9dda3513610c04","68808bdf63a5a19f12f06260","3","0","5d1290103b20b0000102e8e3","3","0","2025-07-23T07:33:07.361Z","","","","","","","","","","","StressQ","","50","","","","","","","","","","","","","","","","","","","","","","","","","","","","",""
"2609","","<div style=""width:500px;"">
  <p>What best describes how you currently feel?</p>
  </div>","80","html-slider-response","73","894332","0.0-5.0-4.12","171","1","2025-07-23 07:18:12","1f75c3e559b7213887762d5229550c2b","86.158.68.150","Mozilla/5.0 (Windows NT 10.0; Win64; x64) AppleWebKit/537.36 (KHTML, like Gecko) Chrome/138.0.0.0 Safari/537.36","WebKit","Chrome","138.0.0.0","Windows","10.0","https://app.prolific.com/","en-US,en;q=0.9","5d1290103b20b0000102e8e3","683dba2a8a9dda3513610c04","68808bdf63a5a19f12f06260","3","0","5d1290103b20b0000102e8e3","3","0","2025-07-23T07:33:09.971Z","","","","","","","","","","","MotivationQ","","50","","","","","","","","","","","","","","","","","","","","","","","","","","","","",""
"","","","","ctl-task-cpt","74","930374","0.0-5.0-0.13","171","1","2025-07-23 07:18:12","1f75c3e559b7213887762d5229550c2b","86.158.68.150","Mozilla/5.0 (Windows NT 10.0; Win64; x64) AppleWebKit/537.36 (KHTML, like Gecko) Chrome/138.0.0.0 Safari/537.36","WebKit","Chrome","138.0.0.0","Windows","10.0","https://app.prolific.com/","en-US,en;q=0.9","5d1290103b20b0000102e8e3","683dba2a8a9dda3513610c04","68808bdf63a5a19f12f06260","3","0","5d1290103b20b0000102e8e3","3","0","2025-07-23T07:33:46.014Z","","","","","","","","","","","","","","win-only","3","g1:SW,g2:NE","0.8","14","0","896561.6","1752.6","6775.9","33007.7","1","4","4","6","1","1","1","11","10","0.08333333333333333","5023.3","3000","2500","[""down"",""left""]","{""num_key_presses"":4,""num_perfect"":3,""num_errors"":0,""num_randdir"":1,""num_randdir_good_moves"":1,""num_whilered"":0,""num_whileblue"":0,""num_blue"":3,""num_good_moves"":4}","[419.57142857142856,405.6808016640799,0.3,419.57142857142856,405.6808016640799,113.4,419.57142857142856,405.6808016640799,234,419.57142857142856,405.6808016640799,357.6,1031.5714285714287,245.18080166407992,461.6,1135.0714285714287,227.18080166407992,563.6,1135.0714285714287,227.18080166407992,664.5,1135.0714285714287,227.18080166407992,780.2,1135.0714285714287,227.18080166407992,902.8,1135.0714285714287,227.18080166407992,1018.5,1135.0714285714287,227.18080166407992,1144,1135.0714285714287,227.18080166407992,1266.9,1135.0714285714287,227.18080166407992,1392.8,1135.0714285714287,227.18080166407992,1493.1,1135.0714285714287,227.18080166407992,1595.6,1135.0714285714287,227.18080166407992,1718,1135.0714285714287,227.18080166407992,1830.9,1135.0714285714287,227.18080166407992,1952.6,1135.0714285714287,227.18080166407992,2058.7,1135.0714285714287,227.18080166407992,2181.9,1135.0714285714287,227.18080166407992,2302.3,1135.0714285714287,227.18080166407992,2418.2,1135.0714285714287,227.18080166407992,2538.1,1135.0714285714287,227.18080166407992,2642.5,1135.0714285714287,227.18080166407992,2769.7,1135.0714285714287,227.18080166407992,2895.2,1135.0714285714287,227.18080166407992,3009.9,1135.0714285714287,227.18080166407992,3114.8,1135.0714285714287,227.18080166407992,3215.3,1135.0714285714287,227.18080166407992,3315.5,1135.0714285714287,227.18080166407992,3438.3,1135.0714285714287,227.18080166407992,3538.5,1135.0714285714287,227.18080166407992,3662.4,1135.0714285714287,227.18080166407992,3789.9,1135.0714285714287,227.18080166407992,3902.7,1135.0714285714287,227.18080166407992,4016.1,1135.0714285714287,227.18080166407992,4144.7,1135.0714285714287,227.18080166407992,4244.8,1135.0714285714287,227.18080166407992,4377.2,1135.0714285714287,227.18080166407992,4503.2,1135.0714285714287,227.18080166407992,4633.6,1135.0714285714287,227.18080166407992,4764.9,1135.0714285714287,227.18080166407992,4882.3,1135.0714285714287,227.18080166407992,4999.9]","[4557.4,4557.4,1946,2038.3,573.1,""smooth"",""left"",""left"",""good_move"",10802,6243.9,2915.9,4558.1,3328,""smooth"",""left"",""left"",""good_move"",14754.3,3951.9,2774.3,10802.4,1177.6,""smooth"",""down"",""down"",""good_move"",25854.5,11099.8,3335.9,21859.2,659.4,""oops"",""down"",""down"",""good_move""]","",""
"5028","","<div style=""width:500px;"">
  <p>What determined the result of this run?</p>
  </div>","58","html-slider-response","75","935404","0.0-5.0-1.13","171","1","2025-07-23 07:18:12","1f75c3e559b7213887762d5229550c2b","86.158.68.150","Mozilla/5.0 (Windows NT 10.0; Win64; x64) AppleWebKit/537.36 (KHTML, like Gecko) Chrome/138.0.0.0 Safari/537.36","WebKit","Chrome","138.0.0.0","Windows","10.0","https://app.prolific.com/","en-US,en;q=0.9","5d1290103b20b0000102e8e3","683dba2a8a9dda3513610c04","68808bdf63a5a19f12f06260","3","0","5d1290103b20b0000102e8e3","3","0","2025-07-23T07:33:51.044Z","","","","","","","","","","","AttribQ","","50","","","","","","","","","","","","","","","","","","","","","","","","","","","","",""
"2517","","<div style=""width:500px;"">
  <p>How much control did you have over the ball?</p>
  </div>","60","html-slider-response","76","937924","0.0-5.0-2.13","171","1","2025-07-23 07:18:12","1f75c3e559b7213887762d5229550c2b","86.158.68.150","Mozilla/5.0 (Windows NT 10.0; Win64; x64) AppleWebKit/537.36 (KHTML, like Gecko) Chrome/138.0.0.0 Safari/537.36","WebKit","Chrome","138.0.0.0","Windows","10.0","https://app.prolific.com/","en-US,en;q=0.9","5d1290103b20b0000102e8e3","683dba2a8a9dda3513610c04","68808bdf63a5a19f12f06260","3","0","5d1290103b20b0000102e8e3","3","0","2025-07-23T07:33:53.563Z","","","","","","","","","","","ControlQ","","50","","","","","","","","","","","","","","","","","","","","","","","","","","","","",""
"3581","","<div style=""width:500px;"">
  <p>How would you describe your current emotional state?</p>
