"rt","response_timestamp","stimulus","response","trial_type","trial_index","time_elapsed","internal_node_id","run_id","condition","recorded_at","source_code_version","ip","user_agent","device","browser","browser_version","platform","platform_version","referer","accept_language","PROLIFIC_PID","STUDY_ID","SESSION_ID","WEEK","BATCH","prolific_id","week","batch","realtime","success","responses","item_order","radio_event_ids","radio_event_times","key_event_times","mouse_event_times","straightlining","zigzagging","honeypot","eventType","view_history","slider_start","which_type","canvas_config","goals_layout","control_level","trial_number","tutorial_trial_number","trial_start_time","phase1_start_time","phase2_start_time","phase3_start_time","goal_1_value","goal_1_distance","goal_2_value","goal_2_distance","goal_selected","outcome","outcome_total","participant_final_score","participant_initial_score","participant_final_score_prop","goal_choice_rt","allocated_time","allocated_time_remaining","goal_direction","counts","mouse_movements","key_presses","question_order","question_id"
"1436063","1753866125886","<p style='font-size:40px;line-height:1.25'><strong>Welcome to the experiment!</strong></p><p style='font-size:1.1em;line-height:1.25'>Thank you for participanting in our experiment again! You will be asked to play the Dysfunctional Ball Game again. We will briefly recap the rules before we start.</p><p style='font-size:1.1em;line-height:1.25'>Press <strong>Next</strong> to continue.</p>","0","custom-html-button-response","0","1436126","0.0-0.0","256","1","2025-07-30 08:38:03","1f75c3e559b7213887762d5229550c2b","41.122.150.140","Mozilla/5.0 (Macintosh; Intel Mac OS X 10_15_7) AppleWebKit/537.36 (KHTML, like Gecko) Chrome/128.0.0.0 Safari/537.36","Macintosh","Chrome","128.0.0.0","OS X","10_15_7","https://app.prolific.com/","en-GB,en-US;q=0.9,en;q=0.8","6780db9dafd89add339abb6b","6877631c9844ddd5501205fc","6889d9de2f18e761905896e6","3","1","6780db9dafd89add339abb6b","3","1","2025-07-30T09:02:05.894Z","","","","","","","","","","","","","","","","","","","","","","","","","","","","","","","","","","","","","","","","","",""
"884","","","","fullscreen","1","1438020","0.0-1.0","256","1","2025-07-30 08:38:03","1f75c3e559b7213887762d5229550c2b","41.122.150.140","Mozilla/5.0 (Macintosh; Intel Mac OS X 10_15_7) AppleWebKit/537.36 (KHTML, like Gecko) Chrome/128.0.0.0 Safari/537.36","Macintosh","Chrome","128.0.0.0","OS X","10_15_7","https://app.prolific.com/","en-GB,en-US;q=0.9,en;q=0.8","6780db9dafd89add339abb6b","6877631c9844ddd5501205fc","6889d9de2f18e761905896e6","3","1","6780db9dafd89add339abb6b","3","1","","true","","","","","","","","","","","","","","","","","","","","","","","","","","","","","","","","","","","","","","","","",""
"196802","1753866324596","<p style='font-size:1.1em;line-height:1.25'>In the following, we will ask you a few questions relating to your feelings in the last 24 hours.<br></p><p style='font-size:1.1em;line-height:1.25'>Press the <strong>Next</strong> button to continue.</p>","0","custom-html-button-response","2","1634831","0.0-2.0-0.0","256","1","2025-07-30 08:38:03","1f75c3e559b7213887762d5229550c2b","41.122.150.140","Mozilla/5.0 (Macintosh; Intel Mac OS X 10_15_7) AppleWebKit/537.36 (KHTML, like Gecko) Chrome/128.0.0.0 Safari/537.36","Macintosh","Chrome","128.0.0.0","OS X","10_15_7","https://app.prolific.com/","en-GB,en-US;q=0.9,en;q=0.8","6780db9dafd89add339abb6b","6877631c9844ddd5501205fc","6889d9de2f18e761905896e6","3","1","6780db9dafd89add339abb6b","3","1","2025-07-30T09:05:24.597Z","","","","","","","","","","","","","","","","","","","","","","","","","","","","","","","","","","","","","","","","","",""
"35823.2999997139","","","","survey-template","3","1670666","0.0-2.0-1.0","256","1","2025-07-30 08:38:03","1f75c3e559b7213887762d5229550c2b","41.122.150.140","Mozilla/5.0 (Macintosh; Intel Mac OS X 10_15_7) AppleWebKit/537.36 (KHTML, like Gecko) Chrome/128.0.0.0 Safari/537.36","Macintosh","Chrome","128.0.0.0","OS X","10_15_7","https://app.prolific.com/","en-GB,en-US;q=0.9,en;q=0.8","6780db9dafd89add339abb6b","6877631c9844ddd5501205fc","6889d9de2f18e761905896e6","3","1","6780db9dafd89add339abb6b","3","1","2025-07-30T09:06:00.432Z","","{""Q01"":""3"",""Q02"":""2"",""Q03"":""3"",""Q04"":""3"",""Q05"":""2"",""Q06"":""2"",""Q07"":""4"",""Q08"":""2"",""Q09"":""3"",""Q10"":""4"",""Q11"":""3"",""Q12"":""2"",""Q13"":""5"",""Q14"":""3"",""Q15"":""4"",""Q16"":""2"",""Q17"":""2"",""Q18"":""3"",""Q19"":""2"",""Q20"":""3"",""Q21"":""2"",""Q22"":""3""}","[0,1,2,3,4,5,6,7,8,9,10,11,12,13,14,15,16,17,18,19,20,21]","[""Q01"",""Q02"",""Q03"",""Q04"",""Q05"",""Q06"",""Q07"",""Q07"",""Q08"",""Q09"",""Q10"",""Q13"",""Q11"",""Q12"",""Q14"",""Q15"",""Q16"",""Q17"",""Q18"",""Q19"",""Q20"",""Q21"",""Q22""]","[2822.0999999046326,3707.699999809265,4473,6473,7753,9513.099999904633,12083,12386.900000095367,13485.5,14973,16815.099999904633,19700.799999713898,21988,23040.799999713898,25224.699999809265,26131,27833,28658.799999713898,29632.799999713898,32137.099999904633,32716.699999809265,33696.699999809265,35004.199999809265]","[]","[0.09999990463256836,1716.1999998092651,2822.0999999046326,3707.699999809265,4473,5174,6015.199999809265,6473,7267.299999713898,7753,8571,9513.099999904633,10404.5,11419,12083,12386.900000095367,13485.5,14973,16103,16815.099999904633,17357.099999904633,19700.799999713898,20935.199999809265,21988,23040.799999713898,25224.699999809265,26131,27833,28658.799999713898,29632.799999713898,30926,31439.099999904633,32137.099999904633,32716.699999809265,33696.699999809265,35004.199999809265,35818.40000009537]","0.4090909090909091","0.6190476190476191","0","drsp","","","","","","","","","","","","","","","","","","","","","","","","","","","","","","",""
"4841.699999809265","","","","survey-template","4","1675513","0.0-2.0-2.0","256","1","2025-07-30 08:38:03","1f75c3e559b7213887762d5229550c2b","41.122.150.140","Mozilla/5.0 (Macintosh; Intel Mac OS X 10_15_7) AppleWebKit/537.36 (KHTML, like Gecko) Chrome/128.0.0.0 Safari/537.36","Macintosh","Chrome","128.0.0.0","OS X","10_15_7","https://app.prolific.com/","en-GB,en-US;q=0.9,en;q=0.8","6780db9dafd89add339abb6b","6877631c9844ddd5501205fc","6889d9de2f18e761905896e6","3","1","6780db9dafd89add339abb6b","3","1","2025-07-30T09:06:05.279Z","","{""Q01"":""4"",""Q02"":""2"",""Q03"":""4""}","[0,1,2]","[""Q01"",""Q02"",""Q03""]","[2031.9000000953674,2851.5999999046326,4167.199999809265]","[]","[2031.9000000953674,2851.5999999046326,3757.4000000953674,4167.199999809265,4840.199999809265]","0.6666666666666666","1","0","stress","","","","","","","","","","","","","","","","","","","","","","","","","","","","","","",""
"17468","","","","instructions","5","1692988","0.0-3.0-0.0","256","1","2025-07-30 08:38:03","1f75c3e559b7213887762d5229550c2b","41.122.150.140","Mozilla/5.0 (Macintosh; Intel Mac OS X 10_15_7) AppleWebKit/537.36 (KHTML, like Gecko) Chrome/128.0.0.0 Safari/537.36","Macintosh","Chrome","128.0.0.0","OS X","10_15_7","https://app.prolific.com/","en-GB,en-US;q=0.9,en;q=0.8","6780db9dafd89add339abb6b","6877631c9844ddd5501205fc","6889d9de2f18e761905896e6","3","1","6780db9dafd89add339abb6b","3","1","","","","","","","","","","","","","[{""page_index"":0,""viewing_time"":17467}]","","","","","","","","","","","","","","","","","","","","","","","","","","","","","",""
"1778","","<p>Before you start with this game please answer the following three questions yourself. </p>
  <p>Through this game, we measure several aspects of your cognitive performance, such as reaction times, multi-tasking capabilities </p>
  <p>and the ability to assess the situation you are in.</p>
  <p></p>
  <p><b>How good do you usually are in such tasks?</b></p>","72","html-slider-response","6","1694770","0.0-4.0-0.0","256","1","2025-07-30 08:38:03","1f75c3e559b7213887762d5229550c2b","41.122.150.140","Mozilla/5.0 (Macintosh; Intel Mac OS X 10_15_7) AppleWebKit/537.36 (KHTML, like Gecko) Chrome/128.0.0.0 Safari/537.36","Macintosh","Chrome","128.0.0.0","OS X","10_15_7","https://app.prolific.com/","en-GB,en-US;q=0.9,en;q=0.8","6780db9dafd89add339abb6b","6877631c9844ddd5501205fc","6889d9de2f18e761905896e6","3","1","6780db9dafd89add339abb6b","3","1","2025-07-30T09:06:24.536Z","","","","","","","","","","","PreSkillQ","","50","","","","","","","","","","","","","","","","","","","","","","","","","","","","",""
"2162","","<div style=""width:500px;"">
  <p>How well do you think you will perform in this task compared to other participants?</p>
  </div>","65","html-slider-response","7","1696934","0.0-4.0-1.0","256","1","2025-07-30 08:38:03","1f75c3e559b7213887762d5229550c2b","41.122.150.140","Mozilla/5.0 (Macintosh; Intel Mac OS X 10_15_7) AppleWebKit/537.36 (KHTML, like Gecko) Chrome/128.0.0.0 Safari/537.36","Macintosh","Chrome","128.0.0.0","OS X","10_15_7","https://app.prolific.com/","en-GB,en-US;q=0.9,en;q=0.8","6780db9dafd89add339abb6b","6877631c9844ddd5501205fc","6889d9de2f18e761905896e6","3","1","6780db9dafd89add339abb6b","3","1","2025-07-30T09:06:26.700Z","","","","","","","","","","","PrePerfQ","","50","","","","","","","","","","","","","","","","","","","","","","","","","","","","",""
"1950","","<div style=""width:500px;"">
  <p>What best describes how you currently feel?</p>
  </div>","66","html-slider-response","8","1698886","0.0-4.0-2.0","256","1","2025-07-30 08:38:03","1f75c3e559b7213887762d5229550c2b","41.122.150.140","Mozilla/5.0 (Macintosh; Intel Mac OS X 10_15_7) AppleWebKit/537.36 (KHTML, like Gecko) Chrome/128.0.0.0 Safari/537.36","Macintosh","Chrome","128.0.0.0","OS X","10_15_7","https://app.prolific.com/","en-GB,en-US;q=0.9,en;q=0.8","6780db9dafd89add339abb6b","6877631c9844ddd5501205fc","6889d9de2f18e761905896e6","3","1","6780db9dafd89add339abb6b","3","1","2025-07-30T09:06:28.652Z","","","","","","","","","","","PreMotivationQ","","50","","","","","","","","","","","","","","","","","","","","","","","","","","","","",""
"","","","","ctl-task-cpt","9","1731220","0.0-5.0-0.0","256","1","2025-07-30 08:38:03","1f75c3e559b7213887762d5229550c2b","41.122.150.140","Mozilla/5.0 (Macintosh; Intel Mac OS X 10_15_7) AppleWebKit/537.36 (KHTML, like Gecko) Chrome/128.0.0.0 Safari/537.36","Macintosh","Chrome","128.0.0.0","OS X","10_15_7","https://app.prolific.com/","en-GB,en-US;q=0.9,en;q=0.8","6780db9dafd89add339abb6b","6877631c9844ddd5501205fc","6889d9de2f18e761905896e6","3","1","6780db9dafd89add339abb6b","3","1","2025-07-30T09:07:00.986Z","","","","","","","","","","","","","","win-only","0","g1:NW,g2:SE","1","1","0","1707272.5","955.4","5956.9","29323.6","1","4","4","6","2","4","4","4","0","0.030303030303030304","920","3000","370","[""down"",""right""]","{""num_key_presses"":6,""num_perfect"":6,""num_errors"":0,""num_randdir"":0,""num_randdir_good_moves"":0,""num_whilered"":0,""num_whileblue"":0,""num_blue"":2,""num_good_moves"":6}","[343.9428622680051,342.5584872473763,0.3,344.74286227992604,342.5584872473763,100.7,344.74286227992604,340.95848722353446,201.7,348.7428623395307,337.75848717585075,305.4,374.3428627210004,369.7584876526879,406.1,525.542864974056,596.9584910382317,510.8,586.3428658800466,675.3584922064828,611.8,606.3428661780698,673.7584921826409,716.9,629.5428665237768,669.7584921230363,822,628.7428665118558,666.5584920753525,922,626.342866476093,665.7584920634316,1023.9,568.7428656177862,642.5584917177247,1127.4,431.14286356738637,552.9584903825806,1231.5,400.74286311439107,536.958490144162,1332.7,388.74286293557714,539.3584901799248,1436.9,388.74286293557714,539.3584901799248,1544.2,388.74286293557714,539.3584901799248,1646.7,388.74286293557714,539.3584901799248,1751.2,388.74286293557714,539.3584901799248,1856.1,388.74286293557714,539.3584901799248,1961,388.74286293557714,539.3584901799248,2066.8,388.74286293557714,539.3584901799248,2170.4,388.74286293557714,539.3584901799248,2270.7,388.74286293557714,539.3584901799248,2371.3,388.74286293557714,539.3584901799248,2476.5,388.74286293557714,539.3584901799248,2581.6,388.74286293557714,539.3584901799248,2686.3,388.74286293557714,539.3584901799248,2791.3,388.74286293557714,539.3584901799248,2896.2,388.74286293557714,539.3584901799248,3001,388.74286293557714,539.3584901799248,3101.2,388.74286293557714,539.3584901799248,3201.3,388.74286293557714,539.3584901799248,3301.5,388.74286293557714,539.3584901799248,3405.8,388.74286293557714,539.3584901799248,3511.9,388.74286293557714,539.3584901799248,3616.2,388.74286293557714,539.3584901799248,3716.3,388.74286293557714,539.3584901799248,3820.7,388.74286293557714,539.3584901799248,3926.9,388.74286293557714,539.3584901799248,4031.4,388.74286293557714,539.3584901799248,4135.9,388.74286293557714,539.3584901799248,4236,388.74286293557714,539.3584901799248,4336,388.74286293557714,539.3584901799248,4441.5,388.74286293557714,539.3584901799248,4545.6,388.74286293557714,539.3584901799248,4650.9,388.74286293557714,539.3584901799248,4751.3,388.74286293557714,539.3584901799248,4858.6,388.74286293557714,539.3584901799248,4961.5]","[1560.1,1560.1,1000,0,560.2,""smooth"",""right"",""right"",""good_move"",7912,6351.2,2342.8,5084.6,484.6,""smooth"",""right"",""right"",""good_move"",10873.6,2961.4,2548.5,7912.2,412.9,""smooth"",""right"",""right"",""good_move"",13697.9,2824,2376.8,10873.9,447.2,""smooth"",""down"",""down"",""good_move"",16682.6,2984.3,2582.2,13698.3,402.1,""smooth"",""down"",""down"",""good_move"",23274.8,6592,2248.8,20644.4,381.6,""smooth"",""down"",""down"",""good_move""]","",""
"5645","","<div style=""width:500px;"">
  <p>What determined the result of this run?</p>
  </div>","73","html-slider-response","10","1736867","0.0-5.0-1.0","256","1","2025-07-30 08:38:03","1f75c3e559b7213887762d5229550c2b","41.122.150.140","Mozilla/5.0 (Macintosh; Intel Mac OS X 10_15_7) AppleWebKit/537.36 (KHTML, like Gecko) Chrome/128.0.0.0 Safari/537.36","Macintosh","Chrome","128.0.0.0","OS X","10_15_7","https://app.prolific.com/","en-GB,en-US;q=0.9,en;q=0.8","6780db9dafd89add339abb6b","6877631c9844ddd5501205fc","6889d9de2f18e761905896e6","3","1","6780db9dafd89add339abb6b","3","1","2025-07-30T09:07:06.633Z","","","","","","","","","","","AttribQ","","50","","","","","","","","","","","","","","","","","","","","","","","","","","","","",""
"20713","","<div style=""width:500px;"">
  <p>How much control did you have over the ball?</p>
  </div>","73","html-slider-response","11","1757582","0.0-5.0-2.0","256","1","2025-07-30 08:38:03","1f75c3e559b7213887762d5229550c2b","41.122.150.140","Mozilla/5.0 (Macintosh; Intel Mac OS X 10_15_7) AppleWebKit/537.36 (KHTML, like Gecko) Chrome/128.0.0.0 Safari/537.36","Macintosh","Chrome","128.0.0.0","OS X","10_15_7","https://app.prolific.com/","en-GB,en-US;q=0.9,en;q=0.8","6780db9dafd89add339abb6b","6877631c9844ddd5501205fc","6889d9de2f18e761905896e6","3","1","6780db9dafd89add339abb6b","3","1","2025-07-30T09:07:27.348Z","","","","","","","","","","","ControlQ","","50","","","","","","","","","","","","","","","","","","","","","","","","","","","","",""
"1892","","<div style=""width:500px;"">
  <p>How would you describe your current emotional state?</p>
  </div>","60","html-slider-response","12","1759477","0.0-5.0-3.0","256","1","2025-07-30 08:38:03","1f75c3e559b7213887762d5229550c2b","41.122.150.140","Mozilla/5.0 (Macintosh; Intel Mac OS X 10_15_7) AppleWebKit/537.36 (KHTML, like Gecko) Chrome/128.0.0.0 Safari/537.36","Macintosh","Chrome","128.0.0.0","OS X","10_15_7","https://app.prolific.com/","en-GB,en-US;q=0.9,en;q=0.8","6780db9dafd89add339abb6b","6877631c9844ddd5501205fc","6889d9de2f18e761905896e6","3","1","6780db9dafd89add339abb6b","3","1","2025-07-30T09:07:29.243Z","","","","","","","","","","","StressQ","","50","","","","","","","","","","","","","","","","","","","","","","","","","","","","",""
"1839","","<div style=""width:500px;"">
  <p>What best describes how you currently feel?</p>
  </div>","73","html-slider-response","13","1761318","0.0-5.0-4.0","256","1","2025-07-30 08:38:03","1f75c3e559b7213887762d5229550c2b","41.122.150.140","Mozilla/5.0 (Macintosh; Intel Mac OS X 10_15_7) AppleWebKit/537.36 (KHTML, like Gecko) Chrome/128.0.0.0 Safari/537.36","Macintosh","Chrome","128.0.0.0","OS X","10_15_7","https://app.prolific.com/","en-GB,en-US;q=0.9,en;q=0.8","6780db9dafd89add339abb6b","6877631c9844ddd5501205fc","6889d9de2f18e761905896e6","3","1","6780db9dafd89add339abb6b","3","1","2025-07-30T09:07:31.084Z","","","","","","","","","","","MotivationQ","","50","","","","","","","","","","","","","","","","","","","","","","","","","","","","",""
"","","","","ctl-task-cpt","14","1787561","0.0-5.0-0.1","256","1","2025-07-30 08:38:03","1f75c3e559b7213887762d5229550c2b","41.122.150.140","Mozilla/5.0 (Macintosh; Intel Mac OS X 10_15_7) AppleWebKit/537.36 (KHTML, like Gecko) Chrome/128.0.0.0 Safari/537.36","Macintosh","Chrome","128.0.0.0","OS X","10_15_7","https://app.prolific.com/","en-GB,en-US;q=0.9,en;q=0.8","6780db9dafd89add339abb6b","6877631c9844ddd5501205fc","6889d9de2f18e761905896e6","3","1","6780db9dafd89add339abb6b","3","1","2025-07-30T09:07:57.327Z","","","","","","","","","","","","","","win-only","0","g1:NW,g2:SE","0.9","2","0","1769698.1","731.8","5738.2","23231.5","1","4","8","6","2","8","8","12","4","0.09090909090909091","819.7","3000","835","[""down"",""right""]","{""num_key_presses"":6,""num_perfect"":6,""num_errors"":0,""num_randdir"":0,""num_randdir_good_moves"":0,""num_whilered"":0,""num_whileblue"":0,""num_blue"":0,""num_good_moves"":6}","[352.74286239913533,352.15848739042747,0.3,352.74286239913533,352.15848739042747,100.1,354.3428624229772,348.95848734274375,200.3,383.14286285213063,353.7584874142693,309.3,423.942863460098,412.15848828449714,409.7,547.1428652959211,538.5584901680039,509.7,619.9428663807256,612.1584912647294,611.7,622.3428664164884,611.3584912528084,716.2,621.5428664045675,611.3584912528084,821.9,621.5428664045675,611.3584912528084,925.1,621.5428664045675,611.3584912528084,1031.2,621.5428664045675,611.3584912528084,1135.2,623.9428664403302,603.3584911335992,1235.6,623.9428664403302,603.3584911335992,1339.8,623.9428664403302,603.3584911335992,1442.8,623.9428664403302,603.3584911335992,1545.5,623.9428664403302,603.3584911335992,1649.8,623.9428664403302,603.3584911335992,1754.3,623.9428664403302,603.3584911335992,1865.4,623.9428664403302,603.3584911335992,1965.4,623.9428664403302,603.3584911335992,2070.6,623.9428664403302,603.3584911335992,2171.1,623.9428664403302,603.3584911335992,2277.3,623.9428664403302,603.3584911335992,2379.1,623.9428664403302,603.3584911335992,2479.5,623.9428664403302,603.3584911335992,2580.4,623.9428664403302,603.3584911335992,2683.9,623.9428664403302,603.3584911335992,2785.8,623.9428664403302,603.3584911335992,2889.1,623.9428664403302,603.3584911335992,2989.7,623.9428664403302,603.3584911335992,3095.1,623.9428664403302,603.3584911335992,3200.9,623.9428664403302,603.3584911335992,3305,623.9428664403302,603.3584911335992,3405.5,623.9428664403302,603.3584911335992,3510.6,623.9428664403302,603.3584911335992,3614.9,623.9428664403302,603.3584911335992,3715.1,623.9428664403302,603.3584911335992,3815.2,623.9428664403302,603.3584911335992,3921.5,623.9428664403302,603.3584911335992,4026.9,623.9428664403302,603.3584911335992,4129.2,623.9428664403302,603.3584911335992,4231.2,623.9428664403302,603.3584911335992,4336,623.9428664403302,603.3584911335992,4436,623.9428664403302,603.3584911335992,4543.1,623.9428664403302,603.3584911335992,4645.3,623.9428664403302,603.3584911335992,4750.5,623.9428664403302,603.3584911335992,4854.4,623.9428664403302,603.3584911335992,4955.5]","[1430.3,1430.4,1000,0,430.4,""smooth"",""right"",""right"",""good_move"",4698.9,3268.2,2702.4,1430.7,565.8,""smooth"",""right"",""right"",""good_move"",8388.3,3688.7,3303,4699.6,385.7,""smooth"",""down"",""down"",""good_move"",11914.2,3525.4,3195.7,8388.8,329.7,""smooth"",""right"",""right"",""good_move"",14597.4,2682.2,2249.8,11915.2,432.4,""smooth"",""down"",""down"",""good_move"",17406.1,2808.2,2421.1,14598,387,""smooth"",""down"",""down"",""good_move""]","",""
"42670","","<div style=""width:500px;"">
  <p>What determined the result of this run?</p>
  </div>","88","html-slider-response","15","1830234","0.0-5.0-1.1","256","1","2025-07-30 08:38:03","1f75c3e559b7213887762d5229550c2b","41.122.150.140","Mozilla/5.0 (Macintosh; Intel Mac OS X 10_15_7) AppleWebKit/537.36 (KHTML, like Gecko) Chrome/128.0.0.0 Safari/537.36","Macintosh","Chrome","128.0.0.0","OS X","10_15_7","https://app.prolific.com/","en-GB,en-US;q=0.9,en;q=0.8","6780db9dafd89add339abb6b","6877631c9844ddd5501205fc","6889d9de2f18e761905896e6","3","1","6780db9dafd89add339abb6b","3","1","2025-07-30T09:08:40.000Z","","","","","","","","","","","AttribQ","","50","","","","","","","","","","","","","","","","","","","","","","","","","","","","",""
"3002","","<div style=""width:500px;"">
  <p>How much control did you have over the ball?</p>
  </div>","70","html-slider-response","16","1833239","0.0-5.0-2.1","256","1","2025-07-30 08:38:03","1f75c3e559b7213887762d5229550c2b","41.122.150.140","Mozilla/5.0 (Macintosh; Intel Mac OS X 10_15_7) AppleWebKit/537.36 (KHTML, like Gecko) Chrome/128.0.0.0 Safari/537.36","Macintosh","Chrome","128.0.0.0","OS X","10_15_7","https://app.prolific.com/","en-GB,en-US;q=0.9,en;q=0.8","6780db9dafd89add339abb6b","6877631c9844ddd5501205fc","6889d9de2f18e761905896e6","3","1","6780db9dafd89add339abb6b","3","1","2025-07-30T09:08:43.005Z","","","","","","","","","","","ControlQ","","50","","","","","","","","","","","","","","","","","","","","","","","","","","","","",""
"2756","","<div style=""width:500px;"">
  <p>How would you describe your current emotional state?</p>
  </div>","28","html-slider-response","17","1835996","0.0-5.0-3.1","256","1","2025-07-30 08:38:03","1f75c3e559b7213887762d5229550c2b","41.122.150.140","Mozilla/5.0 (Macintosh; Intel Mac OS X 10_15_7) AppleWebKit/537.36 (KHTML, like Gecko) Chrome/128.0.0.0 Safari/537.36","Macintosh","Chrome","128.0.0.0","OS X","10_15_7","https://app.prolific.com/","en-GB,en-US;q=0.9,en;q=0.8","6780db9dafd89add339abb6b","6877631c9844ddd5501205fc","6889d9de2f18e761905896e6","3","1","6780db9dafd89add339abb6b","3","1","2025-07-30T09:08:45.762Z","","","","","","","","","","","StressQ","","50","","","","","","","","","","","","","","","","","","","","","","","","","","","","",""
"1876","","<div style=""width:500px;"">
  <p>What best describes how you currently feel?</p>
  </div>","67","html-slider-response","18","1837874","0.0-5.0-4.1","256","1","2025-07-30 08:38:03","1f75c3e559b7213887762d5229550c2b","41.122.150.140","Mozilla/5.0 (Macintosh; Intel Mac OS X 10_15_7) AppleWebKit/537.36 (KHTML, like Gecko) Chrome/128.0.0.0 Safari/537.36","Macintosh","Chrome","128.0.0.0","OS X","10_15_7","https://app.prolific.com/","en-GB,en-US;q=0.9,en;q=0.8","6780db9dafd89add339abb6b","6877631c9844ddd5501205fc","6889d9de2f18e761905896e6","3","1","6780db9dafd89add339abb6b","3","1","2025-07-30T09:08:47.640Z","","","","","","","","","","","MotivationQ","","50","","","","","","","","","","","","","","","","","","","","","","","","","","","","",""
"","","","","ctl-task-cpt","19","1867977","0.0-5.0-0.2","256","1","2025-07-30 08:38:03","1f75c3e559b7213887762d5229550c2b","41.122.150.140","Mozilla/5.0 (Macintosh; Intel Mac OS X 10_15_7) AppleWebKit/537.36 (KHTML, like Gecko) Chrome/128.0.0.0 Safari/537.36","Macintosh","Chrome","128.0.0.0","OS X","10_15_7","https://app.prolific.com/","en-GB,en-US;q=0.9,en;q=0.8","6780db9dafd89add339abb6b","6877631c9844ddd5501205fc","6889d9de2f18e761905896e6","3","1","6780db9dafd89add339abb6b","3","1","2025-07-30T09:09:17.743Z","","","","","","","","","","","","","","win-only","1","g1:NE,g2:SW","0.8","3","0","1846253.3","842","5847.7","27091.7","1","4","4","6","2","4","4","16","12","0.12121212121212122","1061.3","3000","830","[""down"",""left""]","{""num_key_presses"":6,""num_perfect"":4,""num_errors"":0,""num_randdir"":2,""num_randdir_good_moves"":2,""num_whilered"":0,""num_whileblue"":0,""num_blue"":1,""num_good_moves"":6}","[345.542862291847,348.1584873308228,0.5,345.542862291847,348.1584873308228,105.3,345.542862291847,348.1584873308228,214,377.54286276868413,388.9584879387902,316.6,414.34286331704686,485.7584893812226,421.9,327.1428620176656,544.1584902514504,523.8,256.74286096862386,526.55848998919,626.9,131.9428591089589,558.5584904660271,730.3,102.34285866788454,596.9584910382317,834.9,87.14285844138689,604.958491157441,937.8,79.1428583221776,608.1584912051247,1041.1,79.1428583221776,608.1584912051247,1150.5,79.94285833409853,608.1584912051247,1256.4,82.34285836986132,602.5584911216782,1361.1,79.94285833409853,584.1584908474969,1469.4,79.94285833409853,584.1584908474969,1571.7,79.94285833409853,584.1584908474969,1674.9,79.94285833409853,584.1584908474969,1775.7,79.94285833409853,584.1584908474969,1882,79.94285833409853,584.1584908474969,1984.2,79.94285833409853,584.1584908474969,2091.2,79.94285833409853,584.1584908474969,2196.4,79.94285833409853,584.1584908474969,2298.1,79.94285833409853,584.1584908474969,2401.1,79.94285833409853,584.1584908474969,2505.8,79.94285833409853,584.1584908474969,2607.3,79.94285833409853,584.1584908474969,2711.4,79.94285833409853,584.1584908474969,2815.6,79.94285833409853,584.1584908474969,2917.6,79.94285833409853,584.1584908474969,3022.3,79.94285833409853,584.1584908474969,3125.1,79.94285833409853,584.1584908474969,3231.4,79.94285833409853,584.1584908474969,3334.6,79.94285833409853,584.1584908474969,3434.7,79.94285833409853,584.1584908474969,3535.2,79.94285833409853,584.1584908474969,3641.1,79.94285833409853,584.1584908474969,3747,79.94285833409853,584.1584908474969,3847.5,79.94285833409853,584.1584908474969,3948.9,79.94285833409853,584.1584908474969,4049.3,79.94285833409853,584.1584908474969,4151.2,79.94285833409853,584.1584908474969,4254.2,79.94285833409853,584.1584908474969,4354.8,79.94285833409853,584.1584908474969,4455.9,79.94285833409853,584.1584908474969,4559.2,79.94285833409853,584.1584908474969,4660.9,79.94285833409853,584.1584908474969,4761.4,79.94285833409853,584.1584908474969,4865.3,79.94285833409853,584.1584908474969,4972.5]","[1692.3,1692.3,1000,0,692.3,""smooth"",""left"",""left"",""good_move"",5289.7,3596.7,3152.7,1693.1,443.9,""oops"",""left"",""left"",""good_move"",8466.5,3176.4,2659.2,5290.1,517.2,""oops"",""left"",""down"",""good_move"",14912.3,6445.1,2352.5,12168.9,391,""smooth"",""down"",""down"",""good_move"",17908.3,2995.6,2501.3,14912.7,494.3,""smooth"",""down"",""down"",""good_move"",21151.6,3242.3,2726.3,17909.4,516,""smooth"",""left"",""left"",""good_move""]","",""
"53171","","<div style=""width:500px;"">
  <p>What determined the result of this run?</p>
  </div>","75","html-slider-response","20","1921151","0.0-5.0-1.2","256","1","2025-07-30 08:38:03","1f75c3e559b7213887762d5229550c2b","41.122.150.140","Mozilla/5.0 (Macintosh; Intel Mac OS X 10_15_7) AppleWebKit/537.36 (KHTML, like Gecko) Chrome/128.0.0.0 Safari/537.36","Macintosh","Chrome","128.0.0.0","OS X","10_15_7","https://app.prolific.com/","en-GB,en-US;q=0.9,en;q=0.8","6780db9dafd89add339abb6b","6877631c9844ddd5501205fc","6889d9de2f18e761905896e6","3","1","6780db9dafd89add339abb6b","3","1","2025-07-30T09:10:10.917Z","","","","","","","","","","","AttribQ","","50","","","","","","","","","","","","","","","","","","","","","","","","","","","","",""
"2415","","<div style=""width:500px;"">
  <p>How much control did you have over the ball?</p>
  </div>","69","html-slider-response","21","1923568","0.0-5.0-2.2","256","1","2025-07-30 08:38:03","1f75c3e559b7213887762d5229550c2b","41.122.150.140","Mozilla/5.0 (Macintosh; Intel Mac OS X 10_15_7) AppleWebKit/537.36 (KHTML, like Gecko) Chrome/128.0.0.0 Safari/537.36","Macintosh","Chrome","128.0.0.0","OS X","10_15_7","https://app.prolific.com/","en-GB,en-US;q=0.9,en;q=0.8","6780db9dafd89add339abb6b","6877631c9844ddd5501205fc","6889d9de2f18e761905896e6","3","1","6780db9dafd89add339abb6b","3","1","2025-07-30T09:10:13.335Z","","","","","","","","","","","ControlQ","","50","","","","","","","","","","","","","","","","","","","","","","","","","","","","",""
"3255","","<div style=""width:500px;"">
  <p>How would you describe your current emotional state?</p>
  </div>","30","html-slider-response","22","1926825","0.0-5.0-3.2","256","1","2025-07-30 08:38:03","1f75c3e559b7213887762d5229550c2b","41.122.150.140","Mozilla/5.0 (Macintosh; Intel Mac OS X 10_15_7) AppleWebKit/537.36 (KHTML, like Gecko) Chrome/128.0.0.0 Safari/537.36","Macintosh","Chrome","128.0.0.0","OS X","10_15_7","https://app.prolific.com/","en-GB,en-US;q=0.9,en;q=0.8","6780db9dafd89add339abb6b","6877631c9844ddd5501205fc","6889d9de2f18e761905896e6","3","1","6780db9dafd89add339abb6b","3","1","2025-07-30T09:10:16.591Z","","","","","","","","","","","StressQ","","50","","","","","","","","","","","","","","","","","","","","","","","","","","","","",""
"1976","","<div style=""width:500px;"">
  <p>What best describes how you currently feel?</p>
  </div>","68","html-slider-response","23","1928802","0.0-5.0-4.2","256","1","2025-07-30 08:38:03","1f75c3e559b7213887762d5229550c2b","41.122.150.140","Mozilla/5.0 (Macintosh; Intel Mac OS X 10_15_7) AppleWebKit/537.36 (KHTML, like Gecko) Chrome/128.0.0.0 Safari/537.36","Macintosh","Chrome","128.0.0.0","OS X","10_15_7","https://app.prolific.com/","en-GB,en-US;q=0.9,en;q=0.8","6780db9dafd89add339abb6b","6877631c9844ddd5501205fc","6889d9de2f18e761905896e6","3","1","6780db9dafd89add339abb6b","3","1","2025-07-30T09:10:18.568Z","","","","","","","","","","","MotivationQ","","50","","","","","","","","","","","","","","","","","","","","","","","","","","","","",""
"","","","","ctl-task-cpt","24","1959148","0.0-5.0-0.3","256","1","2025-07-30 08:38:03","1f75c3e559b7213887762d5229550c2b","41.122.150.140","Mozilla/5.0 (Macintosh; Intel Mac OS X 10_15_7) AppleWebKit/537.36 (KHTML, like Gecko) Chrome/128.0.0.0 Safari/537.36","Macintosh","Chrome","128.0.0.0","OS X","10_15_7","https://app.prolific.com/","en-GB,en-US;q=0.9,en;q=0.8","6780db9dafd89add339abb6b","6877631c9844ddd5501205fc","6889d9de2f18e761905896e6","3","1","6780db9dafd89add339abb6b","3","1","2025-07-30T09:10:48.914Z","","","","","","","","","","","","","","win-only","2","g1:SE,g2:NW","0.7","4","0","1937177.1","829.8","5830.8","27331.9","1","4","8","6","2","8","8","24","16","0.18181818181818182","961.6","3000","180","[""left"",""up""]","{""num_key_presses"":8,""num_perfect"":5,""num_errors"":0,""num_randdir"":3,""num_randdir_good_moves"":2,""num_whilered"":0,""num_whileblue"":0,""num_blue"":0,""num_good_moves"":7}","[354.3428624229772,340.15848721161353,0.3,354.3428624229772,340.15848721161353,104.1,354.3428624229772,340.15848721161353,209.9,402.34286313823293,357.75848747387397,322.9,430.34286355546544,320.1584869135903,432.9,271.1428611832006,206.55848522081837,534.7,78.34285831025667,127.3584840406464,652.6,81.54285835794039,123.35848398104176,759.1,82.34285836986132,95.35848356380924,869.4,82.34285836986132,82.55848337307438,969.5,82.34285836986132,82.55848337307438,1072,82.34285836986132,82.55848337307438,1176.6,82.34285836986132,82.55848337307438,1278.1,82.34285836986132,82.55848337307438,1382.7,82.34285836986132,82.55848337307438,1486.3,82.34285836986132,82.55848337307438,1591.5,82.34285836986132,82.55848337307438,1700.4,82.34285836986132,82.55848337307438,1801.2,82.34285836986132,82.55848337307438,1906.6,82.34285836986132,82.55848337307438,2009,82.34285836986132,82.55848337307438,2111,82.34285836986132,82.55848337307438,2216.4,82.34285836986132,82.55848337307438,2316.8,82.34285836986132,82.55848337307438,2421.5,82.34285836986132,82.55848337307438,2533.1,82.34285836986132,82.55848337307438,2634,82.34285836986132,82.55848337307438,2736.3,82.34285836986132,82.55848337307438,2841.3,82.34285836986132,82.55848337307438,2941.9,82.34285836986132,82.55848337307438,3047.3,82.34285836986132,82.55848337307438,3151.8,82.34285836986132,82.55848337307438,3260.8,82.34285836986132,82.55848337307438,3361.3,82.34285836986132,82.55848337307438,3463.4,82.34285836986132,82.55848337307438,3566.3,82.34285836986132,82.55848337307438,3671.9,82.34285836986132,82.55848337307438,3776.5,82.34285836986132,82.55848337307438,3881.6,82.34285836986132,82.55848337307438,3983.1,82.34285836986132,82.55848337307438,4085.9,82.34285836986132,82.55848337307438,4190.9,82.34285836986132,82.55848337307438,4296.3,82.34285836986132,82.55848337307438,4397.8,82.34285836986132,82.55848337307438,4501.6,82.34285836986132,82.55848337307438,4610.6,82.34285836986132,82.55848337307438,4711.1,82.34285836986132,82.55848337307438,4811.3,82.34285836986132,82.55848337307438,4911.5]","[1488.3,1488.3,1000,0,488.3,""oops"",""left"",""right"",""bad_move"",5076.7,3587.1,2924.3,1489.6,662.8,""smooth"",""up"",""up"",""good_move"",7897.8,2819.7,2351.7,5078.1,468,""oops"",""up"",""left"",""good_move"",10161.7,2263.2,1833.2,7898.5,430,""smooth"",""up"",""up"",""good_move"",13236.7,3074.5,2726.9,10162.2,347.6,""oops"",""left"",""up"",""good_move"",16150,2912.8,2432.4,13237.2,480.4,""smooth"",""left"",""left"",""good_move"",18984,2833.5,2359.6,16150.5,473.9,""smooth"",""left"",""left"",""good_move"",21385,2400.7,1948.3,18984.3,452.4,""smooth"",""left"",""left"",""good_move""]","",""
"111993","","<div style=""width:500px;"">
  <p>What determined the result of this run?</p>
  </div>","59","html-slider-response","25","2071147","0.0-5.0-1.3","256","1","2025-07-30 08:38:03","1f75c3e559b7213887762d5229550c2b","41.122.150.140","Mozilla/5.0 (Macintosh; Intel Mac OS X 10_15_7) AppleWebKit/537.36 (KHTML, like Gecko) Chrome/128.0.0.0 Safari/537.36","Macintosh","Chrome","128.0.0.0","OS X","10_15_7","https://app.prolific.com/","en-GB,en-US;q=0.9,en;q=0.8","6780db9dafd89add339abb6b","6877631c9844ddd5501205fc","6889d9de2f18e761905896e6","3","1","6780db9dafd89add339abb6b","3","1","2025-07-30T09:12:40.914Z","","","","","","","","","","","AttribQ","","50","","","","","","","","","","","","","","","","","","","","","","","","","","","","",""
"1269","","<div style=""width:500px;"">
  <p>How much control did you have over the ball?</p>
  </div>","37","html-slider-response","26","2072421","0.0-5.0-2.3","256","1","2025-07-30 08:38:03","1f75c3e559b7213887762d5229550c2b","41.122.150.140","Mozilla/5.0 (Macintosh; Intel Mac OS X 10_15_7) AppleWebKit/537.36 (KHTML, like Gecko) Chrome/128.0.0.0 Safari/537.36","Macintosh","Chrome","128.0.0.0","OS X","10_15_7","https://app.prolific.com/","en-GB,en-US;q=0.9,en;q=0.8","6780db9dafd89add339abb6b","6877631c9844ddd5501205fc","6889d9de2f18e761905896e6","3","1","6780db9dafd89add339abb6b","3","1","2025-07-30T09:12:42.187Z","","","","","","","","","","","ControlQ","","50","","","","","","","","","","","","","","","","","","","","","","","","","","","","",""
"1422","","<div style=""width:500px;"">
  <p>How would you describe your current emotional state?</p>
  </div>","63","html-slider-response","27","2073845","0.0-5.0-3.3","256","1","2025-07-30 08:38:03","1f75c3e559b7213887762d5229550c2b","41.122.150.140","Mozilla/5.0 (Macintosh; Intel Mac OS X 10_15_7) AppleWebKit/537.36 (KHTML, like Gecko) Chrome/128.0.0.0 Safari/537.36","Macintosh","Chrome","128.0.0.0","OS X","10_15_7","https://app.prolific.com/","en-GB,en-US;q=0.9,en;q=0.8","6780db9dafd89add339abb6b","6877631c9844ddd5501205fc","6889d9de2f18e761905896e6","3","1","6780db9dafd89add339abb6b","3","1","2025-07-30T09:12:43.611Z","","","","","","","","","","","StressQ","","50","","","","","","","","","","","","","","","","","","","","","","","","","","","","",""
"1498","","<div style=""width:500px;"">
  <p>What best describes how you currently feel?</p>
  </div>","64","html-slider-response","28","2075345","0.0-5.0-4.3","256","1","2025-07-30 08:38:03","1f75c3e559b7213887762d5229550c2b","41.122.150.140","Mozilla/5.0 (Macintosh; Intel Mac OS X 10_15_7) AppleWebKit/537.36 (KHTML, like Gecko) Chrome/128.0.0.0 Safari/537.36","Macintosh","Chrome","128.0.0.0","OS X","10_15_7","https://app.prolific.com/","en-GB,en-US;q=0.9,en;q=0.8","6780db9dafd89add339abb6b","6877631c9844ddd5501205fc","6889d9de2f18e761905896e6","3","1","6780db9dafd89add339abb6b","3","1","2025-07-30T09:12:45.111Z","","","","","","","","","","","MotivationQ","","50","","","","","","","","","","","","","","","","","","","","","","","","","","","","",""
"","","","","ctl-task-cpt","29","2101247","0.0-5.0-0.4","256","1","2025-07-30 08:38:03","1f75c3e559b7213887762d5229550c2b","41.122.150.140","Mozilla/5.0 (Macintosh; Intel Mac OS X 10_15_7) AppleWebKit/537.36 (KHTML, like Gecko) Chrome/128.0.0.0 Safari/537.36","Macintosh","Chrome","128.0.0.0","OS X","10_15_7","https://app.prolific.com/","en-GB,en-US;q=0.9,en;q=0.8","6780db9dafd89add339abb6b","6877631c9844ddd5501205fc","6889d9de2f18e761905896e6","3","1","6780db9dafd89add339abb6b","3","1","2025-07-30T09:13:11.014Z","","","","","","","","","","","","","","win-only","3","g1:SW,g2:NE","0.6","5","0","2083715.8","792.2","5797.2","22886.7","1","4","8","6","2","8","8","32","24","0.24242424242424243","1105.5","3000","1335","[""up"",""right""]","{""num_key_presses"":6,""num_perfect"":5,""num_errors"":0,""num_randdir"":1,""num_randdir_good_moves"":1,""num_whilered"":0,""num_whileblue"":0,""num_blue"":0,""num_good_moves"":6}","[338.3428621845586,353.7584874142693,0.4,338.3428621845586,353.7584874142693,104.8,340.7428622203214,354.55848742619025,208.6,367.942862625633,370.55848766460883,314.1,444.74286377004216,389.7584879507111,422.9,397.54286306670735,315.35848684206474,529.3,458.34286397269796,174.5584847439812,635.8,558.3428654628141,84.15848339691624,736.8,584.7428658562047,83.35848338499531,838.2,620.7428663926465,84.15848339691624,947.2,621.5428664045675,83.35848338499531,1050.3,621.5428664045675,83.35848338499531,1155.8,618.3428663568837,86.55848343267903,1266.1,546.3428652840001,186.55848492279515,1368,412.742863293205,320.1584869135903,1471.3,405.54286318591664,320.1584869135903,1576.3,405.54286318591664,320.1584869135903,1679.2,405.54286318591664,320.1584869135903,1787.3,405.54286318591664,320.1584869135903,1895.1,405.54286318591664,320.1584869135903,2004.9,405.54286318591664,320.1584869135903,2107.5,405.54286318591664,320.1584869135903,2208.2,405.54286318591664,320.1584869135903,2310.6,405.54286318591664,320.1584869135903,2413.8,405.54286318591664,320.1584869135903,2517.8,405.54286318591664,320.1584869135903,2628.5,405.54286318591664,320.1584869135903,2729.2,405.54286318591664,320.1584869135903,2839.2,405.54286318591664,320.1584869135903,2941.5,405.54286318591664,320.1584869135903,3044.2,405.54286318591664,320.1584869135903,3155.4,405.54286318591664,320.1584869135903,3257.5,405.54286318591664,320.1584869135903,3363.5,405.54286318591664,320.1584869135903,3465.1,405.54286318591664,320.1584869135903,3567,405.54286318591664,320.1584869135903,3675.8,405.54286318591664,320.1584869135903,3778.4,405.54286318591664,320.1584869135903,3878.7,405.54286318591664,320.1584869135903,3979.3,405.54286318591664,320.1584869135903,4081.1,405.54286318591664,320.1584869135903,4188.8,405.54286318591664,320.1584869135903,4293.7,405.54286318591664,320.1584869135903,4395.1,405.54286318591664,320.1584869135903,4498.6,405.54286318591664,320.1584869135903,4605.2,405.54286318591664,320.1584869135903,4706.7,405.54286318591664,320.1584869135903,4807.9,405.54286318591664,320.1584869135903,4912.3]","[1463.5,1463.5,1000,0,463.5,""smooth"",""right"",""right"",""good_move"",4715.5,3251.6,2723.8,1463.9,527.8,""smooth"",""right"",""right"",""good_move"",8162.1,3446.3,3067.2,4715.8,379.1,""oops"",""right"",""right"",""good_move"",11246.5,3083.5,2611.2,8163,472.3,""smooth"",""up"",""up"",""good_move"",13919.2,2671.3,2141.3,11247.9,530,""smooth"",""up"",""up"",""good_move"",16967,3047,2603.9,13920,443.1,""smooth"",""up"",""up"",""good_move""]","",""
"62338","","<div style=""width:500px;"">
  <p>What determined the result of this run?</p>
  </div>","73","html-slider-response","30","2163590","0.0-5.0-1.4","256","1","2025-07-30 08:38:03","1f75c3e559b7213887762d5229550c2b","41.122.150.140","Mozilla/5.0 (Macintosh; Intel Mac OS X 10_15_7) AppleWebKit/537.36 (KHTML, like Gecko) Chrome/128.0.0.0 Safari/537.36","Macintosh","Chrome","128.0.0.0","OS X","10_15_7","https://app.prolific.com/","en-GB,en-US;q=0.9,en;q=0.8","6780db9dafd89add339abb6b","6877631c9844ddd5501205fc","6889d9de2f18e761905896e6","3","1","6780db9dafd89add339abb6b","3","1","2025-07-30T09:14:13.356Z","","","","","","","","","","","AttribQ","","50","","","","","","","","","","","","","","","","","","","","","","","","","","","","",""
"1930","","<div style=""width:500px;"">
  <p>How much control did you have over the ball?</p>
  </div>","74","html-slider-response","31","2165522","0.0-5.0-2.4","256","1","2025-07-30 08:38:03","1f75c3e559b7213887762d5229550c2b","41.122.150.140","Mozilla/5.0 (Macintosh; Intel Mac OS X 10_15_7) AppleWebKit/537.36 (KHTML, like Gecko) Chrome/128.0.0.0 Safari/537.36","Macintosh","Chrome","128.0.0.0","OS X","10_15_7","https://app.prolific.com/","en-GB,en-US;q=0.9,en;q=0.8","6780db9dafd89add339abb6b","6877631c9844ddd5501205fc","6889d9de2f18e761905896e6","3","1","6780db9dafd89add339abb6b","3","1","2025-07-30T09:14:15.288Z","","","","","","","","","","","ControlQ","","50","","","","","","","","","","","","","","","","","","","","","","","","","","","","",""
"1394","","<div style=""width:500px;"">
  <p>How would you describe your current emotional state?</p>
  </div>","25","html-slider-response","32","2166918","0.0-5.0-3.4","256","1","2025-07-30 08:38:03","1f75c3e559b7213887762d5229550c2b","41.122.150.140","Mozilla/5.0 (Macintosh; Intel Mac OS X 10_15_7) AppleWebKit/537.36 (KHTML, like Gecko) Chrome/128.0.0.0 Safari/537.36","Macintosh","Chrome","128.0.0.0","OS X","10_15_7","https://app.prolific.com/","en-GB,en-US;q=0.9,en;q=0.8","6780db9dafd89add339abb6b","6877631c9844ddd5501205fc","6889d9de2f18e761905896e6","3","1","6780db9dafd89add339abb6b","3","1","2025-07-30T09:14:16.684Z","","","","","","","","","","","StressQ","","50","","","","","","","","","","","","","","","","","","","","","","","","","","","","",""
"1551","","<div style=""width:500px;"">
  <p>What best describes how you currently feel?</p>
  </div>","78","html-slider-response","33","2168485","0.0-5.0-4.4","256","1","2025-07-30 08:38:03","1f75c3e559b7213887762d5229550c2b","41.122.150.140","Mozilla/5.0 (Macintosh; Intel Mac OS X 10_15_7) AppleWebKit/537.36 (KHTML, like Gecko) Chrome/128.0.0.0 Safari/537.36","Macintosh","Chrome","128.0.0.0","OS X","10_15_7","https://app.prolific.com/","en-GB,en-US;q=0.9,en;q=0.8","6780db9dafd89add339abb6b","6877631c9844ddd5501205fc","6889d9de2f18e761905896e6","3","1","6780db9dafd89add339abb6b","3","1","2025-07-30T09:14:18.252Z","","","","","","","","","","","MotivationQ","","50","","","","","","","","","","","","","","","","","","","","","","","","","","","","",""
"","","","","ctl-task-cpt","34","2230575","0.0-5.0-0.5","256","1","2025-07-30 08:38:03","1f75c3e559b7213887762d5229550c2b","41.122.150.140","Mozilla/5.0 (Macintosh; Intel Mac OS X 10_15_7) AppleWebKit/537.36 (KHTML, like Gecko) Chrome/128.0.0.0 Safari/537.36","Macintosh","Chrome","128.0.0.0","OS X","10_15_7","https://app.prolific.com/","en-GB,en-US;q=0.9,en;q=0.8","6780db9dafd89add339abb6b","6877631c9844ddd5501205fc","6889d9de2f18e761905896e6","3","1","6780db9dafd89add339abb6b","3","1","2025-07-30T09:15:20.341Z","","","","","","","","","","","","","","win-only","2","g1:SE,g2:NW","0.5","6","0","2176856.3","936","5937.9","59057.1","1","4","4","6","2","-4","-4","28","32","0.21212121212121213","1334.9","3000","-1710","[""left"",""up""]","{""num_key_presses"":9,""num_perfect"":4,""num_errors"":0,""num_randdir"":5,""num_randdir_good_moves"":2,""num_whilered"":0,""num_whileblue"":0,""num_blue"":7,""num_good_moves"":6}","[350.34286236337255,352.9584874023484,0.3,350.34286236337255,352.9584874023484,101,350.34286236337255,352.9584874023484,203,352.74286239913533,353.7584874142693,308.7,505.54286467603276,438.5584886778878,413.2,559.142865474735,512.1584897746133,517.8,556.7428654389722,529.7584900368737,655,359.14286249450277,389.7584879507111,756.8,218.34286039641924,256.158485959916,859.6,159.1428595142705,224.1584854830788,962.1,99.14285862020083,164.95848460093006,1068.6,58.34285801223346,51.35848290815816,1171.6,54.34285795262881,39.358482729344225,1280.1,54.34285795262881,39.358482729344225,1389.1,54.34285795262881,39.358482729344225,1489.5,54.34285795262881,39.358482729344225,1593.4,54.34285795262881,39.358482729344225,1697.7,54.34285795262881,39.358482729344225,1800.7,54.34285795262881,39.358482729344225,1904.9,54.34285795262881,39.358482729344225,2014,54.34285795262881,39.358482729344225,2118,54.34285795262881,39.358482729344225,2222.5,54.34285795262881,39.358482729344225,2334.4,54.34285795262881,39.358482729344225,2436,54.34285795262881,39.358482729344225,2536.7,54.34285795262881,39.358482729344225,2638.5,54.34285795262881,39.358482729344225,2742.3,54.34285795262881,39.358482729344225,2848.1,54.34285795262881,39.358482729344225,2950.5,54.34285795262881,39.358482729344225,3051.8,54.34285795262881,39.358482729344225,3159.9,54.34285795262881,39.358482729344225,3264.8,54.34285795262881,39.358482729344225,3366.7,54.34285795262881,39.358482729344225,3468.8,54.34285795262881,39.358482729344225,3574.3,54.34285795262881,39.358482729344225,3683.6,54.34285795262881,39.358482729344225,3785.5,54.34285795262881,39.358482729344225,3893.9,54.34285795262881,39.358482729344225,4000.6,54.34285795262881,39.358482729344225,4109.2,54.34285795262881,39.358482729344225,4209.8,54.34285795262881,39.358482729344225,4316.1,54.34285795262881,39.358482729344225,4417.5,54.34285795262881,39.358482729344225,4520.9,54.34285795262881,39.358482729344225,4625.4,54.34285795262881,39.358482729344225,4726.4,54.34285795262881,39.358482729344225,4837,54.34285795262881,39.358482729344225,4942.4]","[1484.4,1484.4,1000,0,484.4,""smooth"",""left"",""left"",""good_move"",5377.1,3892.3,3494.9,1484.8,397.4,""oops"",""left"",""down"",""bad_move"",8106.1,2728.2,2243.9,5377.9,484.3,""smooth"",""left"",""left"",""good_move"",18542.4,10435.4,2405.5,15677.7,459.2,""oops"",""left"",""left"",""good_move"",24781.9,6239.4,2278.2,21902.8,600.9,""smooth"",""up"",""up"",""good_move"",31165.1,6376.1,2458.5,28208.2,498.4,""oops"",""up"",""up"",""good_move"",34327.7,3162.4,2694.6,31165.3,467.8,""smooth"",""up"",""up"",""good_move"",40171.5,5839.5,1678.2,38062.7,430.6,""oops"",""up"",""right"",""bad_move"",42268.1,2096.4,1640.7,40171.8,455.6,""oops"",""up"",""down"",""bad_move""]","",""
"40741","","<div style=""width:500px;"">
  <p>What determined the result of this run?</p>
  </div>","28","html-slider-response","35","2271325","0.0-5.0-1.5","256","1","2025-07-30 08:38:03","1f75c3e559b7213887762d5229550c2b","41.122.150.140","Mozilla/5.0 (Macintosh; Intel Mac OS X 10_15_7) AppleWebKit/537.36 (KHTML, like Gecko) Chrome/128.0.0.0 Safari/537.36","Macintosh","Chrome","128.0.0.0","OS X","10_15_7","https://app.prolific.com/","en-GB,en-US;q=0.9,en;q=0.8","6780db9dafd89add339abb6b","6877631c9844ddd5501205fc","6889d9de2f18e761905896e6","3","1","6780db9dafd89add339abb6b","3","1","2025-07-30T09:16:01.091Z","","","","","","","","","","","AttribQ","","50","","","","","","","","","","","","","","","","","","","","","","","","","","","","",""
"1640","","<div style=""width:500px;"">
  <p>How much control did you have over the ball?</p>
  </div>","28","html-slider-response","36","2272967","0.0-5.0-2.5","256","1","2025-07-30 08:38:03","1f75c3e559b7213887762d5229550c2b","41.122.150.140","Mozilla/5.0 (Macintosh; Intel Mac OS X 10_15_7) AppleWebKit/537.36 (KHTML, like Gecko) Chrome/128.0.0.0 Safari/537.36","Macintosh","Chrome","128.0.0.0","OS X","10_15_7","https://app.prolific.com/","en-GB,en-US;q=0.9,en;q=0.8","6780db9dafd89add339abb6b","6877631c9844ddd5501205fc","6889d9de2f18e761905896e6","3","1","6780db9dafd89add339abb6b","3","1","2025-07-30T09:16:02.734Z","","","","","","","","","","","ControlQ","","50","","","","","","","","","","","","","","","","","","","","","","","","","","","","",""
"1896","","<div style=""width:500px;"">
  <p>How would you describe your current emotional state?</p>
  </div>","77","html-slider-response","37","2274865","0.0-5.0-3.5","256","1","2025-07-30 08:38:03","1f75c3e559b7213887762d5229550c2b","41.122.150.140","Mozilla/5.0 (Macintosh; Intel Mac OS X 10_15_7) AppleWebKit/537.36 (KHTML, like Gecko) Chrome/128.0.0.0 Safari/537.36","Macintosh","Chrome","128.0.0.0","OS X","10_15_7","https://app.prolific.com/","en-GB,en-US;q=0.9,en;q=0.8","6780db9dafd89add339abb6b","6877631c9844ddd5501205fc","6889d9de2f18e761905896e6","3","1","6780db9dafd89add339abb6b","3","1","2025-07-30T09:16:04.632Z","","","","","","","","","","","StressQ","","50","","","","","","","","","","","","","","","","","","","","","","","","","","","","",""
"2030","","<div style=""width:500px;"">
  <p>What best describes how you currently feel?</p>
  </div>","18","html-slider-response","38","2276898","0.0-5.0-4.5","256","1","2025-07-30 08:38:03","1f75c3e559b7213887762d5229550c2b","41.122.150.140","Mozilla/5.0 (Macintosh; Intel Mac OS X 10_15_7) AppleWebKit/537.36 (KHTML, like Gecko) Chrome/128.0.0.0 Safari/537.36","Macintosh","Chrome","128.0.0.0","OS X","10_15_7","https://app.prolific.com/","en-GB,en-US;q=0.9,en;q=0.8","6780db9dafd89add339abb6b","6877631c9844ddd5501205fc","6889d9de2f18e761905896e6","3","1","6780db9dafd89add339abb6b","3","1","2025-07-30T09:16:06.664Z","","","","","","","","","","","MotivationQ","","50","","","","","","","","","","","","","","","","","","","","","","","","","","","","",""
"","","","","ctl-task-cpt","39","2317343","0.0-5.0-0.6","256","1","2025-07-30 08:38:03","1f75c3e559b7213887762d5229550c2b","41.122.150.140","Mozilla/5.0 (Macintosh; Intel Mac OS X 10_15_7) AppleWebKit/537.36 (KHTML, like Gecko) Chrome/128.0.0.0 Safari/537.36","Macintosh","Chrome","128.0.0.0","OS X","10_15_7","https://app.prolific.com/","en-GB,en-US;q=0.9,en;q=0.8","6780db9dafd89add339abb6b","6877631c9844ddd5501205fc","6889d9de2f18e761905896e6","3","1","6780db9dafd89add339abb6b","3","1","2025-07-30T09:16:47.109Z","","","","","","","","","","","","","","win-only","1","g1:NE,g2:SW","0.4","7","0","2285250.3","758.9","5767.3","37422.5","1","4","8","6","2","8","8","36","28","0.2727272727272727","960.1","3000","1385","[""down"",""left""]","{""num_key_presses"":8,""num_perfect"":4,""num_errors"":0,""num_randdir"":4,""num_randdir_good_moves"":3,""num_whilered"":0,""num_whileblue"":0,""num_blue"":2,""num_good_moves"":7}","[336.74286216071675,344.1584872712182,0.3,336.74286216071675,344.1584872712182,111.9,339.14286219647954,345.75848729506004,216.3,431.9428635793073,411.3584882725762,329.5,445.5428637819631,478.55848927393424,437.2,335.9428621487958,529.7584900368737,545.5,219.9428604202611,589.7584909309434,657.3,147.9428593473775,624.1584914435433,778.9,90.34285848907061,623.3584914316224,879.1,79.94285833409853,623.3584914316224,979.1,79.94285833409853,623.3584914316224,1091.9,80.74285834601946,620.9584913958596,1198.6,83.94285839370318,614.5584913004922,1306.3,93.54285853675432,595.3584910143899,1408.3,93.54285853675432,593.758490990548,1511.1,93.54285853675432,593.758490990548,1614.3,93.54285853675432,593.758490990548,1722.3,93.54285853675432,593.758490990548,1827.4,93.54285853675432,593.758490990548,1930,93.54285853675432,593.758490990548,2031.1,93.54285853675432,593.758490990548,2136,93.54285853675432,593.758490990548,2238.5,93.54285853675432,593.758490990548,2341.4,93.54285853675432,593.758490990548,2446.6,93.54285853675432,593.758490990548,2547.2,93.54285853675432,593.758490990548,2647.6,93.54285853675432,593.758490990548,2749.8,93.54285853675432,593.758490990548,2856.3,93.54285853675432,593.758490990548,2957.1,93.54285853675432,593.758490990548,3061.9,93.54285853675432,593.758490990548,3163.9,93.54285853675432,593.758490990548,3264,93.54285853675432,593.758490990548,3373.2,93.54285853675432,593.758490990548,3479.5,93.54285853675432,593.758490990548,3592.7,93.54285853675432,593.758490990548,3696.6,93.54285853675432,593.758490990548,3798.3,93.54285853675432,593.758490990548,3900.6,93.54285853675432,593.758490990548,4005.1,93.54285853675432,593.758490990548,4107.1,93.54285853675432,593.758490990548,4207.8,93.54285853675432,593.758490990548,4314.2,93.54285853675432,593.758490990548,4422.9,93.54285853675432,593.758490990548,4527.5,93.54285853675432,593.758490990548,4641.7,93.54285853675432,593.758490990548,4744.6,93.54285853675432,593.758490990548,4847.7,93.54285853675432,593.758490990548,4957.1]","[5152.8,5152.8,2701.7,2003.7,447.4,""smooth"",""left"",""left"",""good_move"",8873.4,3719.8,2979.4,5153.7,740.3,""smooth"",""left"",""left"",""good_move"",12156.2,3280.1,2854.5,8876.1,425.6,""smooth"",""left"",""left"",""good_move"",14998,2841.3,2314.9,12156.7,526.4,""oops"",""down"",""down"",""good_move"",18051.2,3027.5,2462.4,15023.7,565.1,""oops"",""down"",""right"",""bad_move"",22333.8,4278.9,3609.7,18054.9,669.2,""smooth"",""down"",""down"",""good_move"",28253.1,5918.4,3108.3,24752.6,392.2,""oops"",""left"",""left"",""good_move"",31504.6,3250.5,2795.1,28254.1,455.4,""oops"",""down"",""down"",""good_move""]","",""
"47028","","<div style=""width:500px;"">
  <p>What determined the result of this run?</p>
  </div>","62","html-slider-response","40","2364375","0.0-5.0-1.6","256","1","2025-07-30 08:38:03","1f75c3e559b7213887762d5229550c2b","41.122.150.140","Mozilla/5.0 (Macintosh; Intel Mac OS X 10_15_7) AppleWebKit/537.36 (KHTML, like Gecko) Chrome/128.0.0.0 Safari/537.36","Macintosh","Chrome","128.0.0.0","OS X","10_15_7","https://app.prolific.com/","en-GB,en-US;q=0.9,en;q=0.8","6780db9dafd89add339abb6b","6877631c9844ddd5501205fc","6889d9de2f18e761905896e6","3","1","6780db9dafd89add339abb6b","3","1","2025-07-30T09:17:34.141Z","","","","","","","","","","","AttribQ","","50","","","","","","","","","","","","","","","","","","","","","","","","","","","","",""
"2828","","<div style=""width:500px;"">
  <p>How much control did you have over the ball?</p>
  </div>","61","html-slider-response","41","2367206","0.0-5.0-2.6","256","1","2025-07-30 08:38:03","1f75c3e559b7213887762d5229550c2b","41.122.150.140","Mozilla/5.0 (Macintosh; Intel Mac OS X 10_15_7) AppleWebKit/537.36 (KHTML, like Gecko) Chrome/128.0.0.0 Safari/537.36","Macintosh","Chrome","128.0.0.0","OS X","10_15_7","https://app.prolific.com/","en-GB,en-US;q=0.9,en;q=0.8","6780db9dafd89add339abb6b","6877631c9844ddd5501205fc","6889d9de2f18e761905896e6","3","1","6780db9dafd89add339abb6b","3","1","2025-07-30T09:17:36.973Z","","","","","","","","","","","ControlQ","","50","","","","","","","","","","","","","","","","","","","","","","","","","","","","",""
"1440","","<div style=""width:500px;"">
  <p>How would you describe your current emotional state?</p>
  </div>","38","html-slider-response","42","2368651","0.0-5.0-3.6","256","1","2025-07-30 08:38:03","1f75c3e559b7213887762d5229550c2b","41.122.150.140","Mozilla/5.0 (Macintosh; Intel Mac OS X 10_15_7) AppleWebKit/537.36 (KHTML, like Gecko) Chrome/128.0.0.0 Safari/537.36","Macintosh","Chrome","128.0.0.0","OS X","10_15_7","https://app.prolific.com/","en-GB,en-US;q=0.9,en;q=0.8","6780db9dafd89add339abb6b","6877631c9844ddd5501205fc","6889d9de2f18e761905896e6","3","1","6780db9dafd89add339abb6b","3","1","2025-07-30T09:17:38.417Z","","","","","","","","","","","StressQ","","50","","","","","","","","","","","","","","","","","","","","","","","","","","","","",""
"1506","","<div style=""width:500px;"">
  <p>What best describes how you currently feel?</p>
  </div>","63","html-slider-response","43","2370199","0.0-5.0-4.6","256","1","2025-07-30 08:38:03","1f75c3e559b7213887762d5229550c2b","41.122.150.140","Mozilla/5.0 (Macintosh; Intel Mac OS X 10_15_7) AppleWebKit/537.36 (KHTML, like Gecko) Chrome/128.0.0.0 Safari/537.36","Macintosh","Chrome","128.0.0.0","OS X","10_15_7","https://app.prolific.com/","en-GB,en-US;q=0.9,en;q=0.8","6780db9dafd89add339abb6b","6877631c9844ddd5501205fc","6889d9de2f18e761905896e6","3","1","6780db9dafd89add339abb6b","3","1","2025-07-30T09:17:39.965Z","","","","","","","","","","","MotivationQ","","50","","","","","","","","","","","","","","","","","","","","","","","","","","","","",""
"","","","","ctl-task-cpt","44","2395185","0.0-5.0-0.7","256","1","2025-07-30 08:38:03","1f75c3e559b7213887762d5229550c2b","41.122.150.140","Mozilla/5.0 (Macintosh; Intel Mac OS X 10_15_7) AppleWebKit/537.36 (KHTML, like Gecko) Chrome/128.0.0.0 Safari/537.36","Macintosh","Chrome","128.0.0.0","OS X","10_15_7","https://app.prolific.com/","en-GB,en-US;q=0.9,en;q=0.8","6780db9dafd89add339abb6b","6877631c9844ddd5501205fc","6889d9de2f18e761905896e6","3","1","6780db9dafd89add339abb6b","3","1","2025-07-30T09:18:04.951Z","","","","","","","","","","","","","","win-only","3","g1:SW,g2:NE","0.3","8","0","2378555.8","876.3","5903.5","21955.2","1","4","4","6","2","4","4","40","36","0.30303030303030304","1206.9","3000","1585","[""up"",""right""]","{""num_key_presses"":6,""num_perfect"":2,""num_errors"":0,""num_randdir"":4,""num_randdir_good_moves"":4,""num_whilered"":0,""num_whileblue"":0,""num_blue"":0,""num_good_moves"":6}","[343.9428622680051,349.7584873546647,0.4,343.9428622680051,349.7584873546647,106.6,344.74286227992604,350.5584873665856,216.2,383.14286285213063,385.7584878911065,328.2,504.74286466411183,440.9584887136506,459.5,548.7428653197629,322.5584869493531,563.9,547.942865307842,260.15848601952064,704,537.5428651528699,141.75848425522312,813.7,588.7428659158094,100.15848363533482,935.7,607.1428661899907,77.75848330154881,1037.6,620.7428663926465,74.55848325386509,1162.7,620.7428663926465,74.55848325386509,1265.2,620.7428663926465,74.55848325386509,1376.6,620.7428663926465,74.55848325386509,1506.7,620.7428663926465,74.55848325386509,1619,620.7428663926465,74.55848325386509,1724.3,620.7428663926465,74.55848325386509,1826.6,620.7428663926465,74.55848325386509,1995.5,620.7428663926465,74.55848325386509,2108.8,620.7428663926465,74.55848325386509,2211.9,620.7428663926465,74.55848325386509,2316.2,620.7428663926465,74.55848325386509,2423.4,620.7428663926465,74.55848325386509,2545.1,620.7428663926465,74.55848325386509,2655.3,620.7428663926465,74.55848325386509,2792.3,620.7428663926465,74.55848325386509,2894,620.7428663926465,74.55848325386509,3021.6,620.7428663926465,74.55848325386509,3125.8,620.7428663926465,74.55848325386509,3230.7,620.7428663926465,74.55848325386509,3342.5,620.7428663926465,74.55848325386509,3448.9,620.7428663926465,74.55848325386509,3574,620.7428663926465,74.55848325386509,3696,620.7428663926465,74.55848325386509,3830.6,620.7428663926465,74.55848325386509,4001,620.7428663926465,74.55848325386509,4107.2,620.7428663926465,74.55848325386509,4214.5,620.7428663926465,74.55848325386509,4329.8,620.7428663926465,74.55848325386509,4440.1,620.7428663926465,74.55848325386509,4540.9,620.7428663926465,74.55848325386509,4643.9,620.7428663926465,74.55848325386509,4748.8,620.7428663926465,74.55848325386509,4851.2,620.7428663926465,74.55848325386509,4992.4]","[1719.7,1719.8,1000,0,719.8,""oops"",""right"",""right"",""good_move"",5265.9,3545.3,2942.8,1720.6,602.6,""oops"",""up"",""right"",""good_move"",7986.4,2719.2,2233.2,5267.2,486,""oops"",""up"",""right"",""good_move"",10630.9,2644.3,2212.5,7986.6,431.8,""oops"",""up"",""up"",""good_move"",12887.8,2254.6,1611.8,10633.2,642.8,""smooth"",""up"",""up"",""good_move"",15839.3,2950.6,2521.6,12888.7,429,""smooth"",""up"",""up"",""good_move""]","",""
"172958","","<div style=""width:500px;"">
  <p>What determined the result of this run?</p>
  </div>","65","html-slider-response","45","2568151","0.0-5.0-1.7","256","1","2025-07-30 08:38:03","1f75c3e559b7213887762d5229550c2b","41.122.150.140","Mozilla/5.0 (Macintosh; Intel Mac OS X 10_15_7) AppleWebKit/537.36 (KHTML, like Gecko) Chrome/128.0.0.0 Safari/537.36","Macintosh","Chrome","128.0.0.0","OS X","10_15_7","https://app.prolific.com/","en-GB,en-US;q=0.9,en;q=0.8","6780db9dafd89add339abb6b","6877631c9844ddd5501205fc","6889d9de2f18e761905896e6","3","1","6780db9dafd89add339abb6b","3","1","2025-07-30T09:20:57.917Z","","","","","","","","","","","AttribQ","","50","","","","","","","","","","","","","","","","","","","","","","","","","","","","",""
"1969","","<div style=""width:500px;"">
  <p>How much control did you have over the ball?</p>
  </div>","32","html-slider-response","46","2570122","0.0-5.0-2.7","256","1","2025-07-30 08:38:03","1f75c3e559b7213887762d5229550c2b","41.122.150.140","Mozilla/5.0 (Macintosh; Intel Mac OS X 10_15_7) AppleWebKit/537.36 (KHTML, like Gecko) Chrome/128.0.0.0 Safari/537.36","Macintosh","Chrome","128.0.0.0","OS X","10_15_7","https://app.prolific.com/","en-GB,en-US;q=0.9,en;q=0.8","6780db9dafd89add339abb6b","6877631c9844ddd5501205fc","6889d9de2f18e761905896e6","3","1","6780db9dafd89add339abb6b","3","1","2025-07-30T09:20:59.888Z","","","","","","","","","","","ControlQ","","50","","","","","","","","","","","","","","","","","","","","","","","","","","","","",""
"1180","","<div style=""width:500px;"">
  <p>How would you describe your current emotional state?</p>
  </div>","42","html-slider-response","47","2571305","0.0-5.0-3.7","256","1","2025-07-30 08:38:03","1f75c3e559b7213887762d5229550c2b","41.122.150.140","Mozilla/5.0 (Macintosh; Intel Mac OS X 10_15_7) AppleWebKit/537.36 (KHTML, like Gecko) Chrome/128.0.0.0 Safari/537.36","Macintosh","Chrome","128.0.0.0","OS X","10_15_7","https://app.prolific.com/","en-GB,en-US;q=0.9,en;q=0.8","6780db9dafd89add339abb6b","6877631c9844ddd5501205fc","6889d9de2f18e761905896e6","3","1","6780db9dafd89add339abb6b","3","1","2025-07-30T09:21:01.071Z","","","","","","","","","","","StressQ","","50","","","","","","","","","","","","","","","","","","","","","","","","","","","","",""
"1450","","<div style=""width:500px;"">
  <p>What best describes how you currently feel?</p>
  </div>","64","html-slider-response","48","2572757","0.0-5.0-4.7","256","1","2025-07-30 08:38:03","1f75c3e559b7213887762d5229550c2b","41.122.150.140","Mozilla/5.0 (Macintosh; Intel Mac OS X 10_15_7) AppleWebKit/537.36 (KHTML, like Gecko) Chrome/128.0.0.0 Safari/537.36","Macintosh","Chrome","128.0.0.0","OS X","10_15_7","https://app.prolific.com/","en-GB,en-US;q=0.9,en;q=0.8","6780db9dafd89add339abb6b","6877631c9844ddd5501205fc","6889d9de2f18e761905896e6","3","1","6780db9dafd89add339abb6b","3","1","2025-07-30T09:21:02.523Z","","","","","","","","","","","MotivationQ","","50","","","","","","","","","","","","","","","","","","","","","","","","","","","","",""
"","","","","ctl-task-cpt","49","2631223","0.0-5.0-0.8","256","1","2025-07-30 08:38:03","1f75c3e559b7213887762d5229550c2b","41.122.150.140","Mozilla/5.0 (Macintosh; Intel Mac OS X 10_15_7) AppleWebKit/537.36 (KHTML, like Gecko) Chrome/128.0.0.0 Safari/537.36","Macintosh","Chrome","128.0.0.0","OS X","10_15_7","https://app.prolific.com/","en-GB,en-US;q=0.9,en;q=0.8","6780db9dafd89add339abb6b","6877631c9844ddd5501205fc","6889d9de2f18e761905896e6","3","1","6780db9dafd89add339abb6b","3","1","2025-07-30T09:22:00.989Z","","","","","","","","","","","","","","win-only","1","g1:NE,g2:SW","0.2","9","0","2581098.1","1408.8","6416.6","55450.6","1","4","8","6","2","8","8","48","40","0.36363636363636365","975.9","3000","690","[""down"",""left""]","{""num_key_presses"":10,""num_perfect"":2,""num_errors"":0,""num_randdir"":8,""num_randdir_good_moves"":6,""num_whilered"":0,""num_whileblue"":0,""num_blue"":5,""num_good_moves"":8}","[348.7428623395307,351.35848737850654,0.9,348.7428623395307,351.35848737850654,113.2,363.94286256602834,368.15848762884605,218.7,482.3428643303258,447.358488809018,329.2,371.1428626733167,506.55848969116676,457.2,221.54286044410296,570.5584906448411,574.4,162.3428595619542,584.9584908594178,693.6,106.34285872748919,590.5584909428643,796.9,58.34285801223346,604.958491157441,908.9,58.34285801223346,606.5584911812829,1069,58.34285801223346,606.5584911812829,1172.1,56.7428579883916,604.1584911455201,1273.3,54.34285795262881,599.3584910739945,1379.2,54.34285795262881,599.3584910739945,1487.7,54.34285795262881,599.3584910739945,1590.7,54.34285795262881,599.3584910739945,1692.3,54.34285795262881,599.3584910739945,1801.2,54.34285795262881,599.3584910739945,1905.3,54.34285795262881,599.3584910739945,2006.2,54.34285795262881,599.3584910739945,2112.1,54.34285795262881,599.3584910739945,2218.7,54.34285795262881,599.3584910739945,2334.8,54.34285795262881,599.3584910739945,2436.3,54.34285795262881,599.3584910739945,2539.9,54.34285795262881,599.3584910739945,2644.7,54.34285795262881,599.3584910739945,2755.4,54.34285795262881,599.3584910739945,2856.6,54.34285795262881,599.3584910739945,2968.5,54.34285795262881,599.3584910739945,3083.8,54.34285795262881,599.3584910739945,3189.5,54.34285795262881,599.3584910739945,3294.4,54.34285795262881,599.3584910739945,3395.3,54.34285795262881,599.3584910739945,3502.6,54.34285795262881,599.3584910739945,3602.9,54.34285795262881,599.3584910739945,3705.3,54.34285795262881,599.3584910739945,3812,54.34285795262881,599.3584910739945,3920.8,54.34285795262881,599.3584910739945,4026.8,54.34285795262881,599.3584910739945,4133.8,54.34285795262881,599.3584910739945,4240,54.34285795262881,599.3584910739945,4340,54.34285795262881,599.3584910739945,4445.2,54.34285795262881,599.3584910739945,4546.7,54.34285795262881,599.3584910739945,4649.2,54.34285795262881,599.3584910739945,4762.5,54.34285795262881,599.3584910739945,4874.2,54.34285795262881,599.3584910739945,4984]","[6415.3,6415.3,3167.1,2047.7,1200.5,""smooth"",""left"",""left"",""good_move"",12581.3,6161.5,1888.7,9869.1,823.5,""smooth"",""left"",""left"",""good_move"",15565.1,2983.4,1879.9,12581.7,1103.6,""oops"",""left"",""down"",""good_move"",25077.1,9511,2556.8,22014,506.3,""oops"",""left"",""down"",""good_move"",27927,2849.8,2359.8,25077.3,490,""oops"",""left"",""up"",""bad_move"",34334.8,6406.1,2703.7,31156.9,474.2,""oops"",""left"",""right"",""bad_move"",37909.6,3574,2838.4,34335.6,735.6,""oops"",""down"",""left"",""good_move"",41919.1,4006.6,2397,37915.4,1609.6,""oops"",""down"",""down"",""good_move"",45639.3,3685.3,3043.6,41954,641.7,""oops"",""down"",""left"",""good_move"",48813.8,3173.4,2789.5,45640.4,383.9,""oops"",""down"",""down"",""good_move""]","",""
"64667","","<div style=""width:500px;"">
  <p>What determined the result of this run?</p>
  </div>","69","html-slider-response","50","2695895","0.0-5.0-1.8","256","1","2025-07-30 08:38:03","1f75c3e559b7213887762d5229550c2b","41.122.150.140","Mozilla/5.0 (Macintosh; Intel Mac OS X 10_15_7) AppleWebKit/537.36 (KHTML, like Gecko) Chrome/128.0.0.0 Safari/537.36","Macintosh","Chrome","128.0.0.0","OS X","10_15_7","https://app.prolific.com/","en-GB,en-US;q=0.9,en;q=0.8","6780db9dafd89add339abb6b","6877631c9844ddd5501205fc","6889d9de2f18e761905896e6","3","1","6780db9dafd89add339abb6b","3","1","2025-07-30T09:23:05.661Z","","","","","","","","","","","AttribQ","","50","","","","","","","","","","","","","","","","","","","","","","","","","","","","",""
"2691","","<div style=""width:500px;"">
  <p>How much control did you have over the ball?</p>
  </div>","57","html-slider-response","51","2698590","0.0-5.0-2.8","256","1","2025-07-30 08:38:03","1f75c3e559b7213887762d5229550c2b","41.122.150.140","Mozilla/5.0 (Macintosh; Intel Mac OS X 10_15_7) AppleWebKit/537.36 (KHTML, like Gecko) Chrome/128.0.0.0 Safari/537.36","Macintosh","Chrome","128.0.0.0","OS X","10_15_7","https://app.prolific.com/","en-GB,en-US;q=0.9,en;q=0.8","6780db9dafd89add339abb6b","6877631c9844ddd5501205fc","6889d9de2f18e761905896e6","3","1","6780db9dafd89add339abb6b","3","1","2025-07-30T09:23:08.356Z","","","","","","","","","","","ControlQ","","50","","","","","","","","","","","","","","","","","","","","","","","","","","","","",""
"1981","","<div style=""width:500px;"">
  <p>How would you describe your current emotional state?</p>
  </div>","33","html-slider-response","52","2700573","0.0-5.0-3.8","256","1","2025-07-30 08:38:03","1f75c3e559b7213887762d5229550c2b","41.122.150.140","Mozilla/5.0 (Macintosh; Intel Mac OS X 10_15_7) AppleWebKit/537.36 (KHTML, like Gecko) Chrome/128.0.0.0 Safari/537.36","Macintosh","Chrome","128.0.0.0","OS X","10_15_7","https://app.prolific.com/","en-GB,en-US;q=0.9,en;q=0.8","6780db9dafd89add339abb6b","6877631c9844ddd5501205fc","6889d9de2f18e761905896e6","3","1","6780db9dafd89add339abb6b","3","1","2025-07-30T09:23:10.340Z","","","","","","","","","","","StressQ","","50","","","","","","","","","","","","","","","","","","","","","","","","","","","","",""
"1669","","<div style=""width:500px;"">
  <p>What best describes how you currently feel?</p>
  </div>","64","html-slider-response","53","2702246","0.0-5.0-4.8","256","1","2025-07-30 08:38:03","1f75c3e559b7213887762d5229550c2b","41.122.150.140","Mozilla/5.0 (Macintosh; Intel Mac OS X 10_15_7) AppleWebKit/537.36 (KHTML, like Gecko) Chrome/128.0.0.0 Safari/537.36","Macintosh","Chrome","128.0.0.0","OS X","10_15_7","https://app.prolific.com/","en-GB,en-US;q=0.9,en;q=0.8","6780db9dafd89add339abb6b","6877631c9844ddd5501205fc","6889d9de2f18e761905896e6","3","1","6780db9dafd89add339abb6b","3","1","2025-07-30T09:23:12.012Z","","","","","","","","","","","MotivationQ","","50","","","","","","","","","","","","","","","","","","","","","","","","","","","","",""
"","","","","ctl-task-cpt","54","2787543","0.0-5.0-0.9","256","1","2025-07-30 08:38:03","1f75c3e559b7213887762d5229550c2b","41.122.150.140","Mozilla/5.0 (Macintosh; Intel Mac OS X 10_15_7) AppleWebKit/537.36 (KHTML, like Gecko) Chrome/128.0.0.0 Safari/537.36","Macintosh","Chrome","128.0.0.0","OS X","10_15_7","https://app.prolific.com/","en-GB,en-US;q=0.9,en;q=0.8","6780db9dafd89add339abb6b","6877631c9844ddd5501205fc","6889d9de2f18e761905896e6","3","1","6780db9dafd89add339abb6b","3","1","2025-07-30T09:24:37.309Z","","","","","","","","","","","","","","win-only","2","g1:SE,g2:NW","0.4","10","0","2710587.4","692.1","5758.6","82272.4","1","4","4","6","2","-4","-4","44","48","0.3333333333333333","1522.3","3000","-1185","[""left"",""up""]","{""num_key_presses"":19,""num_perfect"":8,""num_errors"":0,""num_randdir"":11,""num_randdir_good_moves"":3,""num_whilered"":0,""num_whileblue"":0,""num_blue"":5,""num_good_moves"":11}","[347.14286231568883,355.3584874381112,0.9,347.14286231568883,355.3584874381112,108.6,347.94286232760976,355.3584874381112,216.5,427.1428635077817,410.5584882606553,335.5,571.1428656535489,470.55848915472495,451.8,615.1428663092,529.7584900368737,559.9,611.9428662615163,587.3584908951806,695.1,391.94286298326085,421.7584884275483,796,215.94286036065645,251.3584858883904,905.8,203.94286018184252,243.3584857691811,1006.5,144.74285929969378,137.75848419561848,1116.2,123.94285898974962,112.15848381414875,1217.8,114.34285884669848,97.75848359957203,1322.8,65.54285811952181,64.95848311081394,1440.5,65.54285811952181,64.15848309889302,1542.3,65.54285811952181,64.15848309889302,1647.4,72.74285822681017,65.75848312273487,1753.7,75.14285826257296,68.95848317041859,1866.1,75.14285826257296,68.95848317041859,1980.3,75.14285826257296,68.95848317041859,2084.4,75.14285826257296,68.95848317041859,2201.2,75.14285826257296,68.95848317041859,2310.8,75.14285826257296,68.95848317041859,2414.1,75.14285826257296,68.95848317041859,2519.3,75.14285826257296,68.95848317041859,2624.4,75.14285826257296,68.95848317041859,2729.4,75.14285826257296,68.95848317041859,2837.4,75.14285826257296,68.95848317041859,2953.2,75.14285826257296,68.95848317041859,3064.3,75.14285826257296,68.95848317041859,3169,75.14285826257296,68.95848317041859,3279.3,75.14285826257296,68.95848317041859,3381.1,75.14285826257296,68.95848317041859,3490.6,75.14285826257296,68.95848317041859,3590.6,75.14285826257296,68.95848317041859,3701.1,75.14285826257296,68.95848317041859,3807.7,75.14285826257296,68.95848317041859,3914.6,75.14285826257296,68.95848317041859,4019,75.14285826257296,68.95848317041859,4119.3,75.14285826257296,68.95848317041859,4228.6,75.14285826257296,68.95848317041859,4338.3,75.14285826257296,68.95848317041859,4446.1,75.14285826257296,68.95848317041859,4555.5,75.14285826257296,68.95848317041859,4659.1,75.14285826257296,68.95848317041859,4760.2,75.14285826257296,68.95848317041859,4871.1,75.14285826257296,68.95848317041859,4980.4]","[1707.3,1707.3,1000,0,707.3,""oops"",""left"",""up"",""good_move"",4676.1,2967.6,2525.3,1708.5,442.3,""smooth"",""left"",""left"",""good_move"",10905.2,6228.3,2560.2,7902,443,""oops"",""left"",""left"",""good_move"",14458.9,3553.3,2171.1,10905.6,1382.2,""smooth"",""left"",""left"",""good_move"",22206,7746.8,2401.4,19278.8,525.8,""smooth"",""up"",""up"",""good_move"",25752.6,3545.7,3136.2,22207,409.5,""oops"",""up"",""down"",""bad_move"",28846,3091.1,2687.7,25755,403.3,""smooth"",""up"",""up"",""good_move"",35091.2,6243.2,2538.8,32144.9,407.5,""oops"",""up"",""down"",""bad_move"",37642.5,2550.4,2144.2,35092.1,406.2,""oops"",""up"",""right"",""bad_move"",40815.8,3173,2745.9,37642.8,427.1,""oops"",""left"",""left"",""good_move"",43704.1,2887.5,2483,40816.6,404.5,""smooth"",""up"",""up"",""good_move"",50238.7,6534.4,2552.9,47163.1,522.8,""oops"",""up"",""right"",""bad_move"",56777.2,6537.9,2319.9,53965.4,491.9,""smooth"",""left"",""left"",""good_move"",59379.5,2601.8,2200.1,56777.7,401.7,""oops"",""up"",""down"",""bad_move"",62375.4,2995.4,2581.9,59380,413.5,""oops"",""up"",""down"",""bad_move"",65319.5,2943.8,2486.8,62375.7,457,""oops"",""up"",""right"",""bad_move"",68270.9,2950.8,2484.8,65320.1,466,""smooth"",""up"",""up"",""good_move"",70957.6,2686.1,2041.6,68271.5,644.5,""smooth"",""up"",""up"",""good_move"",73344.1,2386.3,2021,70957.8,365.3,""oops"",""left"",""down"",""bad_move""]","",""
"43426","","<div style=""width:500px;"">
  <p>What determined the result of this run?</p>
  </div>","36","html-slider-response","55","2830971","0.0-5.0-1.9","256","1","2025-07-30 08:38:03","1f75c3e559b7213887762d5229550c2b","41.122.150.140","Mozilla/5.0 (Macintosh; Intel Mac OS X 10_15_7) AppleWebKit/537.36 (KHTML, like Gecko) Chrome/128.0.0.0 Safari/537.36","Macintosh","Chrome","128.0.0.0","OS X","10_15_7","https://app.prolific.com/","en-GB,en-US;q=0.9,en;q=0.8","6780db9dafd89add339abb6b","6877631c9844ddd5501205fc","6889d9de2f18e761905896e6","3","1","6780db9dafd89add339abb6b","3","1","2025-07-30T09:25:20.737Z","","","","","","","","","","","AttribQ","","50","","","","","","","","","","","","","","","","","","","","","","","","","","","","",""
"1951","","<div style=""width:500px;"">
  <p>How much control did you have over the ball?</p>
  </div>","26","html-slider-response","56","2832924","0.0-5.0-2.9","256","1","2025-07-30 08:38:03","1f75c3e559b7213887762d5229550c2b","41.122.150.140","Mozilla/5.0 (Macintosh; Intel Mac OS X 10_15_7) AppleWebKit/537.36 (KHTML, like Gecko) Chrome/128.0.0.0 Safari/537.36","Macintosh","Chrome","128.0.0.0","OS X","10_15_7","https://app.prolific.com/","en-GB,en-US;q=0.9,en;q=0.8","6780db9dafd89add339abb6b","6877631c9844ddd5501205fc","6889d9de2f18e761905896e6","3","1","6780db9dafd89add339abb6b","3","1","2025-07-30T09:25:22.690Z","","","","","","","","","","","ControlQ","","50","","","","","","","","","","","","","","","","","","","","","","","","","","","","",""
"2899","","<div style=""width:500px;"">
  <p>How would you describe your current emotional state?</p>
  </div>","71","html-slider-response","57","2835824","0.0-5.0-3.9","256","1","2025-07-30 08:38:03","1f75c3e559b7213887762d5229550c2b","41.122.150.140","Mozilla/5.0 (Macintosh; Intel Mac OS X 10_15_7) AppleWebKit/537.36 (KHTML, like Gecko) Chrome/128.0.0.0 Safari/537.36","Macintosh","Chrome","128.0.0.0","OS X","10_15_7","https://app.prolific.com/","en-GB,en-US;q=0.9,en;q=0.8","6780db9dafd89add339abb6b","6877631c9844ddd5501205fc","6889d9de2f18e761905896e6","3","1","6780db9dafd89add339abb6b","3","1","2025-07-30T09:25:25.591Z","","","","","","","","","","","StressQ","","50","","","","","","","","","","","","","","","","","","","","","","","","","","","","",""
"16555","","<div style=""width:500px;"">
  <p>What best describes how you currently feel?</p>
  </div>","28","html-slider-response","58","2852383","0.0-5.0-4.9","256","1","2025-07-30 08:38:03","1f75c3e559b7213887762d5229550c2b","41.122.150.140","Mozilla/5.0 (Macintosh; Intel Mac OS X 10_15_7) AppleWebKit/537.36 (KHTML, like Gecko) Chrome/128.0.0.0 Safari/537.36","Macintosh","Chrome","128.0.0.0","OS X","10_15_7","https://app.prolific.com/","en-GB,en-US;q=0.9,en;q=0.8","6780db9dafd89add339abb6b","6877631c9844ddd5501205fc","6889d9de2f18e761905896e6","3","1","6780db9dafd89add339abb6b","3","1","2025-07-30T09:25:42.149Z","","","","","","","","","","","MotivationQ","","50","","","","","","","","","","","","","","","","","","","","","","","","","","","","",""
"","","","","ctl-task-cpt","59","2906672","0.0-5.0-0.10","256","1","2025-07-30 08:38:03","1f75c3e559b7213887762d5229550c2b","41.122.150.140","Mozilla/5.0 (Macintosh; Intel Mac OS X 10_15_7) AppleWebKit/537.36 (KHTML, like Gecko) Chrome/128.0.0.0 Safari/537.36","Macintosh","Chrome","128.0.0.0","OS X","10_15_7","https://app.prolific.com/","en-GB,en-US;q=0.9,en;q=0.8","6780db9dafd89add339abb6b","6877631c9844ddd5501205fc","6889d9de2f18e761905896e6","3","1","6780db9dafd89add339abb6b","3","1","2025-07-30T09:26:36.438Z","","","","","","","","","","","","","","win-only","1","g1:NE,g2:SW","0.5","11","0","2860716.2","1497.9","6509","51260.9","1","4","4","6","2","4","4","48","44","0.36363636363636365","985.2","3000","1770","[""down"",""left""]","{""num_key_presses"":8,""num_perfect"":5,""num_errors"":0,""num_randdir"":3,""num_randdir_good_moves"":2,""num_whilered"":0,""num_whileblue"":0,""num_blue"":5,""num_good_moves"":7}","[345.542862291847,346.55848730698096,0.5,345.542862291847,346.55848730698096,109.7,345.542862291847,346.55848730698096,217.6,347.14286231568883,354.55848742619025,318.9,357.5428624706609,394.5584880222367,426.4,216.74286037257738,535.3584901203202,532.1,207.14286022952624,568.1584906090783,637.4,137.54285919240542,612.9584912766503,744.1,105.54285871556826,613.7584912885712,860,95.94285857251711,618.5584913600968,960,96.74285858443804,618.5584913600968,1079.8,96.74285858443804,618.5584913600968,1191.7,96.74285858443804,612.1584912647294,1308.4,99.94285863212176,606.5584911812829,1415.2,99.94285863212176,606.5584911812829,1516.2,99.94285863212176,606.5584911812829,1632,99.94285863212176,606.5584911812829,1738.3,99.94285863212176,606.5584911812829,1845.7,99.94285863212176,606.5584911812829,1952.5,99.94285863212176,606.5584911812829,2064.5,99.94285863212176,606.5584911812829,2180.2,99.94285863212176,606.5584911812829,2336,99.94285863212176,606.5584911812829,2461.8,99.94285863212176,606.5584911812829,2581.2,99.94285863212176,606.5584911812829,2690,99.94285863212176,606.5584911812829,2809.9,99.94285863212176,606.5584911812829,2911,99.94285863212176,606.5584911812829,3035.1,99.94285863212176,606.5584911812829,3143.3,99.94285863212176,606.5584911812829,3250.7,99.94285863212176,606.5584911812829,3369.2,99.94285863212176,606.5584911812829,3477.5,99.94285863212176,606.5584911812829,3589.2,99.94285863212176,606.5584911812829,3699.7,99.94285863212176,606.5584911812829,3800.7,99.94285863212176,606.5584911812829,3910.9,99.94285863212176,606.5584911812829,4017.4,99.94285863212176,606.5584911812829,4120.3,99.94285863212176,606.5584911812829,4230.5,99.94285863212176,606.5584911812829,4333.3,99.94285863212176,606.5584911812829,4441.5,99.94285863212176,606.5584911812829,4552.6,99.94285863212176,606.5584911812829,4652.6,99.94285863212176,606.5584911812829,4765.2,99.94285863212176,606.5584911812829,4875.3,99.94285863212176,606.5584911812829,4986.8]","[1497.4,1497.5,1000,0,497.5,""smooth"",""left"",""left"",""good_move"",14835.3,13337.2,2705.6,11216.8,912.9,""oops"",""left"",""right"",""bad_move"",24820.8,9984.9,2967.8,21383.5,469.5,""smooth"",""left"",""left"",""good_move"",31339.2,6517.4,2414.9,28359.5,564.9,""oops"",""left"",""left"",""good_move"",34503.6,3162.5,2636.2,31341.1,526.3,""smooth"",""left"",""left"",""good_move"",38151.8,3647.2,3073.1,34504.6,574.1,""smooth"",""down"",""down"",""good_move"",41122.1,2947.3,2308.7,38174.8,638.6,""smooth"",""down"",""down"",""good_move"",44356.5,3210.5,2611.1,41146,599.4,""oops"",""down"",""down"",""good_move""]","",""
"34647","","<div style=""width:500px;"">
  <p>What determined the result of this run?</p>
  </div>","67","html-slider-response","60","2941322","0.0-5.0-1.10","256","1","2025-07-30 08:38:03","1f75c3e559b7213887762d5229550c2b","41.122.150.140","Mozilla/5.0 (Macintosh; Intel Mac OS X 10_15_7) AppleWebKit/537.36 (KHTML, like Gecko) Chrome/128.0.0.0 Safari/537.36","Macintosh","Chrome","128.0.0.0","OS X","10_15_7","https://app.prolific.com/","en-GB,en-US;q=0.9,en;q=0.8","6780db9dafd89add339abb6b","6877631c9844ddd5501205fc","6889d9de2f18e761905896e6","3","1","6780db9dafd89add339abb6b","3","1","2025-07-30T09:27:11.088Z","","","","","","","","","","","AttribQ","","50","","","","","","","","","","","","","","","","","","","","","","","","","","","","",""
"2991","","<div style=""width:500px;"">
  <p>How much control did you have over the ball?</p>
  </div>","60","html-slider-response","61","2944315","0.0-5.0-2.10","256","1","2025-07-30 08:38:03","1f75c3e559b7213887762d5229550c2b","41.122.150.140","Mozilla/5.0 (Macintosh; Intel Mac OS X 10_15_7) AppleWebKit/537.36 (KHTML, like Gecko) Chrome/128.0.0.0 Safari/537.36","Macintosh","Chrome","128.0.0.0","OS X","10_15_7","https://app.prolific.com/","en-GB,en-US;q=0.9,en;q=0.8","6780db9dafd89add339abb6b","6877631c9844ddd5501205fc","6889d9de2f18e761905896e6","3","1","6780db9dafd89add339abb6b","3","1","2025-07-30T09:27:14.081Z","","","","","","","","","","","ControlQ","","50","","","","","","","","","","","","","","","","","","","","","","","","","","","","",""
"2924","","<div style=""width:500px;"">
  <p>How would you describe your current emotional state?</p>
  </div>","44","html-slider-response","62","2947241","0.0-5.0-3.10","256","1","2025-07-30 08:38:03","1f75c3e559b7213887762d5229550c2b","41.122.150.140","Mozilla/5.0 (Macintosh; Intel Mac OS X 10_15_7) AppleWebKit/537.36 (KHTML, like Gecko) Chrome/128.0.0.0 Safari/537.36","Macintosh","Chrome","128.0.0.0","OS X","10_15_7","https://app.prolific.com/","en-GB,en-US;q=0.9,en;q=0.8","6780db9dafd89add339abb6b","6877631c9844ddd5501205fc","6889d9de2f18e761905896e6","3","1","6780db9dafd89add339abb6b","3","1","2025-07-30T09:27:17.007Z","","","","","","","","","","","StressQ","","50","","","","","","","","","","","","","","","","","","","","","","","","","","","","",""
"2108","","<div style=""width:500px;"">
  <p>What best describes how you currently feel?</p>
  </div>","61","html-slider-response","63","2949350","0.0-5.0-4.10","256","1","2025-07-30 08:38:03","1f75c3e559b7213887762d5229550c2b","41.122.150.140","Mozilla/5.0 (Macintosh; Intel Mac OS X 10_15_7) AppleWebKit/537.36 (KHTML, like Gecko) Chrome/128.0.0.0 Safari/537.36","Macintosh","Chrome","128.0.0.0","OS X","10_15_7","https://app.prolific.com/","en-GB,en-US;q=0.9,en;q=0.8","6780db9dafd89add339abb6b","6877631c9844ddd5501205fc","6889d9de2f18e761905896e6","3","1","6780db9dafd89add339abb6b","3","1","2025-07-30T09:27:19.117Z","","","","","","","","","","","MotivationQ","","50","","","","","","","","","","","","","","","","","","","","","","","","","","","","",""
"","","","","ctl-task-cpt","64","3014396","0.0-5.0-0.11","256","1","2025-07-30 08:38:03","1f75c3e559b7213887762d5229550c2b","41.122.150.140","Mozilla/5.0 (Macintosh; Intel Mac OS X 10_15_7) AppleWebKit/537.36 (KHTML, like Gecko) Chrome/128.0.0.0 Safari/537.36","Macintosh","Chrome","128.0.0.0","OS X","10_15_7","https://app.prolific.com/","en-GB,en-US;q=0.9,en;q=0.8","6780db9dafd89add339abb6b","6877631c9844ddd5501205fc","6889d9de2f18e761905896e6","3","1","6780db9dafd89add339abb6b","3","1","2025-07-30T09:28:24.162Z","","","","","","","","","","","","","","win-only","2","g1:SE,g2:NW","0.6","12","0","2957680.6","977.3","5986.8","62016.5","1","4","8","6","2","8","8","56","48","0.42424242424242425","1238.8","3000","1615","[""left"",""up""]","{""num_key_presses"":10,""num_perfect"":6,""num_errors"":0,""num_randdir"":4,""num_randdir_good_moves"":3,""num_whilered"":0,""num_whileblue"":0,""num_blue"":6,""num_good_moves"":8}","[343.9428622680051,357.75848747387397,1.8,343.9428622680051,357.75848747387397,107.9,346.3428623037679,360.15848750963676,222.6,403.9428631620748,425.75848848715293,331,610.3428662376745,509.75848973885047,455.7,717.5428678350789,467.35848910704124,556.6,807.9428691821439,291.35848648443687,676.9,250.3428608732564,2.5584821809814926,841.3,144.74285929969378,-25.44151823625102,944.6,107.14285873941012,8.158482264427995,1046.9,78.34285831025667,31.358482610134935,1147.2,75.94285827449389,33.75848264589772,1250.5,75.94285827449389,33.75848264589772,1357.3,73.5428582387311,39.358482729344225,1466.4,73.5428582387311,39.358482729344225,1570.5,73.5428582387311,39.358482729344225,1673.2,73.5428582387311,39.358482729344225,1774.9,73.5428582387311,39.358482729344225,1888.7,73.5428582387311,39.358482729344225,1994.6,73.5428582387311,39.358482729344225,2107.3,73.5428582387311,39.358482729344225,2215,73.5428582387311,39.358482729344225,2330,73.5428582387311,39.358482729344225,2440.2,73.5428582387311,39.358482729344225,2552.3,73.5428582387311,39.358482729344225,2662.6,73.5428582387311,39.358482729344225,2776.2,73.5428582387311,39.358482729344225,2884.9,73.5428582387311,39.358482729344225,2990.9,73.5428582387311,39.358482729344225,3096.1,73.5428582387311,39.358482729344225,3207.5,73.5428582387311,39.358482729344225,3313.3,73.5428582387311,39.358482729344225,3429.6,73.5428582387311,39.358482729344225,3534.7,73.5428582387311,39.358482729344225,3637,73.5428582387311,39.358482729344225,3742.8,73.5428582387311,39.358482729344225,3855.4,73.5428582387311,39.358482729344225,3958.6,73.5428582387311,39.358482729344225,4073.9,73.5428582387311,39.358482729344225,4175.9,73.5428582387311,39.358482729344225,4279.1,73.5428582387311,39.358482729344225,4390.6,73.5428582387311,39.358482729344225,4492.2,73.5428582387311,39.358482729344225,4597.3,73.5428582387311,39.358482729344225,4698.7,73.5428582387311,39.358482729344225,4805.2,73.5428582387311,39.358482729344225,4919.5]","[8252.4,8252.4,2172,5524.3,556.1,""smooth"",""left"",""left"",""good_move"",18694.1,10440.4,2566.2,15654.1,473.8,""oops"",""left"",""left"",""good_move"",25844.2,7150,2634.1,22658.4,551.7,""smooth"",""left"",""left"",""good_move"",28794,2949,2093.7,25845,855.3,""oops"",""up"",""up"",""good_move"",35931.3,7136.1,3035.7,32391,504.6,""smooth"",""up"",""up"",""good_move"",40111.4,4166.3,2355.9,35945.1,1810.4,""oops"",""up"",""down"",""bad_move"",42511.7,2399.4,1757.1,40112.3,642.3,""smooth"",""right"",""right"",""bad_move"",45643.3,3129.7,2494,42513.7,635.6,""smooth"",""up"",""up"",""good_move"",51642.3,5998.6,2084.1,45643.8,3914.4,""smooth"",""up"",""up"",""good_move"",55519.7,3876.4,2088.1,51643.4,1788.2,""oops"",""left"",""left"",""good_move""]","",""
"5919","","<div style=""width:500px;"">
  <p>What determined the result of this run?</p>
  </div>","59","html-slider-response","65","3020317","0.0-5.0-1.11","256","1","2025-07-30 08:38:03","1f75c3e559b7213887762d5229550c2b","41.122.150.140","Mozilla/5.0 (Macintosh; Intel Mac OS X 10_15_7) AppleWebKit/537.36 (KHTML, like Gecko) Chrome/128.0.0.0 Safari/537.36","Macintosh","Chrome","128.0.0.0","OS X","10_15_7","https://app.prolific.com/","en-GB,en-US;q=0.9,en;q=0.8","6780db9dafd89add339abb6b","6877631c9844ddd5501205fc","6889d9de2f18e761905896e6","3","1","6780db9dafd89add339abb6b","3","1","2025-07-30T09:28:30.083Z","","","","","","","","","","","AttribQ","","50","","","","","","","","","","","","","","","","","","","","","","","","","","","","",""
"1997","","<div style=""width:500px;"">
  <p>How much control did you have over the ball?</p>
  </div>","53","html-slider-response","66","3022318","0.0-5.0-2.11","256","1","2025-07-30 08:38:03","1f75c3e559b7213887762d5229550c2b","41.122.150.140","Mozilla/5.0 (Macintosh; Intel Mac OS X 10_15_7) AppleWebKit/537.36 (KHTML, like Gecko) Chrome/128.0.0.0 Safari/537.36","Macintosh","Chrome","128.0.0.0","OS X","10_15_7","https://app.prolific.com/","en-GB,en-US;q=0.9,en;q=0.8","6780db9dafd89add339abb6b","6877631c9844ddd5501205fc","6889d9de2f18e761905896e6","3","1","6780db9dafd89add339abb6b","3","1","2025-07-30T09:28:32.084Z","","","","","","","","","","","ControlQ","","50","","","","","","","","","","","","","","","","","","","","","","","","","","","","",""
"2354","","<div style=""width:500px;"">
  <p>How would you describe your current emotional state?</p>
  </div>","40","html-slider-response","67","3024676","0.0-5.0-3.11","256","1","2025-07-30 08:38:03","1f75c3e559b7213887762d5229550c2b","41.122.150.140","Mozilla/5.0 (Macintosh; Intel Mac OS X 10_15_7) AppleWebKit/537.36 (KHTML, like Gecko) Chrome/128.0.0.0 Safari/537.36","Macintosh","Chrome","128.0.0.0","OS X","10_15_7","https://app.prolific.com/","en-GB,en-US;q=0.9,en;q=0.8","6780db9dafd89add339abb6b","6877631c9844ddd5501205fc","6889d9de2f18e761905896e6","3","1","6780db9dafd89add339abb6b","3","1","2025-07-30T09:28:34.442Z","","","","","","","","","","","StressQ","","50","","","","","","","","","","","","","","","","","","","","","","","","","","","","",""
"1854","","<div style=""width:500px;"">
  <p>What best describes how you currently feel?</p>
  </div>","59","html-slider-response","68","3026537","0.0-5.0-4.11","256","1","2025-07-30 08:38:03","1f75c3e559b7213887762d5229550c2b","41.122.150.140","Mozilla/5.0 (Macintosh; Intel Mac OS X 10_15_7) AppleWebKit/537.36 (KHTML, like Gecko) Chrome/128.0.0.0 Safari/537.36","Macintosh","Chrome","128.0.0.0","OS X","10_15_7","https://app.prolific.com/","en-GB,en-US;q=0.9,en;q=0.8","6780db9dafd89add339abb6b","6877631c9844ddd5501205fc","6889d9de2f18e761905896e6","3","1","6780db9dafd89add339abb6b","3","1","2025-07-30T09:28:36.304Z","","","","","","","","","","","MotivationQ","","50","","","","","","","","","","","","","","","","","","","","","","","","","","","","",""
"","","","","ctl-task-cpt","69","3097217","0.0-5.0-0.12","256","1","2025-07-30 08:38:03","1f75c3e559b7213887762d5229550c2b","41.122.150.140","Mozilla/5.0 (Macintosh; Intel Mac OS X 10_15_7) AppleWebKit/537.36 (KHTML, like Gecko) Chrome/128.0.0.0 Safari/537.36","Macintosh","Chrome","128.0.0.0","OS X","10_15_7","https://app.prolific.com/","en-GB,en-US;q=0.9,en;q=0.8","6780db9dafd89add339abb6b","6877631c9844ddd5501205fc","6889d9de2f18e761905896e6","3","1","6780db9dafd89add339abb6b","3","1","2025-07-30T09:29:46.984Z","","","","","","","","","","","","","","win-only","3","g1:SW,g2:NE","0.7","13","0","3034886.4","789.6","5793.7","67630.6","1","4","4","6","2","4","4","60","56","0.45454545454545453","1278.3","3000","975","[""up"",""right""]","{""num_key_presses"":16,""num_perfect"":11,""num_errors"":0,""num_randdir"":5,""num_randdir_good_moves"":1,""num_whilered"":0,""num_whileblue"":0,""num_blue"":2,""num_good_moves"":11}","[349.5428623514516,348.95848734274375,1.4,349.5428623514516,348.95848734274375,102.3,354.3428624229772,351.35848737850654,222.2,404.7428631739957,385.7584878911065,327.7,355.1428624348981,462.55848903551566,443.6,260.7428610282285,473.75848920240867,562.4,396.7428630547864,343.35848725929725,664.3,517.5428648548467,250.55848587646946,768.5,615.942866321121,165.758484612851,885.8,618.3428663568837,128.15848405256733,994.1,623.1428664284093,108.15848375454411,1104.3,627.9428664999349,76.95848328962788,1225.3,627.9428664999349,76.95848328962788,1337.2,632.7428665714605,133.75848413601383,1467.4,614.3428662972791,211.35848529234394,1569.6,614.3428662972791,211.35848529234394,1686.9,614.3428662972791,211.35848529234394,1804.4,614.3428662972791,211.35848529234394,1904.6,614.3428662972791,211.35848529234394,2010.8,614.3428662972791,211.35848529234394,2124.5,614.3428662972791,211.35848529234394,2226.8,614.3428662972791,211.35848529234394,2332.8,614.3428662972791,211.35848529234394,2441.2,614.3428662972791,211.35848529234394,2547.4,614.3428662972791,211.35848529234394,2660.4,614.3428662972791,211.35848529234394,2782.2,614.3428662972791,211.35848529234394,2896.5,614.3428662972791,211.35848529234394,3017.3,614.3428662972791,211.35848529234394,3147.2,614.3428662972791,211.35848529234394,3264.4,614.3428662972791,211.35848529234394,3391.9,614.3428662972791,211.35848529234394,3499.8,614.3428662972791,211.35848529234394,3601.5,614.3428662972791,211.35848529234394,3729.8,614.3428662972791,211.35848529234394,3841.9,614.3428662972791,211.35848529234394,3953.3,614.3428662972791,211.35848529234394,4057.5,614.3428662972791,211.35848529234394,4177.2,614.3428662972791,211.35848529234394,4285.8,614.3428662972791,211.35848529234394,4409.3,614.3428662972791,211.35848529234394,4526.1,614.3428662972791,211.35848529234394,4639.2,614.3428662972791,211.35848529234394,4747.8,614.3428662972791,211.35848529234394,4872,614.3428662972791,211.35848529234394,4982.7]","[5053.5,5053.5,2178.7,2012.3,862.5,""oops"",""right"",""left"",""bad_move"",11755.3,6686.9,2981.4,5068.4,3705.5,""smooth"",""right"",""right"",""good_move"",14273.6,2505.9,1916.1,11767.7,589.8,""smooth"",""right"",""right"",""good_move"",16828.3,2551.7,2102.5,14276.8,449,""smooth"",""right"",""right"",""good_move"",20102,3272.7,2852.6,16829.3,420.3,""smooth"",""right"",""right"",""good_move"",22875,2772.2,2395.8,20102.8,376.4,""smooth"",""up"",""up"",""good_move"",29894.2,7017.1,2577.1,26732.4,584.7,""smooth"",""up"",""up"",""good_move"",33560.7,3665.2,2297.4,29895.5,1367.8,""oops"",""up"",""down"",""bad_move"",36256.3,2694.9,2181.1,33561.4,513.8,""smooth"",""left"",""left"",""bad_move"",41355.1,5098.2,2171.6,36256.9,2926.6,""oops"",""up"",""left"",""bad_move"",46174.6,4818.9,2598.6,41355.8,2220.2,""smooth"",""right"",""right"",""good_move"",48718.7,2543.4,2087.2,46175.3,456.2,""smooth"",""up"",""up"",""good_move"",52058.8,3339.6,2289.5,48719.2,1050.1,""oops"",""up"",""up"",""good_move"",55527,3467.7,3007.6,52059.3,460.1,""oops"",""right"",""down"",""bad_move"",58165.9,2638.2,2004.4,55527.7,633.8,""smooth"",""up"",""up"",""good_move"",61494.4,3328,2709.7,58166.4,618.3,""smooth"",""right"",""right"",""good_move""]","",""
"40238","","<div style=""width:500px;"">
  <p>What determined the result of this run?</p>
  </div>","68","html-slider-response","70","3137460","0.0-5.0-1.12","256","1","2025-07-30 08:38:03","1f75c3e559b7213887762d5229550c2b","41.122.150.140","Mozilla/5.0 (Macintosh; Intel Mac OS X 10_15_7) AppleWebKit/537.36 (KHTML, like Gecko) Chrome/128.0.0.0 Safari/537.36","Macintosh","Chrome","128.0.0.0","OS X","10_15_7","https://app.prolific.com/","en-GB,en-US;q=0.9,en;q=0.8","6780db9dafd89add339abb6b","6877631c9844ddd5501205fc","6889d9de2f18e761905896e6","3","1","6780db9dafd89add339abb6b","3","1","2025-07-30T09:30:27.226Z","","","","","","","","","","","AttribQ","","50","","","","","","","","","","","","","","","","","","","","","","","","","","","","",""
"1644","","<div style=""width:500px;"">
  <p>How much control did you have over the ball?</p>
  </div>","39","html-slider-response","71","3139106","0.0-5.0-2.12","256","1","2025-07-30 08:38:03","1f75c3e559b7213887762d5229550c2b","41.122.150.140","Mozilla/5.0 (Macintosh; Intel Mac OS X 10_15_7) AppleWebKit/537.36 (KHTML, like Gecko) Chrome/128.0.0.0 Safari/537.36","Macintosh","Chrome","128.0.0.0","OS X","10_15_7","https://app.prolific.com/","en-GB,en-US;q=0.9,en;q=0.8","6780db9dafd89add339abb6b","6877631c9844ddd5501205fc","6889d9de2f18e761905896e6","3","1","6780db9dafd89add339abb6b","3","1","2025-07-30T09:30:28.872Z","","","","","","","","","","","ControlQ","","50","","","","","","","","","","","","","","","","","","","","","","","","","","","","",""
"3049","","<div style=""width:500px;"">
  <p>How would you describe your current emotional state?</p>
  </div>","41","html-slider-response","72","3142157","0.0-5.0-3.12","256","1","2025-07-30 08:38:03","1f75c3e559b7213887762d5229550c2b","41.122.150.140","Mozilla/5.0 (Macintosh; Intel Mac OS X 10_15_7) AppleWebKit/537.36 (KHTML, like Gecko) Chrome/128.0.0.0 Safari/537.36","Macintosh","Chrome","128.0.0.0","OS X","10_15_7","https://app.prolific.com/","en-GB,en-US;q=0.9,en;q=0.8","6780db9dafd89add339abb6b","6877631c9844ddd5501205fc","6889d9de2f18e761905896e6","3","1","6780db9dafd89add339abb6b","3","1","2025-07-30T09:30:31.924Z","","","","","","","","","","","StressQ","","50","","","","","","","","","","","","","","","","","","","","","","","","","","","","",""
"1498","","<div style=""width:500px;"">
  <p>What best describes how you currently feel?</p>
  </div>","65","html-slider-response","73","3143666","0.0-5.0-4.12","256","1","2025-07-30 08:38:03","1f75c3e559b7213887762d5229550c2b","41.122.150.140","Mozilla/5.0 (Macintosh; Intel Mac OS X 10_15_7) AppleWebKit/537.36 (KHTML, like Gecko) Chrome/128.0.0.0 Safari/537.36","Macintosh","Chrome","128.0.0.0","OS X","10_15_7","https://app.prolific.com/","en-GB,en-US;q=0.9,en;q=0.8","6780db9dafd89add339abb6b","6877631c9844ddd5501205fc","6889d9de2f18e761905896e6","3","1","6780db9dafd89add339abb6b","3","1","2025-07-30T09:30:33.432Z","","","","","","","","","","","MotivationQ","","50","","","","","","","","","","","","","","","","","","","","","","","","","","","","",""
