"rt","response_timestamp","stimulus","response","trial_type","trial_index","time_elapsed","internal_node_id","run_id","condition","recorded_at","source_code_version","ip","user_agent","device","browser","browser_version","platform","platform_version","referer","accept_language","PROLIFIC_PID","STUDY_ID","SESSION_ID","WEEK","BATCH","prolific_id","week","batch","realtime","success","responses","item_order","radio_event_ids","radio_event_times","key_event_times","mouse_event_times","straightlining","zigzagging","honeypot","eventType","view_history","slider_start","which_type","canvas_config","goals_layout","control_level","trial_number","tutorial_trial_number","trial_start_time","phase1_start_time","phase2_start_time","phase3_start_time","goal_1_value","goal_1_distance","goal_2_value","goal_2_distance","goal_selected","outcome","outcome_total","participant_final_score","participant_initial_score","participant_final_score_prop","goal_choice_rt","allocated_time","allocated_time_remaining","goal_direction","counts","mouse_movements","key_presses","question_order","question_id"
"3146","1753865020031","<p style='font-size:40px;line-height:1.25'><strong>Welcome to the experiment!</strong></p><p style='font-size:1.1em;line-height:1.25'>Thank you for participanting in our experiment again! You will be asked to play the Dysfunctional Ball Game again. We will briefly recap the rules before we start.</p><p style='font-size:1.1em;line-height:1.25'>Press <strong>Next</strong> to continue.</p>","0","custom-html-button-response","0","3149","0.0-0.0","265","1","2025-07-30 08:43:34","1f75c3e559b7213887762d5229550c2b","173.21.92.193","Mozilla/5.0 (Windows NT 10.0; Win64; x64) AppleWebKit/537.36 (KHTML, like Gecko) Chrome/138.0.0.0 Safari/537.36","WebKit","Chrome","138.0.0.0","Windows","10.0","https://app.prolific.com/","en-US,en;q=0.9","66f4c82536b5c8271f53564c","6877631c9844ddd5501205fc","6889dadbbdce7c64fe1cc2e4","3","1","66f4c82536b5c8271f53564c","3","1","2025-07-30T08:43:40.032Z","","","","","","","","","","","","","","","","","","","","","","","","","","","","","","","","","","","","","","","","","",""
"31579","","","","fullscreen","1","35743","0.0-1.0","265","1","2025-07-30 08:43:34","1f75c3e559b7213887762d5229550c2b","173.21.92.193","Mozilla/5.0 (Windows NT 10.0; Win64; x64) AppleWebKit/537.36 (KHTML, like Gecko) Chrome/138.0.0.0 Safari/537.36","WebKit","Chrome","138.0.0.0","Windows","10.0","https://app.prolific.com/","en-US,en;q=0.9","66f4c82536b5c8271f53564c","6877631c9844ddd5501205fc","6889dadbbdce7c64fe1cc2e4","3","1","66f4c82536b5c8271f53564c","3","1","","true","","","","","","","","","","","","","","","","","","","","","","","","","","","","","","","","","","","","","","","","",""
"1619","1753865054245","<p style='font-size:1.1em;line-height:1.25'>In the following, we will ask you a few questions relating to your feelings in the last 24 hours.<br></p><p style='font-size:1.1em;line-height:1.25'>Press the <strong>Next</strong> button to continue.</p>","0","custom-html-button-response","2","37362","0.0-2.0-0.0","265","1","2025-07-30 08:43:34","1f75c3e559b7213887762d5229550c2b","173.21.92.193","Mozilla/5.0 (Windows NT 10.0; Win64; x64) AppleWebKit/537.36 (KHTML, like Gecko) Chrome/138.0.0.0 Safari/537.36","WebKit","Chrome","138.0.0.0","Windows","10.0","https://app.prolific.com/","en-US,en;q=0.9","66f4c82536b5c8271f53564c","6877631c9844ddd5501205fc","6889dadbbdce7c64fe1cc2e4","3","1","66f4c82536b5c8271f53564c","3","1","2025-07-30T08:44:14.246Z","","","","","","","","","","","","","","","","","","","","","","","","","","","","","","","","","","","","","","","","","",""
"69546.59999999776","","","","survey-template","3","106913","0.0-2.0-1.0","265","1","2025-07-30 08:43:34","1f75c3e559b7213887762d5229550c2b","173.21.92.193","Mozilla/5.0 (Windows NT 10.0; Win64; x64) AppleWebKit/537.36 (KHTML, like Gecko) Chrome/138.0.0.0 Safari/537.36","WebKit","Chrome","138.0.0.0","Windows","10.0","https://app.prolific.com/","en-US,en;q=0.9","66f4c82536b5c8271f53564c","6877631c9844ddd5501205fc","6889dadbbdce7c64fe1cc2e4","3","1","66f4c82536b5c8271f53564c","3","1","2025-07-30T08:45:23.797Z","","{""Q01"":""5"",""Q02"":""5"",""Q03"":""5"",""Q04"":""5"",""Q05"":""5"",""Q06"":""5"",""Q07"":""5"",""Q08"":""5"",""Q09"":""5"",""Q10"":""5"",""Q11"":""5"",""Q12"":""4"",""Q13"":""5"",""Q14"":""3"",""Q15"":""5"",""Q16"":""0"",""Q17"":""5"",""Q18"":""5"",""Q19"":""3"",""Q20"":""5"",""Q21"":""5"",""Q22"":""5""}","[0,1,2,3,4,5,6,7,8,9,10,11,12,13,14,15,16,17,18,19,20,21]","[""Q01"",""Q02"",""Q03"",""Q04"",""Q04"",""Q04"",""Q05"",""Q06"",""Q07"",""Q08"",""Q09"",""Q10"",""Q11"",""Q12"",""Q13"",""Q12"",""Q14"",""Q15"",""Q16"",""Q17"",""Q18"",""Q19"",""Q20"",""Q20"",""Q21"",""Q22""]","[6679.599999997765,9181.800000000745,11010.5,13697.099999997765,16430.099999997765,17949.39999999851,21997.699999999255,23315.39999999851,25244.800000000745,28554.89999999851,30631.800000000745,31775.39999999851,32727.5,33851.89999999851,35132.39999999851,36217.699999999255,39738.39999999851,41824.699999999255,45112.5,47164.300000000745,48710.5,52161.800000000745,59467.199999999255,64425.89999999851,65271.099999997765,66212.30000000075]","[]","[0.19999999925494194,3529.699999999255,5531.89999999851,6679.599999997765,7981,9181.800000000745,11010.5,13697.099999997765,14965.5,16430.099999997765,17949.39999999851,20013.5,21997.699999999255,23315.39999999851,25244.800000000745,28554.89999999851,30631.800000000745,31775.39999999851,32727.5,33851.89999999851,35132.39999999851,36217.699999999255,39738.39999999851,41824.699999999255,45112.5,47164.300000000745,48710.5,52161.800000000745,57069.699999999255,59467.199999999255,64425.89999999851,65271.099999997765,66212.30000000075,69540.5]","0.8181818181818182","0.19047619047619047","0","drsp","","","","","","","","","","","","","","","","","","","","","","","","","","","","","","",""
"7367","","","","survey-template","4","114282","0.0-2.0-2.0","265","1","2025-07-30 08:43:34","1f75c3e559b7213887762d5229550c2b","173.21.92.193","Mozilla/5.0 (Windows NT 10.0; Win64; x64) AppleWebKit/537.36 (KHTML, like Gecko) Chrome/138.0.0.0 Safari/537.36","WebKit","Chrome","138.0.0.0","Windows","10.0","https://app.prolific.com/","en-US,en;q=0.9","66f4c82536b5c8271f53564c","6877631c9844ddd5501205fc","6889dadbbdce7c64fe1cc2e4","3","1","66f4c82536b5c8271f53564c","3","1","2025-07-30T08:45:31.165Z","","{""Q01"":""5"",""Q02"":""5"",""Q03"":""5""}","[0,1,2]","[""Q02"",""Q01"",""Q03""]","[4087.300000000745,4964.60000000149,6585.300000000745]","[]","[2491.699999999255,4087.300000000745,4964.60000000149,6585.300000000745,7366.5]","0.6666666666666666","1","0","stress","","","","","","","","","","","","","","","","","","","","","","","","","","","","","","",""
"20810","","","","instructions","5","135093","0.0-3.0-0.0","265","1","2025-07-30 08:43:34","1f75c3e559b7213887762d5229550c2b","173.21.92.193","Mozilla/5.0 (Windows NT 10.0; Win64; x64) AppleWebKit/537.36 (KHTML, like Gecko) Chrome/138.0.0.0 Safari/537.36","WebKit","Chrome","138.0.0.0","Windows","10.0","https://app.prolific.com/","en-US,en;q=0.9","66f4c82536b5c8271f53564c","6877631c9844ddd5501205fc","6889dadbbdce7c64fe1cc2e4","3","1","66f4c82536b5c8271f53564c","3","1","","","","","","","","","","","","","[{""page_index"":0,""viewing_time"":20810}]","","","","","","","","","","","","","","","","","","","","","","","","","","","","","",""
"7051","","<p>Before you start with this game please answer the following three questions yourself. </p>
  <p>Through this game, we measure several aspects of your cognitive performance, such as reaction times, multi-tasking capabilities </p>
  <p>and the ability to assess the situation you are in.</p>
  <p></p>
  <p><b>How good do you usually are in such tasks?</b></p>","0","html-slider-response","6","142148","0.0-4.0-0.0","265","1","2025-07-30 08:43:34","1f75c3e559b7213887762d5229550c2b","173.21.92.193","Mozilla/5.0 (Windows NT 10.0; Win64; x64) AppleWebKit/537.36 (KHTML, like Gecko) Chrome/138.0.0.0 Safari/537.36","WebKit","Chrome","138.0.0.0","Windows","10.0","https://app.prolific.com/","en-US,en;q=0.9","66f4c82536b5c8271f53564c","6877631c9844ddd5501205fc","6889dadbbdce7c64fe1cc2e4","3","1","66f4c82536b5c8271f53564c","3","1","2025-07-30T08:45:59.031Z","","","","","","","","","","","PreSkillQ","","50","","","","","","","","","","","","","","","","","","","","","","","","","","","","",""
"4929","","<div style=""width:500px;"">
  <p>How well do you think you will perform in this task compared to other participants?</p>
  </div>","0","html-slider-response","7","147078","0.0-4.0-1.0","265","1","2025-07-30 08:43:34","1f75c3e559b7213887762d5229550c2b","173.21.92.193","Mozilla/5.0 (Windows NT 10.0; Win64; x64) AppleWebKit/537.36 (KHTML, like Gecko) Chrome/138.0.0.0 Safari/537.36","WebKit","Chrome","138.0.0.0","Windows","10.0","https://app.prolific.com/","en-US,en;q=0.9","66f4c82536b5c8271f53564c","6877631c9844ddd5501205fc","6889dadbbdce7c64fe1cc2e4","3","1","66f4c82536b5c8271f53564c","3","1","2025-07-30T08:46:03.961Z","","","","","","","","","","","PrePerfQ","","50","","","","","","","","","","","","","","","","","","","","","","","","","","","","",""
"7779","","<div style=""width:500px;"">
  <p>What best describes how you currently feel?</p>
  </div>","0","html-slider-response","8","154857","0.0-4.0-2.0","265","1","2025-07-30 08:43:34","1f75c3e559b7213887762d5229550c2b","173.21.92.193","Mozilla/5.0 (Windows NT 10.0; Win64; x64) AppleWebKit/537.36 (KHTML, like Gecko) Chrome/138.0.0.0 Safari/537.36","WebKit","Chrome","138.0.0.0","Windows","10.0","https://app.prolific.com/","en-US,en;q=0.9","66f4c82536b5c8271f53564c","6877631c9844ddd5501205fc","6889dadbbdce7c64fe1cc2e4","3","1","66f4c82536b5c8271f53564c","3","1","2025-07-30T08:46:11.740Z","","","","","","","","","","","PreMotivationQ","","50","","","","","","","","","","","","","","","","","","","","","","","","","","","","",""
"","","","","ctl-task-cpt","9","183586","0.0-5.0-0.0","265","1","2025-07-30 08:43:34","1f75c3e559b7213887762d5229550c2b","173.21.92.193","Mozilla/5.0 (Windows NT 10.0; Win64; x64) AppleWebKit/537.36 (KHTML, like Gecko) Chrome/138.0.0.0 Safari/537.36","WebKit","Chrome","138.0.0.0","Windows","10.0","https://app.prolific.com/","en-US,en;q=0.9","66f4c82536b5c8271f53564c","6877631c9844ddd5501205fc","6889dadbbdce7c64fe1cc2e4","3","1","66f4c82536b5c8271f53564c","3","1","2025-07-30T08:46:40.469Z","","","","","","","","","","","","","","win-only","2","g1:SE,g2:NW","1","1","0","158582","3540.4","8540.8","25722.1","1","4","4","6","2","-4","-4","0","0","0","1470","3000","-3005","[""left"",""up""]","{""num_key_presses"":5,""num_perfect"":5,""num_errors"":0,""num_randdir"":0,""num_randdir_good_moves"":0,""num_whilered"":0,""num_whileblue"":0,""num_blue"":0,""num_good_moves"":5}","[467.8571428571429,460.7633928571429,0.4,467.8571428571429,460.7633928571429,100,467.8571428571429,460.7633928571429,200.1,467.8571428571429,460.7633928571429,305.8,467.8571428571429,460.7633928571429,411.4,467.8571428571429,460.7633928571429,516.6,467.8571428571429,460.7633928571429,617.1,467.8571428571429,460.7633928571429,717.5,467.8571428571429,460.7633928571429,820.2,251.85714285714286,238.76339285714286,921,153.85714285714286,29.76339285714286,1021.3,153.85714285714286,29.76339285714286,1125.5,119.85714285714286,35.76339285714286,1234.6,64.85714285714286,48.76339285714286,1335.9,64.85714285714286,48.76339285714286,1435.9,64.85714285714286,48.76339285714286,1541,64.85714285714286,48.76339285714286,1650.4,64.85714285714286,48.76339285714286,1773.9,64.85714285714286,48.76339285714286,1875.5,64.85714285714286,48.76339285714286,1976,64.85714285714286,48.76339285714286,2083.5,64.85714285714286,48.76339285714286,2183.5,64.85714285714286,48.76339285714286,2283.5,64.85714285714286,48.76339285714286,2384.3,64.85714285714286,48.76339285714286,2486.7,64.85714285714286,48.76339285714286,2590.9,64.85714285714286,48.76339285714286,2691,64.85714285714286,48.76339285714286,2791.9,64.85714285714286,48.76339285714286,2900.5,64.85714285714286,48.76339285714286,3005.6,64.85714285714286,48.76339285714286,3105.7,64.85714285714286,48.76339285714286,3210.8,64.85714285714286,48.76339285714286,3311.2,64.85714285714286,48.76339285714286,3416.8,64.85714285714286,48.76339285714286,3520.9,64.85714285714286,48.76339285714286,3625.7,64.85714285714286,48.76339285714286,3733.3,64.85714285714286,48.76339285714286,3833.5,64.85714285714286,48.76339285714286,3935.8,64.85714285714286,48.76339285714286,4041.4,64.85714285714286,48.76339285714286,4149.8,64.85714285714286,48.76339285714286,4249.8,64.85714285714286,48.76339285714286,4350.1,64.85714285714286,48.76339285714286,4455.8,64.85714285714286,48.76339285714286,4561.7,64.85714285714286,48.76339285714286,4666.6,64.85714285714286,48.76339285714286,4766.7,64.85714285714286,48.76339285714286,4866.7,64.85714285714286,48.76339285714286,4966.9]","[1452.5,1452.5,1000,0,452.5,""smooth"",""up"",""up"",""good_move"",4608.9,3156.2,2827.9,1452.8,328.2,""smooth"",""up"",""up"",""good_move"",8316.2,3707.1,2388.5,4609.1,1318.6,""smooth"",""left"",""left"",""good_move"",11302.9,2986.4,2628.2,8316.5,358.2,""smooth"",""left"",""left"",""good_move"",14224,2920.9,2530.7,11303.1,390.2,""smooth"",""left"",""left"",""good_move""]","",""
"14565","","<div style=""width:500px;"">
  <p>What determined the result of this run?</p>
  </div>","0","html-slider-response","10","198153","0.0-5.0-1.0","265","1","2025-07-30 08:43:34","1f75c3e559b7213887762d5229550c2b","173.21.92.193","Mozilla/5.0 (Windows NT 10.0; Win64; x64) AppleWebKit/537.36 (KHTML, like Gecko) Chrome/138.0.0.0 Safari/537.36","WebKit","Chrome","138.0.0.0","Windows","10.0","https://app.prolific.com/","en-US,en;q=0.9","66f4c82536b5c8271f53564c","6877631c9844ddd5501205fc","6889dadbbdce7c64fe1cc2e4","3","1","66f4c82536b5c8271f53564c","3","1","2025-07-30T08:46:55.036Z","","","","","","","","","","","AttribQ","","50","","","","","","","","","","","","","","","","","","","","","","","","","","","","",""
"4015","","<div style=""width:500px;"">
  <p>How much control did you have over the ball?</p>
  </div>","100","html-slider-response","11","202168","0.0-5.0-2.0","265","1","2025-07-30 08:43:34","1f75c3e559b7213887762d5229550c2b","173.21.92.193","Mozilla/5.0 (Windows NT 10.0; Win64; x64) AppleWebKit/537.36 (KHTML, like Gecko) Chrome/138.0.0.0 Safari/537.36","WebKit","Chrome","138.0.0.0","Windows","10.0","https://app.prolific.com/","en-US,en;q=0.9","66f4c82536b5c8271f53564c","6877631c9844ddd5501205fc","6889dadbbdce7c64fe1cc2e4","3","1","66f4c82536b5c8271f53564c","3","1","2025-07-30T08:46:59.051Z","","","","","","","","","","","ControlQ","","50","","","","","","","","","","","","","","","","","","","","","","","","","","","","",""
"30608","","<div style=""width:500px;"">
  <p>How would you describe your current emotional state?</p>
  </div>","100","html-slider-response","12","232777","0.0-5.0-3.0","265","1","2025-07-30 08:43:34","1f75c3e559b7213887762d5229550c2b","173.21.92.193","Mozilla/5.0 (Windows NT 10.0; Win64; x64) AppleWebKit/537.36 (KHTML, like Gecko) Chrome/138.0.0.0 Safari/537.36","WebKit","Chrome","138.0.0.0","Windows","10.0","https://app.prolific.com/","en-US,en;q=0.9","66f4c82536b5c8271f53564c","6877631c9844ddd5501205fc","6889dadbbdce7c64fe1cc2e4","3","1","66f4c82536b5c8271f53564c","3","1","2025-07-30T08:47:29.660Z","","","","","","","","","","","StressQ","","50","","","","","","","","","","","","","","","","","","","","","","","","","","","","",""
"6777","","<div style=""width:500px;"">
  <p>What best describes how you currently feel?</p>
  </div>","25","html-slider-response","13","239556","0.0-5.0-4.0","265","1","2025-07-30 08:43:34","1f75c3e559b7213887762d5229550c2b","173.21.92.193","Mozilla/5.0 (Windows NT 10.0; Win64; x64) AppleWebKit/537.36 (KHTML, like Gecko) Chrome/138.0.0.0 Safari/537.36","WebKit","Chrome","138.0.0.0","Windows","10.0","https://app.prolific.com/","en-US,en;q=0.9","66f4c82536b5c8271f53564c","6877631c9844ddd5501205fc","6889dadbbdce7c64fe1cc2e4","3","1","66f4c82536b5c8271f53564c","3","1","2025-07-30T08:47:36.439Z","","","","","","","","","","","MotivationQ","","50","","","","","","","","","","","","","","","","","","","","","","","","","","","","",""
"","","","","ctl-task-cpt","14","281733","0.0-5.0-0.1","265","1","2025-07-30 08:43:34","1f75c3e559b7213887762d5229550c2b","173.21.92.193","Mozilla/5.0 (Windows NT 10.0; Win64; x64) AppleWebKit/537.36 (KHTML, like Gecko) Chrome/138.0.0.0 Safari/537.36","WebKit","Chrome","138.0.0.0","Windows","10.0","https://app.prolific.com/","en-US,en;q=0.9","66f4c82536b5c8271f53564c","6877631c9844ddd5501205fc","6889dadbbdce7c64fe1cc2e4","3","1","66f4c82536b5c8271f53564c","3","1","2025-07-30T08:48:18.616Z","","","","","","","","","","","","","","win-only","1","g1:NE,g2:SW","0.9","2","0","243279.5","1476.4","6481.1","39171.8","1","4","8","6","2","8","8","8","0","0.06060606060606061","1293.1","3000","145","[""down"",""left""]","{""num_key_presses"":6,""num_perfect"":6,""num_errors"":0,""num_randdir"":0,""num_randdir_good_moves"":0,""num_whilered"":0,""num_whileblue"":0,""num_blue"":4,""num_good_moves"":6}","[462.8571428571429,472.7633928571429,0.3,462.8571428571429,472.7633928571429,104.8,462.8571428571429,472.7633928571429,209.4,462.8571428571429,472.7633928571429,310.3,462.8571428571429,472.7633928571429,410.7,462.8571428571429,472.7633928571429,517.2,462.8571428571429,472.7633928571429,620.4,462.8571428571429,472.7633928571429,720.6,462.8571428571429,472.7633928571429,823.9,88.85714285714286,892.7633928571429,924.6,77.85714285714286,910.7633928571429,1033.6,78.85714285714286,907.7633928571429,1134.1,78.85714285714286,907.7633928571429,1234.2,78.85714285714286,907.7633928571429,1334.2,78.85714285714286,907.7633928571429,1434.9,78.85714285714286,907.7633928571429,1538.8,78.85714285714286,907.7633928571429,1639.5,78.85714285714286,907.7633928571429,1744.1,78.85714285714286,907.7633928571429,1850,78.85714285714286,907.7633928571429,1950.1,78.85714285714286,907.7633928571429,2050.4,78.85714285714286,907.7633928571429,2150.6,78.85714285714286,907.7633928571429,2251.2,78.85714285714286,907.7633928571429,2354.7,78.85714285714286,907.7633928571429,2455.1,78.85714285714286,907.7633928571429,2559,78.85714285714286,907.7633928571429,2660,78.85714285714286,907.7633928571429,2760.1,78.85714285714286,907.7633928571429,2860.3,78.85714285714286,907.7633928571429,2967.4,78.85714285714286,907.7633928571429,3070.2,78.85714285714286,907.7633928571429,3174.4,78.85714285714286,907.7633928571429,3274.9,78.85714285714286,907.7633928571429,3383.8,78.85714285714286,907.7633928571429,3489.8,78.85714285714286,907.7633928571429,3594.3,78.85714285714286,907.7633928571429,3700.2,78.85714285714286,907.7633928571429,3800.5,78.85714285714286,907.7633928571429,3904.8,78.85714285714286,907.7633928571429,4009.8,78.85714285714286,907.7633928571429,4117.2,78.85714285714286,907.7633928571429,4219.4,78.85714285714286,907.7633928571429,4319.6,78.85714285714286,907.7633928571429,4420.6,78.85714285714286,907.7633928571429,4524.2,78.85714285714286,907.7633928571429,4624.9,78.85714285714286,907.7633928571429,4733.5,78.85714285714286,907.7633928571429,4833.6,78.85714285714286,907.7633928571429,4933.9]","[9866.7,9866.7,2751.6,6320.1,795,""smooth"",""down"",""down"",""good_move"",17353.8,7486.8,3297.5,13529.3,527,""smooth"",""left"",""left"",""good_move"",20149.3,2795.3,2116.7,17354,678.6,""smooth"",""left"",""left"",""good_move"",26149.7,6000.1,2369.2,23329.4,451.1,""smooth"",""down"",""down"",""good_move"",29615.6,3465.7,3097.4,26149.9,368.3,""smooth"",""down"",""down"",""good_move"",32582.5,2966.7,2586.9,29615.8,379.8,""smooth"",""left"",""left"",""good_move""]","",""
"5022","","<div style=""width:500px;"">
  <p>What determined the result of this run?</p>
  </div>","0","html-slider-response","15","286756","0.0-5.0-1.1","265","1","2025-07-30 08:43:34","1f75c3e559b7213887762d5229550c2b","173.21.92.193","Mozilla/5.0 (Windows NT 10.0; Win64; x64) AppleWebKit/537.36 (KHTML, like Gecko) Chrome/138.0.0.0 Safari/537.36","WebKit","Chrome","138.0.0.0","Windows","10.0","https://app.prolific.com/","en-US,en;q=0.9","66f4c82536b5c8271f53564c","6877631c9844ddd5501205fc","6889dadbbdce7c64fe1cc2e4","3","1","66f4c82536b5c8271f53564c","3","1","2025-07-30T08:48:23.640Z","","","","","","","","","","","AttribQ","","50","","","","","","","","","","","","","","","","","","","","","","","","","","","","",""
"3597","","<div style=""width:500px;"">
  <p>How much control did you have over the ball?</p>
  </div>","100","html-slider-response","16","290354","0.0-5.0-2.1","265","1","2025-07-30 08:43:34","1f75c3e559b7213887762d5229550c2b","173.21.92.193","Mozilla/5.0 (Windows NT 10.0; Win64; x64) AppleWebKit/537.36 (KHTML, like Gecko) Chrome/138.0.0.0 Safari/537.36","WebKit","Chrome","138.0.0.0","Windows","10.0","https://app.prolific.com/","en-US,en;q=0.9","66f4c82536b5c8271f53564c","6877631c9844ddd5501205fc","6889dadbbdce7c64fe1cc2e4","3","1","66f4c82536b5c8271f53564c","3","1","2025-07-30T08:48:27.237Z","","","","","","","","","","","ControlQ","","50","","","","","","","","","","","","","","","","","","","","","","","","","","","","",""
"3909","","<div style=""width:500px;"">
  <p>How would you describe your current emotional state?</p>
  </div>","100","html-slider-response","17","294264","0.0-5.0-3.1","265","1","2025-07-30 08:43:34","1f75c3e559b7213887762d5229550c2b","173.21.92.193","Mozilla/5.0 (Windows NT 10.0; Win64; x64) AppleWebKit/537.36 (KHTML, like Gecko) Chrome/138.0.0.0 Safari/537.36","WebKit","Chrome","138.0.0.0","Windows","10.0","https://app.prolific.com/","en-US,en;q=0.9","66f4c82536b5c8271f53564c","6877631c9844ddd5501205fc","6889dadbbdce7c64fe1cc2e4","3","1","66f4c82536b5c8271f53564c","3","1","2025-07-30T08:48:31.147Z","","","","","","","","","","","StressQ","","50","","","","","","","","","","","","","","","","","","","","","","","","","","","","",""
"4471","","<div style=""width:500px;"">
  <p>What best describes how you currently feel?</p>
  </div>","0","html-slider-response","18","298736","0.0-5.0-4.1","265","1","2025-07-30 08:43:34","1f75c3e559b7213887762d5229550c2b","173.21.92.193","Mozilla/5.0 (Windows NT 10.0; Win64; x64) AppleWebKit/537.36 (KHTML, like Gecko) Chrome/138.0.0.0 Safari/537.36","WebKit","Chrome","138.0.0.0","Windows","10.0","https://app.prolific.com/","en-US,en;q=0.9","66f4c82536b5c8271f53564c","6877631c9844ddd5501205fc","6889dadbbdce7c64fe1cc2e4","3","1","66f4c82536b5c8271f53564c","3","1","2025-07-30T08:48:35.619Z","","","","","","","","","","","MotivationQ","","50","","","","","","","","","","","","","","","","","","","","","","","","","","","","",""
"","","","","ctl-task-cpt","19","335934","0.0-5.0-0.2","265","1","2025-07-30 08:43:34","1f75c3e559b7213887762d5229550c2b","173.21.92.193","Mozilla/5.0 (Windows NT 10.0; Win64; x64) AppleWebKit/537.36 (KHTML, like Gecko) Chrome/138.0.0.0 Safari/537.36","WebKit","Chrome","138.0.0.0","Windows","10.0","https://app.prolific.com/","en-US,en;q=0.9","66f4c82536b5c8271f53564c","6877631c9844ddd5501205fc","6889dadbbdce7c64fe1cc2e4","3","1","66f4c82536b5c8271f53564c","3","1","2025-07-30T08:49:12.817Z","","","","","","","","","","","","","","win-only","0","g1:NW,g2:SE","0.8","3","0","302459.8","1031.9","6036.1","34180.2","1","4","4","6","2","4","4","12","8","0.09090909090909091","1181.9","3000","230","[""down"",""right""]","{""num_key_presses"":8,""num_perfect"":6,""num_errors"":0,""num_randdir"":2,""num_randdir_good_moves"":1,""num_whilered"":0,""num_whileblue"":0,""num_blue"":2,""num_good_moves"":7}","[459.8571428571429,466.7633928571429,0.3,459.8571428571429,466.7633928571429,103.9,459.8571428571429,466.7633928571429,204.7,459.8571428571429,466.7633928571429,314.2,459.8571428571429,466.7633928571429,414.7,459.8571428571429,466.7633928571429,515.6,657.8571428571429,676.7633928571429,619.6,719.8571428571429,728.7633928571429,723.9,719.8571428571429,728.7633928571429,824,764.8571428571429,762.7633928571429,932.6,824.8571428571429,820.7633928571429,1033.7,824.8571428571429,820.7633928571429,1134.6,824.8571428571429,820.7633928571429,1238.7,824.8571428571429,820.7633928571429,1338.7,824.8571428571429,820.7633928571429,1438.9,824.8571428571429,820.7633928571429,1539,824.8571428571429,820.7633928571429,1648.4,824.8571428571429,820.7633928571429,1748.9,824.8571428571429,820.7633928571429,1854.2,824.8571428571429,820.7633928571429,1954.6,824.8571428571429,820.7633928571429,2058.7,824.8571428571429,820.7633928571429,2159.5,824.8571428571429,820.7633928571429,2264.8,824.8571428571429,820.7633928571429,2365.3,824.8571428571429,820.7633928571429,2469.3,824.8571428571429,820.7633928571429,2574.2,824.8571428571429,820.7633928571429,2681,824.8571428571429,820.7633928571429,2781.9,824.8571428571429,820.7633928571429,2884.4,824.8571428571429,820.7633928571429,2988.9,824.8571428571429,820.7633928571429,3089.1,824.8571428571429,820.7633928571429,3198.2,824.8571428571429,820.7633928571429,3298.4,824.8571428571429,820.7633928571429,3404.4,824.8571428571429,820.7633928571429,3509.1,824.8571428571429,820.7633928571429,3615.2,824.8571428571429,820.7633928571429,3715.4,824.8571428571429,820.7633928571429,3818.8,824.8571428571429,820.7633928571429,3923.7,824.8571428571429,820.7633928571429,4024.7,824.8571428571429,820.7633928571429,4132.1,824.8571428571429,820.7633928571429,4233.2,824.8571428571429,820.7633928571429,4334.5,824.8571428571429,820.7633928571429,4439.1,824.8571428571429,820.7633928571429,4548.4,824.8571428571429,820.7633928571429,4648.4,824.8571428571429,820.7633928571429,4754.2,824.8571428571429,820.7633928571429,4854.2,824.8571428571429,820.7633928571429,4954.4]","[1469.1,1469.1,1000,0,469.1,""smooth"",""right"",""right"",""good_move"",3833,2363.6,2027.9,1469.4,335.7,""smooth"",""down"",""down"",""good_move"",9756.1,5922.5,2584.1,6840.6,331.4,""smooth"",""down"",""down"",""good_move"",13245.1,3488.9,3135.5,9756.2,353.4,""smooth"",""right"",""right"",""good_move"",16109.2,2864,2501,13245.2,363,""oops"",""right"",""up"",""bad_move"",19124.5,3014.8,2640.9,16109.7,373.9,""smooth"",""right"",""right"",""good_move"",25422.5,6297.7,2493.4,22595,334.1,""oops"",""down"",""down"",""good_move"",28058.9,2636.2,2304.6,25422.7,331.6,""smooth"",""down"",""down"",""good_move""]","",""
"4179","","<div style=""width:500px;"">
  <p>What determined the result of this run?</p>
  </div>","0","html-slider-response","20","340114","0.0-5.0-1.2","265","1","2025-07-30 08:43:34","1f75c3e559b7213887762d5229550c2b","173.21.92.193","Mozilla/5.0 (Windows NT 10.0; Win64; x64) AppleWebKit/537.36 (KHTML, like Gecko) Chrome/138.0.0.0 Safari/537.36","WebKit","Chrome","138.0.0.0","Windows","10.0","https://app.prolific.com/","en-US,en;q=0.9","66f4c82536b5c8271f53564c","6877631c9844ddd5501205fc","6889dadbbdce7c64fe1cc2e4","3","1","66f4c82536b5c8271f53564c","3","1","2025-07-30T08:49:16.997Z","","","","","","","","","","","AttribQ","","50","","","","","","","","","","","","","","","","","","","","","","","","","","","","",""
"4573","","<div style=""width:500px;"">
  <p>How much control did you have over the ball?</p>
  </div>","94","html-slider-response","21","344687","0.0-5.0-2.2","265","1","2025-07-30 08:43:34","1f75c3e559b7213887762d5229550c2b","173.21.92.193","Mozilla/5.0 (Windows NT 10.0; Win64; x64) AppleWebKit/537.36 (KHTML, like Gecko) Chrome/138.0.0.0 Safari/537.36","WebKit","Chrome","138.0.0.0","Windows","10.0","https://app.prolific.com/","en-US,en;q=0.9","66f4c82536b5c8271f53564c","6877631c9844ddd5501205fc","6889dadbbdce7c64fe1cc2e4","3","1","66f4c82536b5c8271f53564c","3","1","2025-07-30T08:49:21.570Z","","","","","","","","","","","ControlQ","","50","","","","","","","","","","","","","","","","","","","","","","","","","","","","",""
"4417","","<div style=""width:500px;"">
  <p>How would you describe your current emotional state?</p>
  </div>","100","html-slider-response","22","349105","0.0-5.0-3.2","265","1","2025-07-30 08:43:34","1f75c3e559b7213887762d5229550c2b","173.21.92.193","Mozilla/5.0 (Windows NT 10.0; Win64; x64) AppleWebKit/537.36 (KHTML, like Gecko) Chrome/138.0.0.0 Safari/537.36","WebKit","Chrome","138.0.0.0","Windows","10.0","https://app.prolific.com/","en-US,en;q=0.9","66f4c82536b5c8271f53564c","6877631c9844ddd5501205fc","6889dadbbdce7c64fe1cc2e4","3","1","66f4c82536b5c8271f53564c","3","1","2025-07-30T08:49:25.988Z","","","","","","","","","","","StressQ","","50","","","","","","","","","","","","","","","","","","","","","","","","","","","","",""
"3595","","<div style=""width:500px;"">
  <p>What best describes how you currently feel?</p>
  </div>","3","html-slider-response","23","352701","0.0-5.0-4.2","265","1","2025-07-30 08:43:34","1f75c3e559b7213887762d5229550c2b","173.21.92.193","Mozilla/5.0 (Windows NT 10.0; Win64; x64) AppleWebKit/537.36 (KHTML, like Gecko) Chrome/138.0.0.0 Safari/537.36","WebKit","Chrome","138.0.0.0","Windows","10.0","https://app.prolific.com/","en-US,en;q=0.9","66f4c82536b5c8271f53564c","6877631c9844ddd5501205fc","6889dadbbdce7c64fe1cc2e4","3","1","66f4c82536b5c8271f53564c","3","1","2025-07-30T08:49:29.584Z","","","","","","","","","","","MotivationQ","","50","","","","","","","","","","","","","","","","","","","","","","","","","","","","",""
"","","","","ctl-task-cpt","24","393880","0.0-5.0-0.3","265","1","2025-07-30 08:43:34","1f75c3e559b7213887762d5229550c2b","173.21.92.193","Mozilla/5.0 (Windows NT 10.0; Win64; x64) AppleWebKit/537.36 (KHTML, like Gecko) Chrome/138.0.0.0 Safari/537.36","WebKit","Chrome","138.0.0.0","Windows","10.0","https://app.prolific.com/","en-US,en;q=0.9","66f4c82536b5c8271f53564c","6877631c9844ddd5501205fc","6889dadbbdce7c64fe1cc2e4","3","1","66f4c82536b5c8271f53564c","3","1","2025-07-30T08:50:10.763Z","","","","","","","","","","","","","","win-only","2","g1:SE,g2:NW","0.7","4","0","356424.7","1154.4","6156.8","38161.8","1","4","8","6","2","-8","-8","4","12","0.030303030303030304","1343.6","3000","-3015","[""left"",""up""]","{""num_key_presses"":8,""num_perfect"":6,""num_errors"":0,""num_randdir"":2,""num_randdir_good_moves"":0,""num_whilered"":0,""num_whileblue"":0,""num_blue"":2,""num_good_moves"":6}","[463.8571428571429,463.7633928571429,0.2,463.8571428571429,463.7633928571429,101.4,463.8571428571429,463.7633928571429,202.2,463.8571428571429,463.7633928571429,310.9,463.8571428571429,463.7633928571429,411.5,463.8571428571429,463.7633928571429,516.1,436.8571428571429,425.7633928571429,616.5,394.8571428571429,187.76339285714286,721.3,394.8571428571429,187.76339285714286,823,375.8571428571429,175.76339285714286,928.4,138.85714285714286,44.76339285714286,1031.2,90.85714285714286,32.76339285714286,1131.4,89.85714285714286,32.76339285714286,1231.5,89.85714285714286,32.76339285714286,1336.8,89.85714285714286,32.76339285714286,1444.5,89.85714285714286,32.76339285714286,1544.7,89.85714285714286,32.76339285714286,1646.6,89.85714285714286,32.76339285714286,1747.1,89.85714285714286,32.76339285714286,1851.6,89.85714285714286,32.76339285714286,1960.6,89.85714285714286,32.76339285714286,2060.8,89.85714285714286,32.76339285714286,2160.9,89.85714285714286,32.76339285714286,2266.7,89.85714285714286,32.76339285714286,2371.3,89.85714285714286,32.76339285714286,2476.8,89.85714285714286,32.76339285714286,2577.3,89.85714285714286,32.76339285714286,2681.4,89.85714285714286,32.76339285714286,2786.6,89.85714285714286,32.76339285714286,2886.8,89.85714285714286,32.76339285714286,2987.2,89.85714285714286,32.76339285714286,3094.1,89.85714285714286,32.76339285714286,3196,89.85714285714286,32.76339285714286,3296.2,89.85714285714286,32.76339285714286,3396.8,89.85714285714286,32.76339285714286,3497.1,89.85714285714286,32.76339285714286,3597.2,89.85714285714286,32.76339285714286,3702.6,89.85714285714286,32.76339285714286,3810.5,89.85714285714286,32.76339285714286,3910.6,89.85714285714286,32.76339285714286,4011,89.85714285714286,32.76339285714286,4111,89.85714285714286,32.76339285714286,4217.1,89.85714285714286,32.76339285714286,4342.2,89.85714285714286,32.76339285714286,4442.8,89.85714285714286,32.76339285714286,4545.8,89.85714285714286,32.76339285714286,4646.8,89.85714285714286,32.76339285714286,4747,89.85714285714286,32.76339285714286,4851.4,89.85714285714286,32.76339285714286,4952.5]","[1507.1,1507.1,1000,0,507.1,""smooth"",""up"",""up"",""good_move"",4438.2,2930.6,2588.9,1507.6,341.7,""smooth"",""left"",""left"",""good_move"",10928.4,6489.9,2470.8,8060,397.6,""smooth"",""left"",""left"",""good_move"",14204.6,3276.1,2850.3,10928.5,425.8,""smooth"",""up"",""up"",""good_move"",16633.1,2428.3,2106.9,14204.8,321.4,""oops"",""up"",""right"",""bad_move"",19375.2,2741.8,2420.4,16633.4,321.4,""smooth"",""up"",""up"",""good_move"",22492.8,3117.4,2831.8,19375.4,285.6,""oops"",""left"",""right"",""bad_move"",29616.7,7123.7,3495.9,25794.3,326.5,""smooth"",""left"",""left"",""good_move""]","",""
"4876","","<div style=""width:500px;"">
  <p>What determined the result of this run?</p>
  </div>","0","html-slider-response","25","398756","0.0-5.0-1.3","265","1","2025-07-30 08:43:34","1f75c3e559b7213887762d5229550c2b","173.21.92.193","Mozilla/5.0 (Windows NT 10.0; Win64; x64) AppleWebKit/537.36 (KHTML, like Gecko) Chrome/138.0.0.0 Safari/537.36","WebKit","Chrome","138.0.0.0","Windows","10.0","https://app.prolific.com/","en-US,en;q=0.9","66f4c82536b5c8271f53564c","6877631c9844ddd5501205fc","6889dadbbdce7c64fe1cc2e4","3","1","66f4c82536b5c8271f53564c","3","1","2025-07-30T08:50:15.639Z","","","","","","","","","","","AttribQ","","50","","","","","","","","","","","","","","","","","","","","","","","","","","","","",""
"4396","","<div style=""width:500px;"">
  <p>How much control did you have over the ball?</p>
  </div>","15","html-slider-response","26","403153","0.0-5.0-2.3","265","1","2025-07-30 08:43:34","1f75c3e559b7213887762d5229550c2b","173.21.92.193","Mozilla/5.0 (Windows NT 10.0; Win64; x64) AppleWebKit/537.36 (KHTML, like Gecko) Chrome/138.0.0.0 Safari/537.36","WebKit","Chrome","138.0.0.0","Windows","10.0","https://app.prolific.com/","en-US,en;q=0.9","66f4c82536b5c8271f53564c","6877631c9844ddd5501205fc","6889dadbbdce7c64fe1cc2e4","3","1","66f4c82536b5c8271f53564c","3","1","2025-07-30T08:50:20.036Z","","","","","","","","","","","ControlQ","","50","","","","","","","","","","","","","","","","","","","","","","","","","","","","",""
"4380","","<div style=""width:500px;"">
  <p>How would you describe your current emotional state?</p>
  </div>","100","html-slider-response","27","407534","0.0-5.0-3.3","265","1","2025-07-30 08:43:34","1f75c3e559b7213887762d5229550c2b","173.21.92.193","Mozilla/5.0 (Windows NT 10.0; Win64; x64) AppleWebKit/537.36 (KHTML, like Gecko) Chrome/138.0.0.0 Safari/537.36","WebKit","Chrome","138.0.0.0","Windows","10.0","https://app.prolific.com/","en-US,en;q=0.9","66f4c82536b5c8271f53564c","6877631c9844ddd5501205fc","6889dadbbdce7c64fe1cc2e4","3","1","66f4c82536b5c8271f53564c","3","1","2025-07-30T08:50:24.417Z","","","","","","","","","","","StressQ","","50","","","","","","","","","","","","","","","","","","","","","","","","","","","","",""
"4715","","<div style=""width:500px;"">
  <p>What best describes how you currently feel?</p>
  </div>","34","html-slider-response","28","412250","0.0-5.0-4.3","265","1","2025-07-30 08:43:34","1f75c3e559b7213887762d5229550c2b","173.21.92.193","Mozilla/5.0 (Windows NT 10.0; Win64; x64) AppleWebKit/537.36 (KHTML, like Gecko) Chrome/138.0.0.0 Safari/537.36","WebKit","Chrome","138.0.0.0","Windows","10.0","https://app.prolific.com/","en-US,en;q=0.9","66f4c82536b5c8271f53564c","6877631c9844ddd5501205fc","6889dadbbdce7c64fe1cc2e4","3","1","66f4c82536b5c8271f53564c","3","1","2025-07-30T08:50:29.133Z","","","","","","","","","","","MotivationQ","","50","","","","","","","","","","","","","","","","","","","","","","","","","","","","",""
"","","","","ctl-task-cpt","29","454535","0.0-5.0-0.4","265","1","2025-07-30 08:43:34","1f75c3e559b7213887762d5229550c2b","173.21.92.193","Mozilla/5.0 (Windows NT 10.0; Win64; x64) AppleWebKit/537.36 (KHTML, like Gecko) Chrome/138.0.0.0 Safari/537.36","WebKit","Chrome","138.0.0.0","Windows","10.0","https://app.prolific.com/","en-US,en;q=0.9","66f4c82536b5c8271f53564c","6877631c9844ddd5501205fc","6889dadbbdce7c64fe1cc2e4","3","1","66f4c82536b5c8271f53564c","3","1","2025-07-30T08:51:11.419Z","","","","","","","","","","","","","","win-only","2","g1:SE,g2:NW","0.6","5","0","415973.8","1349.5","6350.9","39276.9","1","4","4","6","2","-4","-5","0","4","0","1199.1","3000","-2655","[""left"",""up""]","{""num_key_presses"":9,""num_perfect"":4,""num_errors"":1,""num_randdir"":4,""num_randdir_good_moves"":2,""num_whilered"":0,""num_whileblue"":0,""num_blue"":2,""num_good_moves"":6}","[452.8571428571429,458.7633928571429,0.1,452.8571428571429,458.7633928571429,100.2,452.8571428571429,458.7633928571429,201.2,452.8571428571429,458.7633928571429,306.2,452.8571428571429,458.7633928571429,417,452.8571428571429,458.7633928571429,521,452.8571428571429,458.7633928571429,621.5,452.8571428571429,458.7633928571429,726,232.85714285714286,199.76339285714286,833.7,135.85714285714286,93.76339285714286,935.7,116.85714285714286,81.76339285714286,1036.3,116.85714285714286,81.76339285714286,1137,116.85714285714286,81.76339285714286,1241.7,116.85714285714286,81.76339285714286,1348.8,116.85714285714286,81.76339285714286,1449.6,116.85714285714286,81.76339285714286,1549.6,116.85714285714286,81.76339285714286,1650,116.85714285714286,81.76339285714286,1750.1,116.85714285714286,81.76339285714286,1851,116.85714285714286,81.76339285714286,1951.2,116.85714285714286,81.76339285714286,2056,116.85714285714286,81.76339285714286,2157.7,116.85714285714286,81.76339285714286,2267.2,116.85714285714286,81.76339285714286,2367.2,116.85714285714286,81.76339285714286,2471.8,116.85714285714286,81.76339285714286,2583.5,116.85714285714286,81.76339285714286,2686.3,116.85714285714286,81.76339285714286,2791.3,116.85714285714286,81.76339285714286,2891.6,116.85714285714286,81.76339285714286,3000.4,116.85714285714286,81.76339285714286,3102.4,116.85714285714286,81.76339285714286,3207,116.85714285714286,81.76339285714286,3317,116.85714285714286,81.76339285714286,3417,116.85714285714286,81.76339285714286,3517.3,116.85714285714286,81.76339285714286,3621.5,116.85714285714286,81.76339285714286,3726,116.85714285714286,81.76339285714286,3833.4,116.85714285714286,81.76339285714286,3934.6,116.85714285714286,81.76339285714286,4037.2,116.85714285714286,81.76339285714286,4137.2,116.85714285714286,81.76339285714286,4241.3,116.85714285714286,81.76339285714286,4341.3,116.85714285714286,81.76339285714286,4441.3,116.85714285714286,81.76339285714286,4541.6,116.85714285714286,81.76339285714286,4649.2,116.85714285714286,81.76339285714286,4749.3,116.85714285714286,81.76339285714286,4851.2,116.85714285714286,81.76339285714286,4951.5]","[349.8,349.8,1000,0,-650.2,""error"",""-"",""-"",""no_move"",3970.4,3620.4,2185.5,1350.4,434.5,""smooth"",""up"",""up"",""good_move"",7514.2,3543.3,3145.5,3970.9,397.8,""oops"",""left"",""down"",""bad_move"",9932.2,2417.6,2082.6,7514.6,335,""smooth"",""left"",""left"",""good_move"",13196.9,3264.5,2572.8,9932.4,691.7,""oops"",""left"",""up"",""good_move"",18964.2,5767.1,2260.7,16289.3,414.2,""oops"",""left"",""down"",""bad_move"",24882.8,5918.3,2566.1,21914.9,401.8,""oops"",""up"",""left"",""good_move"",27400.1,2517.1,2131.9,24883,385.3,""smooth"",""up"",""up"",""good_move"",30190,2789.7,2468.5,27400.3,321.2,""smooth"",""up"",""up"",""good_move""]","",""
"4180","","<div style=""width:500px;"">
  <p>What determined the result of this run?</p>
  </div>","0","html-slider-response","30","458717","0.0-5.0-1.4","265","1","2025-07-30 08:43:34","1f75c3e559b7213887762d5229550c2b","173.21.92.193","Mozilla/5.0 (Windows NT 10.0; Win64; x64) AppleWebKit/537.36 (KHTML, like Gecko) Chrome/138.0.0.0 Safari/537.36","WebKit","Chrome","138.0.0.0","Windows","10.0","https://app.prolific.com/","en-US,en;q=0.9","66f4c82536b5c8271f53564c","6877631c9844ddd5501205fc","6889dadbbdce7c64fe1cc2e4","3","1","66f4c82536b5c8271f53564c","3","1","2025-07-30T08:51:15.600Z","","","","","","","","","","","AttribQ","","50","","","","","","","","","","","","","","","","","","","","","","","","","","","","",""
"5953","","<div style=""width:500px;"">
  <p>How much control did you have over the ball?</p>
  </div>","3","html-slider-response","31","464670","0.0-5.0-2.4","265","1","2025-07-30 08:43:34","1f75c3e559b7213887762d5229550c2b","173.21.92.193","Mozilla/5.0 (Windows NT 10.0; Win64; x64) AppleWebKit/537.36 (KHTML, like Gecko) Chrome/138.0.0.0 Safari/537.36","WebKit","Chrome","138.0.0.0","Windows","10.0","https://app.prolific.com/","en-US,en;q=0.9","66f4c82536b5c8271f53564c","6877631c9844ddd5501205fc","6889dadbbdce7c64fe1cc2e4","3","1","66f4c82536b5c8271f53564c","3","1","2025-07-30T08:51:21.553Z","","","","","","","","","","","ControlQ","","50","","","","","","","","","","","","","","","","","","","","","","","","","","","","",""
"5546","","<div style=""width:500px;"">
  <p>How would you describe your current emotional state?</p>
  </div>","100","html-slider-response","32","470217","0.0-5.0-3.4","265","1","2025-07-30 08:43:34","1f75c3e559b7213887762d5229550c2b","173.21.92.193","Mozilla/5.0 (Windows NT 10.0; Win64; x64) AppleWebKit/537.36 (KHTML, like Gecko) Chrome/138.0.0.0 Safari/537.36","WebKit","Chrome","138.0.0.0","Windows","10.0","https://app.prolific.com/","en-US,en;q=0.9","66f4c82536b5c8271f53564c","6877631c9844ddd5501205fc","6889dadbbdce7c64fe1cc2e4","3","1","66f4c82536b5c8271f53564c","3","1","2025-07-30T08:51:27.100Z","","","","","","","","","","","StressQ","","50","","","","","","","","","","","","","","","","","","","","","","","","","","","","",""
"4033","","<div style=""width:500px;"">
  <p>What best describes how you currently feel?</p>
  </div>","62","html-slider-response","33","474251","0.0-5.0-4.4","265","1","2025-07-30 08:43:34","1f75c3e559b7213887762d5229550c2b","173.21.92.193","Mozilla/5.0 (Windows NT 10.0; Win64; x64) AppleWebKit/537.36 (KHTML, like Gecko) Chrome/138.0.0.0 Safari/537.36","WebKit","Chrome","138.0.0.0","Windows","10.0","https://app.prolific.com/","en-US,en;q=0.9","66f4c82536b5c8271f53564c","6877631c9844ddd5501205fc","6889dadbbdce7c64fe1cc2e4","3","1","66f4c82536b5c8271f53564c","3","1","2025-07-30T08:51:31.135Z","","","","","","","","","","","MotivationQ","","50","","","","","","","","","","","","","","","","","","","","","","","","","","","","",""
"","","","","ctl-task-cpt","34","521767","0.0-5.0-0.5","265","1","2025-07-30 08:43:34","1f75c3e559b7213887762d5229550c2b","173.21.92.193","Mozilla/5.0 (Windows NT 10.0; Win64; x64) AppleWebKit/537.36 (KHTML, like Gecko) Chrome/138.0.0.0 Safari/537.36","WebKit","Chrome","138.0.0.0","Windows","10.0","https://app.prolific.com/","en-US,en;q=0.9","66f4c82536b5c8271f53564c","6877631c9844ddd5501205fc","6889dadbbdce7c64fe1cc2e4","3","1","66f4c82536b5c8271f53564c","3","1","2025-07-30T08:52:18.650Z","","","","","","","","","","","","","","win-only","3","g1:SW,g2:NE","0.5","6","0","477975.4","1564.7","6566.7","44486.3","1","4","8","6","2","-8","-8","0","0","0","1104.1","3000","-2430","[""up"",""right""]","{""num_key_presses"":9,""num_perfect"":4,""num_errors"":0,""num_randdir"":5,""num_randdir_good_moves"":3,""num_whilered"":0,""num_whileblue"":0,""num_blue"":4,""num_good_moves"":7}","[462.8571428571429,467.7633928571429,0.1,462.8571428571429,467.7633928571429,100.2,462.8571428571429,467.7633928571429,201.2,462.8571428571429,467.7633928571429,305.8,462.8571428571429,467.7633928571429,406.7,474.8571428571429,456.7633928571429,510.9,702.8571428571429,254.76339285714286,610.9,719.8571428571429,209.76339285714286,719.7,761.8571428571429,154.76339285714286,820.8,781.8571428571429,122.76339285714286,921.6,781.8571428571429,122.76339285714286,1034.7,781.8571428571429,122.76339285714286,1135.1,781.8571428571429,122.76339285714286,1236.5,781.8571428571429,122.76339285714286,1336.5,781.8571428571429,122.76339285714286,1450.2,781.8571428571429,122.76339285714286,1551.1,781.8571428571429,122.76339285714286,1651.4,781.8571428571429,122.76339285714286,1756.4,781.8571428571429,122.76339285714286,1868.3,781.8571428571429,122.76339285714286,1970.8,781.8571428571429,122.76339285714286,2071.2,781.8571428571429,122.76339285714286,2171.5,781.8571428571429,122.76339285714286,2284.1,781.8571428571429,122.76339285714286,2384.8,781.8571428571429,122.76339285714286,2486.6,781.8571428571429,122.76339285714286,2591.5,781.8571428571429,122.76339285714286,2701.1,781.8571428571429,122.76339285714286,2801.4,781.8571428571429,122.76339285714286,2902.1,781.8571428571429,122.76339285714286,3005.6,781.8571428571429,122.76339285714286,3105.7,781.8571428571429,122.76339285714286,3206.1,781.8571428571429,122.76339285714286,3306.7,781.8571428571429,122.76339285714286,3406.8,781.8571428571429,122.76339285714286,3511.1,781.8571428571429,122.76339285714286,3611.2,781.8571428571429,122.76339285714286,3716.6,781.8571428571429,122.76339285714286,3816.8,781.8571428571429,122.76339285714286,3921,781.8571428571429,122.76339285714286,4021.5,781.8571428571429,122.76339285714286,4121.5,781.8571428571429,122.76339285714286,4225.7,781.8571428571429,122.76339285714286,4326.7,781.8571428571429,122.76339285714286,4434.2,781.8571428571429,122.76339285714286,4534.5,781.8571428571429,122.76339285714286,4635.1,781.8571428571429,122.76339285714286,4736.9,781.8571428571429,122.76339285714286,4840.8,781.8571428571429,122.76339285714286,4951.4]","[1424.4,1424.5,1000,0,424.5,""smooth"",""up"",""up"",""good_move"",3982.9,2558,2205.6,1424.9,352.4,""smooth"",""right"",""right"",""good_move"",7386.1,3402.8,3035.6,3983.3,367.2,""smooth"",""right"",""right"",""good_move"",12927.3,5541,2126,10419.7,381.6,""smooth"",""up"",""up"",""good_move"",15430.1,2502.4,2064.1,12927.7,438.3,""oops"",""up"",""right"",""good_move"",21028.5,5598.2,2706,18009.3,313.2,""oops"",""up"",""down"",""bad_move"",23336.9,2307.9,1895,21029,412.9,""oops"",""up"",""left"",""bad_move"",26328,2990.9,2611.6,23337.1,379.3,""oops"",""up"",""up"",""good_move"",32146.8,5818.3,2467.5,29289.6,389.7,""oops"",""right"",""right"",""good_move""]","",""
"4555","","<div style=""width:500px;"">
  <p>What determined the result of this run?</p>
  </div>","0","html-slider-response","35","526322","0.0-5.0-1.5","265","1","2025-07-30 08:43:34","1f75c3e559b7213887762d5229550c2b","173.21.92.193","Mozilla/5.0 (Windows NT 10.0; Win64; x64) AppleWebKit/537.36 (KHTML, like Gecko) Chrome/138.0.0.0 Safari/537.36","WebKit","Chrome","138.0.0.0","Windows","10.0","https://app.prolific.com/","en-US,en;q=0.9","66f4c82536b5c8271f53564c","6877631c9844ddd5501205fc","6889dadbbdce7c64fe1cc2e4","3","1","66f4c82536b5c8271f53564c","3","1","2025-07-30T08:52:23.205Z","","","","","","","","","","","AttribQ","","50","","","","","","","","","","","","","","","","","","","","","","","","","","","","",""
"3651","","<div style=""width:500px;"">
  <p>How much control did you have over the ball?</p>
  </div>","6","html-slider-response","36","529974","0.0-5.0-2.5","265","1","2025-07-30 08:43:34","1f75c3e559b7213887762d5229550c2b","173.21.92.193","Mozilla/5.0 (Windows NT 10.0; Win64; x64) AppleWebKit/537.36 (KHTML, like Gecko) Chrome/138.0.0.0 Safari/537.36","WebKit","Chrome","138.0.0.0","Windows","10.0","https://app.prolific.com/","en-US,en;q=0.9","66f4c82536b5c8271f53564c","6877631c9844ddd5501205fc","6889dadbbdce7c64fe1cc2e4","3","1","66f4c82536b5c8271f53564c","3","1","2025-07-30T08:52:26.857Z","","","","","","","","","","","ControlQ","","50","","","","","","","","","","","","","","","","","","","","","","","","","","","","",""
"4076","","<div style=""width:500px;"">
  <p>How would you describe your current emotional state?</p>
  </div>","100","html-slider-response","37","534051","0.0-5.0-3.5","265","1","2025-07-30 08:43:34","1f75c3e559b7213887762d5229550c2b","173.21.92.193","Mozilla/5.0 (Windows NT 10.0; Win64; x64) AppleWebKit/537.36 (KHTML, like Gecko) Chrome/138.0.0.0 Safari/537.36","WebKit","Chrome","138.0.0.0","Windows","10.0","https://app.prolific.com/","en-US,en;q=0.9","66f4c82536b5c8271f53564c","6877631c9844ddd5501205fc","6889dadbbdce7c64fe1cc2e4","3","1","66f4c82536b5c8271f53564c","3","1","2025-07-30T08:52:30.934Z","","","","","","","","","","","StressQ","","50","","","","","","","","","","","","","","","","","","","","","","","","","","","","",""
"3685","","<div style=""width:500px;"">
  <p>What best describes how you currently feel?</p>
  </div>","75","html-slider-response","38","537737","0.0-5.0-4.5","265","1","2025-07-30 08:43:34","1f75c3e559b7213887762d5229550c2b","173.21.92.193","Mozilla/5.0 (Windows NT 10.0; Win64; x64) AppleWebKit/537.36 (KHTML, like Gecko) Chrome/138.0.0.0 Safari/537.36","WebKit","Chrome","138.0.0.0","Windows","10.0","https://app.prolific.com/","en-US,en;q=0.9","66f4c82536b5c8271f53564c","6877631c9844ddd5501205fc","6889dadbbdce7c64fe1cc2e4","3","1","66f4c82536b5c8271f53564c","3","1","2025-07-30T08:52:34.620Z","","","","","","","","","","","MotivationQ","","50","","","","","","","","","","","","","","","","","","","","","","","","","","","","",""
"","","","","ctl-task-cpt","39","575150","0.0-5.0-0.6","265","1","2025-07-30 08:43:34","1f75c3e559b7213887762d5229550c2b","173.21.92.193","Mozilla/5.0 (Windows NT 10.0; Win64; x64) AppleWebKit/537.36 (KHTML, like Gecko) Chrome/138.0.0.0 Safari/537.36","WebKit","Chrome","138.0.0.0","Windows","10.0","https://app.prolific.com/","en-US,en;q=0.9","66f4c82536b5c8271f53564c","6877631c9844ddd5501205fc","6889dadbbdce7c64fe1cc2e4","3","1","66f4c82536b5c8271f53564c","3","1","2025-07-30T08:53:12.033Z","","","","","","","","","","","","","","win-only","3","g1:SW,g2:NE","0.4","7","0","541460.8","1380.3","6385.4","34396.1","1","4","8","6","1","-1","-1","0","0","0","1431.3","3000","-2380","[""down"",""left""]","{""num_key_presses"":8,""num_perfect"":3,""num_errors"":0,""num_randdir"":5,""num_randdir_good_moves"":1,""num_whilered"":0,""num_whileblue"":0,""num_blue"":1,""num_good_moves"":4}","[470.8571428571429,459.7633928571429,0.3,470.8571428571429,459.7633928571429,105.7,470.8571428571429,459.7633928571429,210.6,470.8571428571429,459.7633928571429,315.7,470.8571428571429,459.7633928571429,420.3,470.8571428571429,459.7633928571429,534.4,483.8571428571429,444.7633928571429,635.4,308.8571428571429,513.7633928571429,749.6,-31.14285714285714,870.7633928571429,850.1,-33.14285714285714,873.7633928571429,950.8,-33.14285714285714,873.7633928571429,1051.4,1.8571428571428612,871.7633928571429,1155.1,54.85714285714286,865.7633928571429,1255.5,57.85714285714286,853.7633928571429,1360.2,57.85714285714286,853.7633928571429,1468.8,57.85714285714286,853.7633928571429,1569.8,57.85714285714286,853.7633928571429,1671.1,57.85714285714286,853.7633928571429,1774.9,57.85714285714286,853.7633928571429,1875.2,57.85714285714286,853.7633928571429,1984.4,57.85714285714286,853.7633928571429,2084.6,57.85714285714286,853.7633928571429,2185.4,57.85714285714286,853.7633928571429,2285.8,57.85714285714286,853.7633928571429,2385.8,57.85714285714286,853.7633928571429,2500,57.85714285714286,853.7633928571429,2601.2,57.85714285714286,853.7633928571429,2705.2,57.85714285714286,853.7633928571429,2805.7,57.85714285714286,853.7633928571429,2905.7,57.85714285714286,853.7633928571429,3016.6,57.85714285714286,853.7633928571429,3120.8,57.85714285714286,853.7633928571429,3225.1,57.85714285714286,853.7633928571429,3330.6,57.85714285714286,853.7633928571429,3432,57.85714285714286,853.7633928571429,3534.9,57.85714285714286,853.7633928571429,3636,57.85714285714286,853.7633928571429,3736,57.85714285714286,853.7633928571429,3849.7,57.85714285714286,853.7633928571429,3950.2,57.85714285714286,853.7633928571429,4050.9,57.85714285714286,853.7633928571429,4155.5,57.85714285714286,853.7633928571429,4268.3,57.85714285714286,853.7633928571429,4370.2,57.85714285714286,853.7633928571429,4475.9,57.85714285714286,853.7633928571429,4580.2,57.85714285714286,853.7633928571429,4686,57.85714285714286,853.7633928571429,4799.2,57.85714285714286,853.7633928571429,4899.8]","[1358.8,1358.8,1000,0,358.8,""oops"",""down"",""up"",""bad_move"",3727.7,2368.3,1867.9,1359.4,500.4,""smooth"",""down"",""down"",""good_move"",6299.9,2571.8,2215.2,3728.1,356.6,""smooth"",""down"",""down"",""good_move"",9275.8,2975.6,2586.3,6300.2,389.3,""oops"",""left"",""up"",""bad_move"",12445,3168.8,2417.4,9276.2,751.4,""smooth"",""left"",""left"",""good_move"",19594.7,7149.6,2677.1,16496.2,421.4,""oops"",""down"",""right"",""bad_move"",22631.9,3036.8,2634.1,19595.1,402.7,""oops"",""down"",""left"",""good_move"",24943.3,2311.2,1921.6,22632.1,389.6,""oops"",""down"",""right"",""bad_move""]","",""
"2997","","<div style=""width:500px;"">
  <p>What determined the result of this run?</p>
  </div>","0","html-slider-response","40","578149","0.0-5.0-1.6","265","1","2025-07-30 08:43:34","1f75c3e559b7213887762d5229550c2b","173.21.92.193","Mozilla/5.0 (Windows NT 10.0; Win64; x64) AppleWebKit/537.36 (KHTML, like Gecko) Chrome/138.0.0.0 Safari/537.36","WebKit","Chrome","138.0.0.0","Windows","10.0","https://app.prolific.com/","en-US,en;q=0.9","66f4c82536b5c8271f53564c","6877631c9844ddd5501205fc","6889dadbbdce7c64fe1cc2e4","3","1","66f4c82536b5c8271f53564c","3","1","2025-07-30T08:53:15.032Z","","","","","","","","","","","AttribQ","","50","","","","","","","","","","","","","","","","","","","","","","","","","","","","",""
"4604","","<div style=""width:500px;"">
  <p>How much control did you have over the ball?</p>
  </div>","0","html-slider-response","41","582753","0.0-5.0-2.6","265","1","2025-07-30 08:43:34","1f75c3e559b7213887762d5229550c2b","173.21.92.193","Mozilla/5.0 (Windows NT 10.0; Win64; x64) AppleWebKit/537.36 (KHTML, like Gecko) Chrome/138.0.0.0 Safari/537.36","WebKit","Chrome","138.0.0.0","Windows","10.0","https://app.prolific.com/","en-US,en;q=0.9","66f4c82536b5c8271f53564c","6877631c9844ddd5501205fc","6889dadbbdce7c64fe1cc2e4","3","1","66f4c82536b5c8271f53564c","3","1","2025-07-30T08:53:19.636Z","","","","","","","","","","","ControlQ","","50","","","","","","","","","","","","","","","","","","","","","","","","","","","","",""
"5154","","<div style=""width:500px;"">
  <p>How would you describe your current emotional state?</p>
  </div>","100","html-slider-response","42","587907","0.0-5.0-3.6","265","1","2025-07-30 08:43:34","1f75c3e559b7213887762d5229550c2b","173.21.92.193","Mozilla/5.0 (Windows NT 10.0; Win64; x64) AppleWebKit/537.36 (KHTML, like Gecko) Chrome/138.0.0.0 Safari/537.36","WebKit","Chrome","138.0.0.0","Windows","10.0","https://app.prolific.com/","en-US,en;q=0.9","66f4c82536b5c8271f53564c","6877631c9844ddd5501205fc","6889dadbbdce7c64fe1cc2e4","3","1","66f4c82536b5c8271f53564c","3","1","2025-07-30T08:53:24.790Z","","","","","","","","","","","StressQ","","50","","","","","","","","","","","","","","","","","","","","","","","","","","","","",""
"4623","","<div style=""width:500px;"">
  <p>What best describes how you currently feel?</p>
  </div>","87","html-slider-response","43","592531","0.0-5.0-4.6","265","1","2025-07-30 08:43:34","1f75c3e559b7213887762d5229550c2b","173.21.92.193","Mozilla/5.0 (Windows NT 10.0; Win64; x64) AppleWebKit/537.36 (KHTML, like Gecko) Chrome/138.0.0.0 Safari/537.36","WebKit","Chrome","138.0.0.0","Windows","10.0","https://app.prolific.com/","en-US,en;q=0.9","66f4c82536b5c8271f53564c","6877631c9844ddd5501205fc","6889dadbbdce7c64fe1cc2e4","3","1","66f4c82536b5c8271f53564c","3","1","2025-07-30T08:53:29.414Z","","","","","","","","","","","MotivationQ","","50","","","","","","","","","","","","","","","","","","","","","","","","","","","","",""
"","","","","ctl-task-cpt","44","634289","0.0-5.0-0.7","265","1","2025-07-30 08:43:34","1f75c3e559b7213887762d5229550c2b","173.21.92.193","Mozilla/5.0 (Windows NT 10.0; Win64; x64) AppleWebKit/537.36 (KHTML, like Gecko) Chrome/138.0.0.0 Safari/537.36","WebKit","Chrome","138.0.0.0","Windows","10.0","https://app.prolific.com/","en-US,en;q=0.9","66f4c82536b5c8271f53564c","6877631c9844ddd5501205fc","6889dadbbdce7c64fe1cc2e4","3","1","66f4c82536b5c8271f53564c","3","1","2025-07-30T08:54:11.172Z","","","","","","","","","","","","","","win-only","0","g1:NW,g2:SE","0.3","8","0","596255.1","1202.3","6205.8","38740.6","1","4","4","6","1","-1","-1","0","0","0","1398.9","3000","-2690","[""left"",""up""]","{""num_key_presses"":9,""num_perfect"":3,""num_errors"":0,""num_randdir"":6,""num_randdir_good_moves"":2,""num_whilered"":0,""num_whileblue"":0,""num_blue"":2,""num_good_moves"":4}","[465.8571428571429,466.7633928571429,0.1,465.8571428571429,466.7633928571429,101.9,465.8571428571429,466.7633928571429,203.6,465.8571428571429,466.7633928571429,309.8,465.8571428571429,466.7633928571429,414.3,465.8571428571429,466.7633928571429,518.6,603.8571428571429,667.7633928571429,633.5,372.8571428571429,506.7633928571429,733.6,124.85714285714286,-105.23660714285714,834.6,124.85714285714286,-105.23660714285714,938.1,124.85714285714286,-105.23660714285714,1038.7,115.85714285714286,-14.236607142857139,1152.3,113.85714285714286,23.76339285714286,1253.6,113.85714285714286,23.76339285714286,1354.5,113.85714285714286,23.76339285714286,1467.8,113.85714285714286,23.76339285714286,1567.8,113.85714285714286,23.76339285714286,1668.6,113.85714285714286,23.76339285714286,1773,113.85714285714286,23.76339285714286,1873.3,113.85714285714286,23.76339285714286,1983.5,113.85714285714286,23.76339285714286,2088.8,113.85714285714286,23.76339285714286,2201.3,113.85714285714286,23.76339285714286,2304,113.85714285714286,23.76339285714286,2408.2,113.85714285714286,23.76339285714286,2508.5,113.85714285714286,23.76339285714286,2616.8,113.85714285714286,23.76339285714286,2718.6,113.85714285714286,23.76339285714286,2833.3,113.85714285714286,23.76339285714286,2933.4,113.85714285714286,23.76339285714286,3038.6,113.85714285714286,23.76339285714286,3139.2,113.85714285714286,23.76339285714286,3251.7,113.85714285714286,23.76339285714286,3353.5,113.85714285714286,23.76339285714286,3458.7,113.85714285714286,23.76339285714286,3567.3,113.85714285714286,23.76339285714286,3667.4,113.85714285714286,23.76339285714286,3768.6,113.85714285714286,23.76339285714286,3882.9,113.85714285714286,23.76339285714286,3982.9,113.85714285714286,23.76339285714286,4084.3,113.85714285714286,23.76339285714286,4189.1,113.85714285714286,23.76339285714286,4293.2,113.85714285714286,23.76339285714286,4393.4,113.85714285714286,23.76339285714286,4499.6,113.85714285714286,23.76339285714286,4600.4,113.85714285714286,23.76339285714286,4701.2,113.85714285714286,23.76339285714286,4803.6,113.85714285714286,23.76339285714286,4917.6]","[1380.4,1380.4,1000,0,380.4,""oops"",""up"",""right"",""bad_move"",4609.4,3228.3,2857.3,1381.1,371,""oops"",""left"",""down"",""bad_move"",7137.4,2527.7,2187.5,4609.7,340.2,""oops"",""right"",""left"",""good_move"",9598.6,2460.7,2054.8,7137.9,405.9,""oops"",""right"",""right"",""bad_move"",12024.2,2425.4,2144.4,9598.8,281,""oops"",""right"",""left"",""good_move"",18153.8,6129.4,1820.8,15935.9,397.1,""smooth"",""left"",""left"",""good_move"",24308.6,6154.4,2709.2,21300,299.4,""oops"",""up"",""down"",""bad_move"",27379.6,3070.8,2624,24308.8,446.8,""smooth"",""down"",""down"",""bad_move"",29839.8,2460,2079,27379.8,381,""smooth"",""up"",""up"",""good_move""]","",""
"4117","","<div style=""width:500px;"">
  <p>What determined the result of this run?</p>
  </div>","57","html-slider-response","45","638407","0.0-5.0-1.7","265","1","2025-07-30 08:43:34","1f75c3e559b7213887762d5229550c2b","173.21.92.193","Mozilla/5.0 (Windows NT 10.0; Win64; x64) AppleWebKit/537.36 (KHTML, like Gecko) Chrome/138.0.0.0 Safari/537.36","WebKit","Chrome","138.0.0.0","Windows","10.0","https://app.prolific.com/","en-US,en;q=0.9","66f4c82536b5c8271f53564c","6877631c9844ddd5501205fc","6889dadbbdce7c64fe1cc2e4","3","1","66f4c82536b5c8271f53564c","3","1","2025-07-30T08:54:15.290Z","","","","","","","","","","","AttribQ","","50","","","","","","","","","","","","","","","","","","","","","","","","","","","","",""
"5788","","<div style=""width:500px;"">
  <p>How much control did you have over the ball?</p>
  </div>","0","html-slider-response","46","644196","0.0-5.0-2.7","265","1","2025-07-30 08:43:34","1f75c3e559b7213887762d5229550c2b","173.21.92.193","Mozilla/5.0 (Windows NT 10.0; Win64; x64) AppleWebKit/537.36 (KHTML, like Gecko) Chrome/138.0.0.0 Safari/537.36","WebKit","Chrome","138.0.0.0","Windows","10.0","https://app.prolific.com/","en-US,en;q=0.9","66f4c82536b5c8271f53564c","6877631c9844ddd5501205fc","6889dadbbdce7c64fe1cc2e4","3","1","66f4c82536b5c8271f53564c","3","1","2025-07-30T08:54:21.079Z","","","","","","","","","","","ControlQ","","50","","","","","","","","","","","","","","","","","","","","","","","","","","","","",""
"3957","","<div style=""width:500px;"">
  <p>How would you describe your current emotional state?</p>
  </div>","100","html-slider-response","47","648153","0.0-5.0-3.7","265","1","2025-07-30 08:43:34","1f75c3e559b7213887762d5229550c2b","173.21.92.193","Mozilla/5.0 (Windows NT 10.0; Win64; x64) AppleWebKit/537.36 (KHTML, like Gecko) Chrome/138.0.0.0 Safari/537.36","WebKit","Chrome","138.0.0.0","Windows","10.0","https://app.prolific.com/","en-US,en;q=0.9","66f4c82536b5c8271f53564c","6877631c9844ddd5501205fc","6889dadbbdce7c64fe1cc2e4","3","1","66f4c82536b5c8271f53564c","3","1","2025-07-30T08:54:25.036Z","","","","","","","","","","","StressQ","","50","","","","","","","","","","","","","","","","","","","","","","","","","","","","",""
"3685","","<div style=""width:500px;"">
  <p>What best describes how you currently feel?</p>
  </div>","97","html-slider-response","48","651839","0.0-5.0-4.7","265","1","2025-07-30 08:43:34","1f75c3e559b7213887762d5229550c2b","173.21.92.193","Mozilla/5.0 (Windows NT 10.0; Win64; x64) AppleWebKit/537.36 (KHTML, like Gecko) Chrome/138.0.0.0 Safari/537.36","WebKit","Chrome","138.0.0.0","Windows","10.0","https://app.prolific.com/","en-US,en;q=0.9","66f4c82536b5c8271f53564c","6877631c9844ddd5501205fc","6889dadbbdce7c64fe1cc2e4","3","1","66f4c82536b5c8271f53564c","3","1","2025-07-30T08:54:28.722Z","","","","","","","","","","","MotivationQ","","50","","","","","","","","","","","","","","","","","","","","","","","","","","","","",""
"","","","","ctl-task-cpt","49","685733","0.0-5.0-0.8","265","1","2025-07-30 08:43:34","1f75c3e559b7213887762d5229550c2b","173.21.92.193","Mozilla/5.0 (Windows NT 10.0; Win64; x64) AppleWebKit/537.36 (KHTML, like Gecko) Chrome/138.0.0.0 Safari/537.36","WebKit","Chrome","138.0.0.0","Windows","10.0","https://app.prolific.com/","en-US,en;q=0.9","66f4c82536b5c8271f53564c","6877631c9844ddd5501205fc","6889dadbbdce7c64fe1cc2e4","3","1","66f4c82536b5c8271f53564c","3","1","2025-07-30T08:55:02.617Z","","","","","","","","","","","","","","win-only","0","g1:NW,g2:SE","0.2","9","0","655563.4","1161.3","6166.3","30875.5","1","4","8","6","2","8","8","8","0","0.06060606060606061","1260.3","3000","100","[""down"",""right""]","{""num_key_presses"":8,""num_perfect"":2,""num_errors"":0,""num_randdir"":6,""num_randdir_good_moves"":5,""num_whilered"":0,""num_whileblue"":0,""num_blue"":1,""num_good_moves"":7}","[458.8571428571429,456.7633928571429,0.2,458.8571428571429,456.7633928571429,104.2,458.8571428571429,456.7633928571429,210,458.8571428571429,456.7633928571429,315.1,458.8571428571429,456.7633928571429,419,463.8571428571429,462.7633928571429,520,595.8571428571429,651.7633928571429,633.9,595.8571428571429,651.7633928571429,735.2,595.8571428571429,651.7633928571429,835.2,782.8571428571429,820.7633928571429,950.1,786.8571428571429,825.7633928571429,1054.2,786.8571428571429,825.7633928571429,1155.1,786.8571428571429,825.7633928571429,1259.2,786.8571428571429,825.7633928571429,1366.1,786.8571428571429,825.7633928571429,1469.6,786.8571428571429,825.7633928571429,1582.8,786.8571428571429,825.7633928571429,1683.3,786.8571428571429,825.7633928571429,1785.3,786.8571428571429,825.7633928571429,1889.2,786.8571428571429,825.7633928571429,1999.1,786.8571428571429,825.7633928571429,2099.3,786.8571428571429,825.7633928571429,2199.9,786.8571428571429,825.7633928571429,2305,786.8571428571429,825.7633928571429,2415.8,786.8571428571429,825.7633928571429,2515.8,786.8571428571429,825.7633928571429,2620.7,786.8571428571429,825.7633928571429,2732.4,786.8571428571429,825.7633928571429,2834.3,786.8571428571429,825.7633928571429,2939.2,786.8571428571429,825.7633928571429,3039.6,786.8571428571429,825.7633928571429,3140.3,786.8571428571429,825.7633928571429,3249.2,786.8571428571429,825.7633928571429,3349.2,786.8571428571429,825.7633928571429,3454.5,786.8571428571429,825.7633928571429,3559.2,786.8571428571429,825.7633928571429,3660,786.8571428571429,825.7633928571429,3766.1,786.8571428571429,825.7633928571429,3869.5,786.8571428571429,825.7633928571429,3974.1,786.8571428571429,825.7633928571429,4079.2,786.8571428571429,825.7633928571429,4194.5,786.8571428571429,825.7633928571429,4295.1,786.8571428571429,825.7633928571429,4400.5,786.8571428571429,825.7633928571429,4504.2,786.8571428571429,825.7633928571429,4604.2,786.8571428571429,825.7633928571429,4704.2,786.8571428571429,825.7633928571429,4805.1,786.8571428571429,825.7633928571429,4906]","[1461.5,1461.5,1000,0,461.5,""smooth"",""right"",""right"",""good_move"",4010.9,2549,2132.5,1461.9,416.5,""oops"",""down"",""down"",""good_move"",6835.6,2824.4,2439.9,4011.2,384.5,""oops"",""left"",""left"",""bad_move"",9908.1,3072,2684.1,6836.1,388,""smooth"",""right"",""right"",""good_move"",11852,1943.4,1482.3,9908.6,461.1,""oops"",""right"",""down"",""good_move"",14737.9,2885.5,2514.8,11852.4,370.7,""oops"",""right"",""down"",""good_move"",21427.7,6689.3,2273.4,18796,358.3,""oops"",""right"",""right"",""good_move"",24605.9,3177.9,2701.4,21428,476.5,""oops"",""right"",""right"",""good_move""]","",""
"4750","","<div style=""width:500px;"">
  <p>What determined the result of this run?</p>
  </div>","0","html-slider-response","50","690485","0.0-5.0-1.8","265","1","2025-07-30 08:43:34","1f75c3e559b7213887762d5229550c2b","173.21.92.193","Mozilla/5.0 (Windows NT 10.0; Win64; x64) AppleWebKit/537.36 (KHTML, like Gecko) Chrome/138.0.0.0 Safari/537.36","WebKit","Chrome","138.0.0.0","Windows","10.0","https://app.prolific.com/","en-US,en;q=0.9","66f4c82536b5c8271f53564c","6877631c9844ddd5501205fc","6889dadbbdce7c64fe1cc2e4","3","1","66f4c82536b5c8271f53564c","3","1","2025-07-30T08:55:07.368Z","","","","","","","","","","","AttribQ","","50","","","","","","","","","","","","","","","","","","","","","","","","","","","","",""
"4035","","<div style=""width:500px;"">
  <p>How much control did you have over the ball?</p>
  </div>","23","html-slider-response","51","694521","0.0-5.0-2.8","265","1","2025-07-30 08:43:34","1f75c3e559b7213887762d5229550c2b","173.21.92.193","Mozilla/5.0 (Windows NT 10.0; Win64; x64) AppleWebKit/537.36 (KHTML, like Gecko) Chrome/138.0.0.0 Safari/537.36","WebKit","Chrome","138.0.0.0","Windows","10.0","https://app.prolific.com/","en-US,en;q=0.9","66f4c82536b5c8271f53564c","6877631c9844ddd5501205fc","6889dadbbdce7c64fe1cc2e4","3","1","66f4c82536b5c8271f53564c","3","1","2025-07-30T08:55:11.404Z","","","","","","","","","","","ControlQ","","50","","","","","","","","","","","","","","","","","","","","","","","","","","","","",""
"3384","","<div style=""width:500px;"">
  <p>How would you describe your current emotional state?</p>
  </div>","100","html-slider-response","52","697905","0.0-5.0-3.8","265","1","2025-07-30 08:43:34","1f75c3e559b7213887762d5229550c2b","173.21.92.193","Mozilla/5.0 (Windows NT 10.0; Win64; x64) AppleWebKit/537.36 (KHTML, like Gecko) Chrome/138.0.0.0 Safari/537.36","WebKit","Chrome","138.0.0.0","Windows","10.0","https://app.prolific.com/","en-US,en;q=0.9","66f4c82536b5c8271f53564c","6877631c9844ddd5501205fc","6889dadbbdce7c64fe1cc2e4","3","1","66f4c82536b5c8271f53564c","3","1","2025-07-30T08:55:14.789Z","","","","","","","","","","","StressQ","","50","","","","","","","","","","","","","","","","","","","","","","","","","","","","",""
"2599","","<div style=""width:500px;"">
  <p>What best describes how you currently feel?</p>
  </div>","100","html-slider-response","53","700505","0.0-5.0-4.8","265","1","2025-07-30 08:43:34","1f75c3e559b7213887762d5229550c2b","173.21.92.193","Mozilla/5.0 (Windows NT 10.0; Win64; x64) AppleWebKit/537.36 (KHTML, like Gecko) Chrome/138.0.0.0 Safari/537.36","WebKit","Chrome","138.0.0.0","Windows","10.0","https://app.prolific.com/","en-US,en;q=0.9","66f4c82536b5c8271f53564c","6877631c9844ddd5501205fc","6889dadbbdce7c64fe1cc2e4","3","1","66f4c82536b5c8271f53564c","3","1","2025-07-30T08:55:17.389Z","","","","","","","","","","","MotivationQ","","50","","","","","","","","","","","","","","","","","","","","","","","","","","","","",""
"","","","","ctl-task-cpt","54","731004","0.0-5.0-0.9","265","1","2025-07-30 08:43:34","1f75c3e559b7213887762d5229550c2b","173.21.92.193","Mozilla/5.0 (Windows NT 10.0; Win64; x64) AppleWebKit/537.36 (KHTML, like Gecko) Chrome/138.0.0.0 Safari/537.36","WebKit","Chrome","138.0.0.0","Windows","10.0","https://app.prolific.com/","en-US,en;q=0.9","66f4c82536b5c8271f53564c","6877631c9844ddd5501205fc","6889dadbbdce7c64fe1cc2e4","3","1","66f4c82536b5c8271f53564c","3","1","2025-07-30T08:55:47.887Z","","","","","","","","","","","","","","win-only","0","g1:NW,g2:SE","0.4","10","0","704229.6","1158.9","6161.4","27480.4","1","4","4","6","2","4","4","12","8","0.09090909090909091","1500.1","3000","1080","[""down"",""right""]","{""num_key_presses"":6,""num_perfect"":4,""num_errors"":0,""num_randdir"":2,""num_randdir_good_moves"":2,""num_whilered"":0,""num_whileblue"":0,""num_blue"":1,""num_good_moves"":6}","[461.8571428571429,469.7633928571429,0.2,461.8571428571429,469.7633928571429,102.2,461.8571428571429,469.7633928571429,207.9,461.8571428571429,469.7633928571429,319.9,461.8571428571429,469.7633928571429,422,461.8571428571429,469.7633928571429,527.4,461.8571428571429,469.7633928571429,631.8,666.8571428571429,665.7633928571429,732.7,740.8571428571429,783.7633928571429,836.5,740.8571428571429,783.7633928571429,936.9,740.8571428571429,783.7633928571429,1053.1,740.8571428571429,783.7633928571429,1153.5,740.8571428571429,783.7633928571429,1254.3,853.8571428571429,848.7633928571429,1356.3,853.8571428571429,848.7633928571429,1457.7,853.8571428571429,848.7633928571429,1562.1,853.8571428571429,848.7633928571429,1666.7,853.8571428571429,848.7633928571429,1766.7,853.8571428571429,848.7633928571429,1871.9,853.8571428571429,848.7633928571429,1972,853.8571428571429,848.7633928571429,2087.1,853.8571428571429,848.7633928571429,2188.1,853.8571428571429,848.7633928571429,2291.5,853.8571428571429,848.7633928571429,2392.8,853.8571428571429,848.7633928571429,2496.4,853.8571428571429,848.7633928571429,2597.1,853.8571428571429,848.7633928571429,2702.8,853.8571428571429,848.7633928571429,2819.5,853.8571428571429,848.7633928571429,2920.4,853.8571428571429,848.7633928571429,3021.6,853.8571428571429,848.7633928571429,3126.6,853.8571428571429,848.7633928571429,3226.7,853.8571428571429,848.7633928571429,3331.8,853.8571428571429,848.7633928571429,3432.4,853.8571428571429,848.7633928571429,3532.8,853.8571428571429,848.7633928571429,3636.7,853.8571428571429,848.7633928571429,3742.3,853.8571428571429,848.7633928571429,3843,853.8571428571429,848.7633928571429,3946.4,853.8571428571429,848.7633928571429,4046.7,853.8571428571429,848.7633928571429,4146.7,853.8571428571429,848.7633928571429,4247.3,853.8571428571429,848.7633928571429,4352.4,853.8571428571429,848.7633928571429,4457.1,853.8571428571429,848.7633928571429,4572.4,853.8571428571429,848.7633928571429,4674.3,853.8571428571429,848.7633928571429,4777.5,853.8571428571429,848.7633928571429,4887.4,853.8571428571429,848.7633928571429,4992.4]","[1382.4,1382.5,1000,0,382.5,""smooth"",""right"",""right"",""good_move"",4149.4,2766.4,2308.6,1383,457.8,""smooth"",""right"",""right"",""good_move"",7117.9,2968.2,2593.4,4149.7,374.8,""oops"",""down"",""right"",""good_move"",11067.4,3949.3,3349.3,7118.1,600,""oops"",""down"",""down"",""good_move"",18147.6,7079.9,2976.3,14704.8,466.5,""smooth"",""down"",""down"",""good_move"",21208.5,3060.6,2612.9,18147.9,447.7,""smooth"",""down"",""down"",""good_move""]","",""
"5977","","<div style=""width:500px;"">
  <p>What determined the result of this run?</p>
  </div>","0","html-slider-response","55","736982","0.0-5.0-1.9","265","1","2025-07-30 08:43:34","1f75c3e559b7213887762d5229550c2b","173.21.92.193","Mozilla/5.0 (Windows NT 10.0; Win64; x64) AppleWebKit/537.36 (KHTML, like Gecko) Chrome/138.0.0.0 Safari/537.36","WebKit","Chrome","138.0.0.0","Windows","10.0","https://app.prolific.com/","en-US,en;q=0.9","66f4c82536b5c8271f53564c","6877631c9844ddd5501205fc","6889dadbbdce7c64fe1cc2e4","3","1","66f4c82536b5c8271f53564c","3","1","2025-07-30T08:55:53.865Z","","","","","","","","","","","AttribQ","","50","","","","","","","","","","","","","","","","","","","","","","","","","","","","",""
"4425","","<div style=""width:500px;"">
  <p>How much control did you have over the ball?</p>
  </div>","100","html-slider-response","56","741408","0.0-5.0-2.9","265","1","2025-07-30 08:43:34","1f75c3e559b7213887762d5229550c2b","173.21.92.193","Mozilla/5.0 (Windows NT 10.0; Win64; x64) AppleWebKit/537.36 (KHTML, like Gecko) Chrome/138.0.0.0 Safari/537.36","WebKit","Chrome","138.0.0.0","Windows","10.0","https://app.prolific.com/","en-US,en;q=0.9","66f4c82536b5c8271f53564c","6877631c9844ddd5501205fc","6889dadbbdce7c64fe1cc2e4","3","1","66f4c82536b5c8271f53564c","3","1","2025-07-30T08:55:58.291Z","","","","","","","","","","","ControlQ","","50","","","","","","","","","","","","","","","","","","","","","","","","","","","","",""
"4682","","<div style=""width:500px;"">
  <p>How would you describe your current emotional state?</p>
  </div>","100","html-slider-response","57","746092","0.0-5.0-3.9","265","1","2025-07-30 08:43:34","1f75c3e559b7213887762d5229550c2b","173.21.92.193","Mozilla/5.0 (Windows NT 10.0; Win64; x64) AppleWebKit/537.36 (KHTML, like Gecko) Chrome/138.0.0.0 Safari/537.36","WebKit","Chrome","138.0.0.0","Windows","10.0","https://app.prolific.com/","en-US,en;q=0.9","66f4c82536b5c8271f53564c","6877631c9844ddd5501205fc","6889dadbbdce7c64fe1cc2e4","3","1","66f4c82536b5c8271f53564c","3","1","2025-07-30T08:56:02.975Z","","","","","","","","","","","StressQ","","50","","","","","","","","","","","","","","","","","","","","","","","","","","","","",""
"4698","","<div style=""width:500px;"">
  <p>What best describes how you currently feel?</p>
  </div>","100","html-slider-response","58","750791","0.0-5.0-4.9","265","1","2025-07-30 08:43:34","1f75c3e559b7213887762d5229550c2b","173.21.92.193","Mozilla/5.0 (Windows NT 10.0; Win64; x64) AppleWebKit/537.36 (KHTML, like Gecko) Chrome/138.0.0.0 Safari/537.36","WebKit","Chrome","138.0.0.0","Windows","10.0","https://app.prolific.com/","en-US,en;q=0.9","66f4c82536b5c8271f53564c","6877631c9844ddd5501205fc","6889dadbbdce7c64fe1cc2e4","3","1","66f4c82536b5c8271f53564c","3","1","2025-07-30T08:56:07.675Z","","","","","","","","","","","MotivationQ","","50","","","","","","","","","","","","","","","","","","","","","","","","","","","","",""
"","","","","ctl-task-cpt","59","790768","0.0-5.0-0.10","265","1","2025-07-30 08:43:34","1f75c3e559b7213887762d5229550c2b","173.21.92.193","Mozilla/5.0 (Windows NT 10.0; Win64; x64) AppleWebKit/537.36 (KHTML, like Gecko) Chrome/138.0.0.0 Safari/537.36","WebKit","Chrome","138.0.0.0","Windows","10.0","https://app.prolific.com/","en-US,en;q=0.9","66f4c82536b5c8271f53564c","6877631c9844ddd5501205fc","6889dadbbdce7c64fe1cc2e4","3","1","66f4c82536b5c8271f53564c","3","1","2025-07-30T08:56:47.651Z","","","","","","","","","","","","","","win-only","1","g1:NE,g2:SW","0.5","11","0","754518","1202.7","6206.3","36950.4","1","4","4","6","2","-4","-4","8","12","0.06060606060606061","1298.6","3000","-2110","[""down"",""left""]","{""num_key_presses"":8,""num_perfect"":4,""num_errors"":0,""num_randdir"":4,""num_randdir_good_moves"":1,""num_whilered"":0,""num_whileblue"":0,""num_blue"":2,""num_good_moves"":4}","[468.8571428571429,464.7633928571429,0.3,468.8571428571429,464.7633928571429,103.4,468.8571428571429,464.7633928571429,214.6,468.8571428571429,464.7633928571429,318.9,468.8571428571429,464.7633928571429,421.4,468.8571428571429,464.7633928571429,522.7,468.8571428571429,464.7633928571429,622.9,468.8571428571429,464.7633928571429,724.4,186.85714285714286,741.7633928571429,836,103.85714285714286,810.7633928571429,938.4,81.85714285714286,821.7633928571429,1043.7,77.85714285714286,834.7633928571429,1154.1,77.85714285714286,834.7633928571429,1266.5,77.85714285714286,834.7633928571429,1366.8,77.85714285714286,834.7633928571429,1470.8,77.85714285714286,834.7633928571429,1573.1,77.85714285714286,834.7633928571429,1678.4,77.85714285714286,834.7633928571429,1782.6,77.85714285714286,834.7633928571429,1883.1,77.85714285714286,834.7633928571429,1987.6,77.85714285714286,834.7633928571429,2088.7,77.85714285714286,834.7633928571429,2193.7,77.85714285714286,834.7633928571429,2301.1,77.85714285714286,834.7633928571429,2402.9,77.85714285714286,834.7633928571429,2509.3,77.85714285714286,834.7633928571429,2613.6,77.85714285714286,834.7633928571429,2714.2,77.85714285714286,834.7633928571429,2817.9,77.85714285714286,834.7633928571429,2923.1,77.85714285714286,834.7633928571429,3034.5,77.85714285714286,834.7633928571429,3137.9,77.85714285714286,834.7633928571429,3237.9,77.85714285714286,834.7633928571429,3339.1,77.85714285714286,834.7633928571429,3448.5,77.85714285714286,834.7633928571429,3549.4,77.85714285714286,834.7633928571429,3653,77.85714285714286,834.7633928571429,3757.6,77.85714285714286,834.7633928571429,3858.1,77.85714285714286,834.7633928571429,3967.5,77.85714285714286,834.7633928571429,4069.3,77.85714285714286,834.7633928571429,4173.2,77.85714285714286,834.7633928571429,4278.6,77.85714285714286,834.7633928571429,4382.5,77.85714285714286,834.7633928571429,4482.6,77.85714285714286,834.7633928571429,4582.7,77.85714285714286,834.7633928571429,4683,77.85714285714286,834.7633928571429,4787.9,77.85714285714286,834.7633928571429,4888.7,77.85714285714286,834.7633928571429,4988.7]","[1681.3,1681.3,1000,0,681.3,""oops"",""down"",""right"",""bad_move"",3937,2255.3,1690,1681.8,565.2,""smooth"",""left"",""left"",""good_move"",6598,2660.5,2186.7,3937.6,473.8,""oops"",""left"",""right"",""bad_move"",9431.5,2833.3,2459.3,6598.2,374,""oops"",""down"",""up"",""bad_move"",11858.1,2426.2,2075.2,9431.9,351,""oops"",""up"",""down"",""good_move"",15171.2,3312.8,2954.5,11858.4,358.3,""smooth"",""up"",""up"",""bad_move"",22074.2,6902.7,3035.5,18668.9,369.8,""smooth"",""left"",""left"",""good_move"",27758.7,5684.2,1965,25354.3,439.4,""smooth"",""down"",""down"",""good_move""]","",""
"10733","","<div style=""width:500px;"">
  <p>What determined the result of this run?</p>
  </div>","0","html-slider-response","60","801502","0.0-5.0-1.10","265","1","2025-07-30 08:43:34","1f75c3e559b7213887762d5229550c2b","173.21.92.193","Mozilla/5.0 (Windows NT 10.0; Win64; x64) AppleWebKit/537.36 (KHTML, like Gecko) Chrome/138.0.0.0 Safari/537.36","WebKit","Chrome","138.0.0.0","Windows","10.0","https://app.prolific.com/","en-US,en;q=0.9","66f4c82536b5c8271f53564c","6877631c9844ddd5501205fc","6889dadbbdce7c64fe1cc2e4","3","1","66f4c82536b5c8271f53564c","3","1","2025-07-30T08:56:58.385Z","","","","","","","","","","","AttribQ","","50","","","","","","","","","","","","","","","","","","","","","","","","","","","","",""
"13939","","<div style=""width:500px;"">
  <p>How much control did you have over the ball?</p>
  </div>","0","html-slider-response","61","815444","0.0-5.0-2.10","265","1","2025-07-30 08:43:34","1f75c3e559b7213887762d5229550c2b","173.21.92.193","Mozilla/5.0 (Windows NT 10.0; Win64; x64) AppleWebKit/537.36 (KHTML, like Gecko) Chrome/138.0.0.0 Safari/537.36","WebKit","Chrome","138.0.0.0","Windows","10.0","https://app.prolific.com/","en-US,en;q=0.9","66f4c82536b5c8271f53564c","6877631c9844ddd5501205fc","6889dadbbdce7c64fe1cc2e4","3","1","66f4c82536b5c8271f53564c","3","1","2025-07-30T08:57:12.327Z","","","","","","","","","","","ControlQ","","50","","","","","","","","","","","","","","","","","","","","","","","","","","","","",""
"5828","","<div style=""width:500px;"">
  <p>How would you describe your current emotional state?</p>
  </div>","100","html-slider-response","62","821275","0.0-5.0-3.10","265","1","2025-07-30 08:43:34","1f75c3e559b7213887762d5229550c2b","173.21.92.193","Mozilla/5.0 (Windows NT 10.0; Win64; x64) AppleWebKit/537.36 (KHTML, like Gecko) Chrome/138.0.0.0 Safari/537.36","WebKit","Chrome","138.0.0.0","Windows","10.0","https://app.prolific.com/","en-US,en;q=0.9","66f4c82536b5c8271f53564c","6877631c9844ddd5501205fc","6889dadbbdce7c64fe1cc2e4","3","1","66f4c82536b5c8271f53564c","3","1","2025-07-30T08:57:18.159Z","","","","","","","","","","","StressQ","","50","","","","","","","","","","","","","","","","","","","","","","","","","","","","",""
"20404","","<div style=""width:500px;"">
  <p>What best describes how you currently feel?</p>
  </div>","98","html-slider-response","63","841682","0.0-5.0-4.10","265","1","2025-07-30 08:43:34","1f75c3e559b7213887762d5229550c2b","173.21.92.193","Mozilla/5.0 (Windows NT 10.0; Win64; x64) AppleWebKit/537.36 (KHTML, like Gecko) Chrome/138.0.0.0 Safari/537.36","WebKit","Chrome","138.0.0.0","Windows","10.0","https://app.prolific.com/","en-US,en;q=0.9","66f4c82536b5c8271f53564c","6877631c9844ddd5501205fc","6889dadbbdce7c64fe1cc2e4","3","1","66f4c82536b5c8271f53564c","3","1","2025-07-30T08:57:38.565Z","","","","","","","","","","","MotivationQ","","50","","","","","","","","","","","","","","","","","","","","","","","","","","","","",""
"","","","","ctl-task-cpt","64","877435","0.0-5.0-0.11","265","1","2025-07-30 08:43:34","1f75c3e559b7213887762d5229550c2b","173.21.92.193","Mozilla/5.0 (Windows NT 10.0; Win64; x64) AppleWebKit/537.36 (KHTML, like Gecko) Chrome/138.0.0.0 Safari/537.36","WebKit","Chrome","138.0.0.0","Windows","10.0","https://app.prolific.com/","en-US,en;q=0.9","66f4c82536b5c8271f53564c","6877631c9844ddd5501205fc","6889dadbbdce7c64fe1cc2e4","3","1","66f4c82536b5c8271f53564c","3","1","2025-07-30T08:58:14.318Z","","","","","","","","","","","","","","win-only","3","g1:SW,g2:NE","0.6","12","0","845408","2247.5","7249.2","32733.2","1","4","8","6","2","8","8","16","8","0.12121212121212122","1019.6","3000","340","[""up"",""right""]","{""num_key_presses"":8,""num_perfect"":4,""num_errors"":0,""num_randdir"":4,""num_randdir_good_moves"":3,""num_whilered"":0,""num_whileblue"":0,""num_blue"":1,""num_good_moves"":7}","[452.8571428571429,466.7633928571429,0.3,452.8571428571429,466.7633928571429,105.3,452.8571428571429,466.7633928571429,216.9,452.8571428571429,466.7633928571429,319.9,452.8571428571429,466.7633928571429,424.6,452.8571428571429,466.7633928571429,528.2,463.8571428571429,449.7633928571429,628.9,778.8571428571429,158.76339285714286,729.5,849.8571428571429,87.76339285714286,833,849.8571428571429,87.76339285714286,933.8,849.8571428571429,87.76339285714286,1033.9,849.8571428571429,87.76339285714286,1137.1,849.8571428571429,87.76339285714286,1238.3,849.8571428571429,87.76339285714286,1343.5,849.8571428571429,87.76339285714286,1444.1,849.8571428571429,87.76339285714286,1544.3,849.8571428571429,87.76339285714286,1649.3,849.8571428571429,87.76339285714286,1752.8,849.8571428571429,87.76339285714286,1853.5,849.8571428571429,87.76339285714286,1970.4,849.8571428571429,87.76339285714286,2073.9,849.8571428571429,87.76339285714286,2174.5,849.8571428571429,87.76339285714286,2278.9,849.8571428571429,87.76339285714286,2383.1,849.8571428571429,87.76339285714286,2483.6,849.8571428571429,87.76339285714286,2583.9,849.8571428571429,87.76339285714286,2688.4,849.8571428571429,87.76339285714286,2788.9,849.8571428571429,87.76339285714286,2905.3,849.8571428571429,87.76339285714286,3005.4,849.8571428571429,87.76339285714286,3108.1,849.8571428571429,87.76339285714286,3208.4,849.8571428571429,87.76339285714286,3308.4,849.8571428571429,87.76339285714286,3413.2,849.8571428571429,87.76339285714286,3518.3,849.8571428571429,87.76339285714286,3618.3,849.8571428571429,87.76339285714286,3736.9,849.8571428571429,87.76339285714286,3838.6,849.8571428571429,87.76339285714286,3938.8,849.8571428571429,87.76339285714286,4044.6,849.8571428571429,87.76339285714286,4144.6,849.8571428571429,87.76339285714286,4249.2,849.8571428571429,87.76339285714286,4350.1,849.8571428571429,87.76339285714286,4454.1,849.8571428571429,87.76339285714286,4569.7,849.8571428571429,87.76339285714286,4673.7,849.8571428571429,87.76339285714286,4778.7,849.8571428571429,87.76339285714286,4879,849.8571428571429,87.76339285714286,4983.9]","[1368.3,1368.3,1000,0,368.3,""oops"",""right"",""right"",""good_move"",3964.3,2595.6,2238.1,1368.7,357.5,""smooth"",""right"",""right"",""good_move"",7445.5,3481,3111.2,3964.5,369.8,""oops"",""up"",""right"",""good_move"",9987.8,2542,2199.2,7445.9,342.8,""smooth"",""up"",""up"",""good_move"",13612.7,3624.2,3280.9,9988.5,343.3,""oops"",""up"",""down"",""bad_move"",18994.2,5381,2357.6,16282.6,354,""smooth"",""up"",""up"",""good_move"",21899.3,2904.6,2334.9,18994.7,569.7,""smooth"",""up"",""up"",""good_move"",25351.8,3452.3,2950.5,21899.6,501.7,""oops"",""up"",""up"",""good_move""]","",""
"15363","","<div style=""width:500px;"">
  <p>What determined the result of this run?</p>
  </div>","0","html-slider-response","65","892800","0.0-5.0-1.11","265","1","2025-07-30 08:43:34","1f75c3e559b7213887762d5229550c2b","173.21.92.193","Mozilla/5.0 (Windows NT 10.0; Win64; x64) AppleWebKit/537.36 (KHTML, like Gecko) Chrome/138.0.0.0 Safari/537.36","WebKit","Chrome","138.0.0.0","Windows","10.0","https://app.prolific.com/","en-US,en;q=0.9","66f4c82536b5c8271f53564c","6877631c9844ddd5501205fc","6889dadbbdce7c64fe1cc2e4","3","1","66f4c82536b5c8271f53564c","3","1","2025-07-30T08:58:29.683Z","","","","","","","","","","","AttribQ","","50","","","","","","","","","","","","","","","","","","","","","","","","","","","","",""
"5882","","<div style=""width:500px;"">
  <p>How much control did you have over the ball?</p>
  </div>","100","html-slider-response","66","898682","0.0-5.0-2.11","265","1","2025-07-30 08:43:34","1f75c3e559b7213887762d5229550c2b","173.21.92.193","Mozilla/5.0 (Windows NT 10.0; Win64; x64) AppleWebKit/537.36 (KHTML, like Gecko) Chrome/138.0.0.0 Safari/537.36","WebKit","Chrome","138.0.0.0","Windows","10.0","https://app.prolific.com/","en-US,en;q=0.9","66f4c82536b5c8271f53564c","6877631c9844ddd5501205fc","6889dadbbdce7c64fe1cc2e4","3","1","66f4c82536b5c8271f53564c","3","1","2025-07-30T08:58:35.565Z","","","","","","","","","","","ControlQ","","50","","","","","","","","","","","","","","","","","","","","","","","","","","","","",""
"27449","","<div style=""width:500px;"">
  <p>How would you describe your current emotional state?</p>
  </div>","100","html-slider-response","67","926133","0.0-5.0-3.11","265","1","2025-07-30 08:43:34","1f75c3e559b7213887762d5229550c2b","173.21.92.193","Mozilla/5.0 (Windows NT 10.0; Win64; x64) AppleWebKit/537.36 (KHTML, like Gecko) Chrome/138.0.0.0 Safari/537.36","WebKit","Chrome","138.0.0.0","Windows","10.0","https://app.prolific.com/","en-US,en;q=0.9","66f4c82536b5c8271f53564c","6877631c9844ddd5501205fc","6889dadbbdce7c64fe1cc2e4","3","1","66f4c82536b5c8271f53564c","3","1","2025-07-30T08:59:03.016Z","","","","","","","","","","","StressQ","","50","","","","","","","","","","","","","","","","","","","","","","","","","","","","",""
"3483","","<div style=""width:500px;"">
  <p>What best describes how you currently feel?</p>
  </div>","96","html-slider-response","68","929617","0.0-5.0-4.11","265","1","2025-07-30 08:43:34","1f75c3e559b7213887762d5229550c2b","173.21.92.193","Mozilla/5.0 (Windows NT 10.0; Win64; x64) AppleWebKit/537.36 (KHTML, like Gecko) Chrome/138.0.0.0 Safari/537.36","WebKit","Chrome","138.0.0.0","Windows","10.0","https://app.prolific.com/","en-US,en;q=0.9","66f4c82536b5c8271f53564c","6877631c9844ddd5501205fc","6889dadbbdce7c64fe1cc2e4","3","1","66f4c82536b5c8271f53564c","3","1","2025-07-30T08:59:06.500Z","","","","","","","","","","","MotivationQ","","50","","","","","","","","","","","","","","","","","","","","","","","","","","","","",""
"","","","","ctl-task-cpt","69","1005494","0.0-5.0-0.12","265","1","2025-07-30 08:43:34","1f75c3e559b7213887762d5229550c2b","173.21.92.193","Mozilla/5.0 (Windows NT 10.0; Win64; x64) AppleWebKit/537.36 (KHTML, like Gecko) Chrome/138.0.0.0 Safari/537.36","WebKit","Chrome","138.0.0.0","Windows","10.0","https://app.prolific.com/","en-US,en;q=0.9","66f4c82536b5c8271f53564c","6877631c9844ddd5501205fc","6889dadbbdce7c64fe1cc2e4","3","1","66f4c82536b5c8271f53564c","3","1","2025-07-30T09:00:22.377Z","","","","","","","","","","","","","","win-only","1","g1:NE,g2:SW","0.7","13","0","933342.4","2211.9","7241.2","72850.8","1","4","4","6","2","4","4","20","16","0.15151515151515152","1188","3000","1835","[""down"",""left""]","{""num_key_presses"":14,""num_perfect"":10,""num_errors"":0,""num_randdir"":4,""num_randdir_good_moves"":0,""num_whilered"":0,""num_whileblue"":0,""num_blue"":1,""num_good_moves"":10}","[461.8571428571429,456.7633928571429,0.1,461.8571428571429,456.7633928571429,121.1,461.8571428571429,456.7633928571429,255.9,461.8571428571429,456.7633928571429,361.7,461.8571428571429,456.7633928571429,498.4,417.8571428571429,485.7633928571429,605.8,146.85714285714286,786.7633928571429,717.6,139.85714285714286,793.7633928571429,829.2,111.85714285714286,860.7633928571429,942.9,109.85714285714286,870.7633928571429,1045,109.85714285714286,870.7633928571429,1149,109.85714285714286,870.7633928571429,1260.7,109.85714285714286,870.7633928571429,1364.7,109.85714285714286,870.7633928571429,1471.7,109.85714285714286,870.7633928571429,1579.9,109.85714285714286,870.7633928571429,1685.4,109.85714285714286,870.7633928571429,1798,109.85714285714286,870.7633928571429,1899.3,109.85714285714286,870.7633928571429,1999.4,109.85714285714286,870.7633928571429,2101.5,109.85714285714286,870.7633928571429,2201.5,109.85714285714286,870.7633928571429,2302.2,109.85714285714286,870.7633928571429,2402.3,109.85714285714286,870.7633928571429,2530.9,109.85714285714286,870.7633928571429,2631.3,109.85714285714286,870.7633928571429,2759.9,109.85714285714286,870.7633928571429,2867.8,109.85714285714286,870.7633928571429,2998.2,109.85714285714286,870.7633928571429,3132.4,109.85714285714286,870.7633928571429,3237.9,109.85714285714286,870.7633928571429,3339.9,109.85714285714286,870.7633928571429,3446.3,109.85714285714286,870.7633928571429,3582.3,109.85714285714286,870.7633928571429,3688.9,109.85714285714286,870.7633928571429,3789.5,109.85714285714286,870.7633928571429,3891,109.85714285714286,870.7633928571429,3994.2,109.85714285714286,870.7633928571429,4128.7,109.85714285714286,870.7633928571429,4232.3,109.85714285714286,870.7633928571429,4338.3,109.85714285714286,870.7633928571429,4449.4,109.85714285714286,870.7633928571429,4553.5,109.85714285714286,870.7633928571429,4657.6,109.85714285714286,870.7633928571429,4789,109.85714285714286,870.7633928571429,4892.8,109.85714285714286,870.7633928571429,4995.1]","[5664.3,5664.3,3093.3,2047.8,523.2,""smooth"",""down"",""down"",""good_move"",9036.5,3371.8,2907.1,5664.7,464.7,""smooth"",""left"",""left"",""good_move"",15321.9,6284.9,2086.4,9037.1,4198.4,""smooth"",""down"",""down"",""good_move"",18005,2682.8,1960.6,15322.2,722.2,""oops"",""down"",""up"",""bad_move"",24430.7,6425.2,2591.5,18005.5,3833.7,""oops"",""down"",""right"",""bad_move"",27559.5,3128.5,2405,24431,723.5,""smooth"",""down"",""down"",""good_move"",30643.6,3083.9,2487.7,27559.7,596.2,""smooth"",""down"",""down"",""good_move"",34252.1,3608,3075.6,30644.1,532.4,""smooth"",""left"",""left"",""good_move"",41182.2,6929.8,2328,34252.4,4601.8,""oops"",""left"",""up"",""bad_move"",47790.8,6608.4,2689.9,41182.4,3918.5,""smooth"",""left"",""left"",""good_move"",54778.8,6987.9,2499.6,47791,4488.2,""smooth"",""down"",""down"",""good_move"",58416.4,3637.3,2928.3,54779.1,709,""oops"",""left"",""right"",""bad_move"",61284.6,2867.8,2452.4,58416.8,415.4,""smooth"",""left"",""left"",""good_move"",65479,4194.2,3068.5,61284.8,1125.7,""smooth"",""left"",""left"",""good_move""]","",""
"7071","","<div style=""width:500px;"">
  <p>What determined the result of this run?</p>
  </div>","0","html-slider-response","70","1012567","0.0-5.0-1.12","265","1","2025-07-30 08:43:34","1f75c3e559b7213887762d5229550c2b","173.21.92.193","Mozilla/5.0 (Windows NT 10.0; Win64; x64) AppleWebKit/537.36 (KHTML, like Gecko) Chrome/138.0.0.0 Safari/537.36","WebKit","Chrome","138.0.0.0","Windows","10.0","https://app.prolific.com/","en-US,en;q=0.9","66f4c82536b5c8271f53564c","6877631c9844ddd5501205fc","6889dadbbdce7c64fe1cc2e4","3","1","66f4c82536b5c8271f53564c","3","1","2025-07-30T09:00:29.450Z","","","","","","","","","","","AttribQ","","50","","","","","","","","","","","","","","","","","","","","","","","","","","","","",""
"4064","","<div style=""width:500px;"">
  <p>How much control did you have over the ball?</p>
  </div>","100","html-slider-response","71","1016632","0.0-5.0-2.12","265","1","2025-07-30 08:43:34","1f75c3e559b7213887762d5229550c2b","173.21.92.193","Mozilla/5.0 (Windows NT 10.0; Win64; x64) AppleWebKit/537.36 (KHTML, like Gecko) Chrome/138.0.0.0 Safari/537.36","WebKit","Chrome","138.0.0.0","Windows","10.0","https://app.prolific.com/","en-US,en;q=0.9","66f4c82536b5c8271f53564c","6877631c9844ddd5501205fc","6889dadbbdce7c64fe1cc2e4","3","1","66f4c82536b5c8271f53564c","3","1","2025-07-30T09:00:33.515Z","","","","","","","","","","","ControlQ","","50","","","","","","","","","","","","","","","","","","","","","","","","","","","","",""
"3582","","<div style=""width:500px;"">
  <p>How would you describe your current emotional state?</p>
  </div>","100","html-slider-response","72","1020216","0.0-5.0-3.12","265","1","2025-07-30 08:43:34","1f75c3e559b7213887762d5229550c2b","173.21.92.193","Mozilla/5.0 (Windows NT 10.0; Win64; x64) AppleWebKit/537.36 (KHTML, like Gecko) Chrome/138.0.0.0 Safari/537.36","WebKit","Chrome","138.0.0.0","Windows","10.0","https://app.prolific.com/","en-US,en;q=0.9","66f4c82536b5c8271f53564c","6877631c9844ddd5501205fc","6889dadbbdce7c64fe1cc2e4","3","1","66f4c82536b5c8271f53564c","3","1","2025-07-30T09:00:37.099Z","","","","","","","","","","","StressQ","","50","","","","","","","","","","","","","","","","","","","","","","","","","","","","",""
"5962","","<div style=""width:500px;"">
  <p>What best describes how you currently feel?</p>
  </div>","100","html-slider-response","73","1026178","0.0-5.0-4.12","265","1","2025-07-30 08:43:34","1f75c3e559b7213887762d5229550c2b","173.21.92.193","Mozilla/5.0 (Windows NT 10.0; Win64; x64) AppleWebKit/537.36 (KHTML, like Gecko) Chrome/138.0.0.0 Safari/537.36","WebKit","Chrome","138.0.0.0","Windows","10.0","https://app.prolific.com/","en-US,en;q=0.9","66f4c82536b5c8271f53564c","6877631c9844ddd5501205fc","6889dadbbdce7c64fe1cc2e4","3","1","66f4c82536b5c8271f53564c","3","1","2025-07-30T09:00:43.061Z","","","","","","","","","","","MotivationQ","","50","","","","","","","","","","","","","","","","","","","","","","","","","","","","",""
"","","","","ctl-task-cpt","74","1056914","0.0-5.0-0.13","265","1","2025-07-30 08:43:34","1f75c3e559b7213887762d5229550c2b","173.21.92.193","Mozilla/5.0 (Windows NT 10.0; Win64; x64) AppleWebKit/537.36 (KHTML, like Gecko) Chrome/138.0.0.0 Safari/537.36","WebKit","Chrome","138.0.0.0","Windows","10.0","https://app.prolific.com/","en-US,en;q=0.9","66f4c82536b5c8271f53564c","6877631c9844ddd5501205fc","6889dadbbdce7c64fe1cc2e4","3","1","66f4c82536b5c8271f53564c","3","1","2025-07-30T09:01:13.797Z","","","","","","","","","","","","","","win-only","2","g1:SE,g2:NW","0.8","14","0","1029902.5","3150.8","8155.6","27711.7","1","4","8","6","2","8","8","28","20","0.21212121212121213","1254.1","3000","1580","[""left"",""up""]","{""num_key_presses"":8,""num_perfect"":7,""num_errors"":0,""num_randdir"":1,""num_randdir_good_moves"":0,""num_whilered"":0,""num_whileblue"":0,""num_blue"":0,""num_good_moves"":7}","[468.8571428571429,466.7633928571429,0.2,468.8571428571429,466.7633928571429,109.4,468.8571428571429,466.7633928571429,215.6,468.8571428571429,466.7633928571429,319,468.8571428571429,466.7633928571429,422.9,468.8571428571429,466.7633928571429,525.5,468.8571428571429,466.7633928571429,633.5,416.8571428571429,423.7633928571429,735.8,182.85714285714286,191.76339285714286,837.6,148.85714285714286,155.76339285714286,949.1,132.85714285714286,136.76339285714286,1051.9,132.85714285714286,136.76339285714286,1153.9,132.85714285714286,136.76339285714286,1263.7,132.85714285714286,136.76339285714286,1372.9,132.85714285714286,136.76339285714286,1479.5,132.85714285714286,136.76339285714286,1586,132.85714285714286,136.76339285714286,1688.8,132.85714285714286,136.76339285714286,1794.6,132.85714285714286,136.76339285714286,1905.1,132.85714285714286,136.76339285714286,2015.4,132.85714285714286,136.76339285714286,2129.4,132.85714285714286,136.76339285714286,2233.1,132.85714285714286,136.76339285714286,2338.8,132.85714285714286,136.76339285714286,2440.7,132.85714285714286,136.76339285714286,2551.9,132.85714285714286,136.76339285714286,2653.5,132.85714285714286,136.76339285714286,2765.1,132.85714285714286,136.76339285714286,2867.4,132.85714285714286,136.76339285714286,2971.9,132.85714285714286,136.76339285714286,3082.3,132.85714285714286,136.76339285714286,3191.1,132.85714285714286,136.76339285714286,3302.2,132.85714285714286,136.76339285714286,3405.2,132.85714285714286,136.76339285714286,3517,132.85714285714286,136.76339285714286,3619.9,132.85714285714286,136.76339285714286,3721.6,132.85714285714286,136.76339285714286,3827.4,132.85714285714286,136.76339285714286,3934.3,132.85714285714286,136.76339285714286,4036.8,132.85714285714286,136.76339285714286,4146.9,132.85714285714286,136.76339285714286,4256.9,132.85714285714286,136.76339285714286,4366.6,132.85714285714286,136.76339285714286,4469.9,132.85714285714286,136.76339285714286,4578.3,132.85714285714286,136.76339285714286,4687.4,132.85714285714286,136.76339285714286,4796.7,132.85714285714286,136.76339285714286,4901.1]","[1465.1,1465.1,1000,0,465.1,""smooth"",""up"",""up"",""good_move"",4494.2,3028.6,2164.1,1465.6,864.5,""oops"",""left"",""down"",""bad_move"",7117.6,2623.1,2211,4494.5,412.1,""smooth"",""up"",""up"",""good_move"",9813.9,2696.1,2325,7117.8,371.1,""smooth"",""up"",""up"",""good_move"",11994.9,2180.6,1690,9814.3,490.6,""smooth"",""left"",""left"",""good_move"",14309.5,2314.4,1847.8,11995.1,466.6,""smooth"",""left"",""left"",""good_move"",16563.2,2253.4,1799.6,14309.8,453.8,""smooth"",""up"",""up"",""good_move"",19362.7,2799.3,2317.2,16563.4,482.1,""smooth"",""left"",""left"",""good_move""]","",""
"9034","","<div style=""width:500px;"">
  <p>What determined the result of this run?</p>
  </div>","0","html-slider-response","75","1065948","0.0-5.0-1.13","265","1","2025-07-30 08:43:34","1f75c3e559b7213887762d5229550c2b","173.21.92.193","Mozilla/5.0 (Windows NT 10.0; Win64; x64) AppleWebKit/537.36 (KHTML, like Gecko) Chrome/138.0.0.0 Safari/537.36","WebKit","Chrome","138.0.0.0","Windows","10.0","https://app.prolific.com/","en-US,en;q=0.9","66f4c82536b5c8271f53564c","6877631c9844ddd5501205fc","6889dadbbdce7c64fe1cc2e4","3","1","66f4c82536b5c8271f53564c","3","1","2025-07-30T09:01:22.832Z","","","","","","","","","","","AttribQ","","50","","","","","","","","","","","","","","","","","","","","","","","","","","","","",""
"10366","","<div style=""width:500px;"">
  <p>How much control did you have over the ball?</p>
