"rt","response_timestamp","stimulus","response","trial_type","trial_index","time_elapsed","internal_node_id","run_id","condition","recorded_at","source_code_version","ip","user_agent","device","browser","browser_version","platform","platform_version","referer","accept_language","PROLIFIC_PID","STUDY_ID","SESSION_ID","WEEK","BATCH","prolific_id","week","batch","realtime","success","responses","item_order","radio_event_ids","radio_event_times","key_event_times","mouse_event_times","straightlining","zigzagging","honeypot","eventType","view_history","slider_start","which_type","canvas_config","goals_layout","control_level","trial_number","tutorial_trial_number","trial_start_time","phase1_start_time","phase2_start_time","phase3_start_time","goal_1_value","goal_1_distance","goal_2_value","goal_2_distance","goal_selected","outcome","outcome_total","participant_final_score","participant_initial_score","participant_final_score_prop","goal_choice_rt","allocated_time","allocated_time_remaining","goal_direction","counts","mouse_movements","key_presses","question_order","question_id"
"2856","1753259678798","<p style='font-size:40px;line-height:1.25'><strong>Welcome to the experiment!</strong></p><p style='font-size:1.1em;line-height:1.25'>Thank you for participanting in our experiment again! You will be asked to play the Dysfunctional Ball Game again. We will briefly recap the rules before we start.</p><p style='font-size:1.1em;line-height:1.25'>Press <strong>Next</strong> to continue.</p>","0","custom-html-button-response","0","2859","0.0-0.0","194","1","2025-07-23 08:34:33","1f75c3e559b7213887762d5229550c2b","5.69.202.172","Mozilla/5.0 (Windows NT 10.0; Win64; x64) AppleWebKit/537.36 (KHTML, like Gecko) Chrome/138.0.0.0 Safari/537.36","WebKit","Chrome","138.0.0.0","Windows","10.0","https://app.prolific.com/","en-GB,en-US;q=0.9,en;q=0.8","5c4f7b99b33a5300013dbfdd","683db9eb0562dbf637994deb","68809e9350ac47a0582506a0","2","1","5c4f7b99b33a5300013dbfdd","2","1","2025-07-23T08:34:38.799Z","","","","","","","","","","","","","","","","","","","","","","","","","","","","","","","","","","","","","","","","","",""
"252929","","","","fullscreen","1","256803","0.0-1.0","194","1","2025-07-23 08:34:33","1f75c3e559b7213887762d5229550c2b","5.69.202.172","Mozilla/5.0 (Windows NT 10.0; Win64; x64) AppleWebKit/537.36 (KHTML, like Gecko) Chrome/138.0.0.0 Safari/537.36","WebKit","Chrome","138.0.0.0","Windows","10.0","https://app.prolific.com/","en-GB,en-US;q=0.9,en;q=0.8","5c4f7b99b33a5300013dbfdd","683db9eb0562dbf637994deb","68809e9350ac47a0582506a0","2","1","5c4f7b99b33a5300013dbfdd","2","1","","true","","","","","","","","","","","","","","","","","","","","","","","","","","","","","","","","","","","","","","","","",""
"4716","1753259937460","<p style='font-size:1.1em;line-height:1.25'>In the following, we will ask you a few questions relating to your feelings in the last 24 hours.<br></p><p style='font-size:1.1em;line-height:1.25'>Press the <strong>Next</strong> button to continue.</p>","0","custom-html-button-response","2","261520","0.0-2.0-0.0","194","1","2025-07-23 08:34:33","1f75c3e559b7213887762d5229550c2b","5.69.202.172","Mozilla/5.0 (Windows NT 10.0; Win64; x64) AppleWebKit/537.36 (KHTML, like Gecko) Chrome/138.0.0.0 Safari/537.36","WebKit","Chrome","138.0.0.0","Windows","10.0","https://app.prolific.com/","en-GB,en-US;q=0.9,en;q=0.8","5c4f7b99b33a5300013dbfdd","683db9eb0562dbf637994deb","68809e9350ac47a0582506a0","2","1","5c4f7b99b33a5300013dbfdd","2","1","2025-07-23T08:38:57.461Z","","","","","","","","","","","","","","","","","","","","","","","","","","","","","","","","","","","","","","","","","",""
"51194.300000190735","","","","survey-template","3","312720","0.0-2.0-1.0","194","1","2025-07-23 08:34:33","1f75c3e559b7213887762d5229550c2b","5.69.202.172","Mozilla/5.0 (Windows NT 10.0; Win64; x64) AppleWebKit/537.36 (KHTML, like Gecko) Chrome/138.0.0.0 Safari/537.36","WebKit","Chrome","138.0.0.0","Windows","10.0","https://app.prolific.com/","en-GB,en-US;q=0.9,en;q=0.8","5c4f7b99b33a5300013dbfdd","683db9eb0562dbf637994deb","68809e9350ac47a0582506a0","2","1","5c4f7b99b33a5300013dbfdd","2","1","2025-07-23T08:39:48.660Z","","{""Q01"":""0"",""Q02"":""0"",""Q03"":""0"",""Q04"":""1"",""Q05"":""0"",""Q06"":""0"",""Q07"":""0"",""Q08"":""0"",""Q09"":""1"",""Q10"":""1"",""Q11"":""2"",""Q12"":""1"",""Q13"":""5"",""Q14"":""1"",""Q15"":""3"",""Q16"":""3"",""Q17"":""0"",""Q18"":""0"",""Q19"":""0"",""Q20"":""0"",""Q21"":""0"",""Q22"":""0""}","[0,1,2,3,4,5,6,7,8,9,10,11,12,13,14,15,16,17,18,19,20,21]","[""Q01"",""Q02"",""Q03"",""Q04"",""Q06"",""Q05"",""Q07"",""Q08"",""Q09"",""Q09"",""Q10"",""Q11"",""Q12"",""Q13"",""Q14"",""Q15"",""Q16"",""Q17"",""Q18"",""Q19"",""Q20"",""Q21"",""Q22""]","[13341.700000047684,14457.5,15295.5,17418.800000190735,19068.400000095367,19710.900000095367,20846.200000047684,21639.200000047684,22661.60000014305,23755.60000014305,28055.700000047684,29099.800000190735,30990.800000190735,32460.60000014305,33798.300000190735,36562.200000047684,38040.300000190735,39199.800000190735,42209.60000014305,43497.90000009537,47393.60000014305,48320.90000009537,50174.5]","[]","[0.20000004768371582,13341.700000047684,14457.5,15295.5,17418.800000190735,18324.400000095367,19068.400000095367,19710.900000095367,20846.200000047684,21639.200000047684,22661.60000014305,23755.60000014305,28055.700000047684,29099.800000190735,30990.800000190735,32460.60000014305,33798.300000190735,36562.200000047684,38040.300000190735,39199.800000190735,42209.60000014305,43497.90000009537,45407.40000009537,46573.800000190735,47393.60000014305,48320.90000009537,50174.5,51184.200000047684]","0.5909090909090909","0.23809523809523808","0","drsp","","","","","","","","","","","","","","","","","","","","","","","","","","","","","","",""
"7580.900000095367","","","","survey-template","4","320305","0.0-2.0-2.0","194","1","2025-07-23 08:34:33","1f75c3e559b7213887762d5229550c2b","5.69.202.172","Mozilla/5.0 (Windows NT 10.0; Win64; x64) AppleWebKit/537.36 (KHTML, like Gecko) Chrome/138.0.0.0 Safari/537.36","WebKit","Chrome","138.0.0.0","Windows","10.0","https://app.prolific.com/","en-GB,en-US;q=0.9,en;q=0.8","5c4f7b99b33a5300013dbfdd","683db9eb0562dbf637994deb","68809e9350ac47a0582506a0","2","1","5c4f7b99b33a5300013dbfdd","2","1","2025-07-23T08:39:56.245Z","","{""Q01"":""1"",""Q02"":""2"",""Q03"":""0""}","[0,1,2]","[""Q01"",""Q02"",""Q03""]","[3139.5,5755.299999952316,6765.400000095367]","[]","[3139.5,5755.299999952316,6765.400000095367,7577.700000047684]","0.3333333333333333","0","0","stress","","","","","","","","","","","","","","","","","","","","","","","","","","","","","","",""
"7420","","","","instructions","5","327726","0.0-3.0-0.0","194","1","2025-07-23 08:34:33","1f75c3e559b7213887762d5229550c2b","5.69.202.172","Mozilla/5.0 (Windows NT 10.0; Win64; x64) AppleWebKit/537.36 (KHTML, like Gecko) Chrome/138.0.0.0 Safari/537.36","WebKit","Chrome","138.0.0.0","Windows","10.0","https://app.prolific.com/","en-GB,en-US;q=0.9,en;q=0.8","5c4f7b99b33a5300013dbfdd","683db9eb0562dbf637994deb","68809e9350ac47a0582506a0","2","1","5c4f7b99b33a5300013dbfdd","2","1","","","","","","","","","","","","","[{""page_index"":0,""viewing_time"":7419}]","","","","","","","","","","","","","","","","","","","","","","","","","","","","","",""
"3459","","<p>Before you start with this game please answer the following three questions yourself. </p>
  <p>Through this game, we measure several aspects of your cognitive performance, such as reaction times, multi-tasking capabilities </p>
  <p>and the ability to assess the situation you are in.</p>
  <p></p>
  <p><b>How good do you usually are in such tasks?</b></p>","11","html-slider-response","6","331189","0.0-4.0-0.0","194","1","2025-07-23 08:34:33","1f75c3e559b7213887762d5229550c2b","5.69.202.172","Mozilla/5.0 (Windows NT 10.0; Win64; x64) AppleWebKit/537.36 (KHTML, like Gecko) Chrome/138.0.0.0 Safari/537.36","WebKit","Chrome","138.0.0.0","Windows","10.0","https://app.prolific.com/","en-GB,en-US;q=0.9,en;q=0.8","5c4f7b99b33a5300013dbfdd","683db9eb0562dbf637994deb","68809e9350ac47a0582506a0","2","1","5c4f7b99b33a5300013dbfdd","2","1","2025-07-23T08:40:07.129Z","","","","","","","","","","","PreSkillQ","","50","","","","","","","","","","","","","","","","","","","","","","","","","","","","",""
"2552","","<div style=""width:500px;"">
  <p>How well do you think you will perform in this task compared to other participants?</p>
  </div>","15","html-slider-response","7","333743","0.0-4.0-1.0","194","1","2025-07-23 08:34:33","1f75c3e559b7213887762d5229550c2b","5.69.202.172","Mozilla/5.0 (Windows NT 10.0; Win64; x64) AppleWebKit/537.36 (KHTML, like Gecko) Chrome/138.0.0.0 Safari/537.36","WebKit","Chrome","138.0.0.0","Windows","10.0","https://app.prolific.com/","en-GB,en-US;q=0.9,en;q=0.8","5c4f7b99b33a5300013dbfdd","683db9eb0562dbf637994deb","68809e9350ac47a0582506a0","2","1","5c4f7b99b33a5300013dbfdd","2","1","2025-07-23T08:40:09.683Z","","","","","","","","","","","PrePerfQ","","50","","","","","","","","","","","","","","","","","","","","","","","","","","","","",""
"3529","","<div style=""width:500px;"">
  <p>What best describes how you currently feel?</p>
  </div>","31","html-slider-response","8","337275","0.0-4.0-2.0","194","1","2025-07-23 08:34:33","1f75c3e559b7213887762d5229550c2b","5.69.202.172","Mozilla/5.0 (Windows NT 10.0; Win64; x64) AppleWebKit/537.36 (KHTML, like Gecko) Chrome/138.0.0.0 Safari/537.36","WebKit","Chrome","138.0.0.0","Windows","10.0","https://app.prolific.com/","en-GB,en-US;q=0.9,en;q=0.8","5c4f7b99b33a5300013dbfdd","683db9eb0562dbf637994deb","68809e9350ac47a0582506a0","2","1","5c4f7b99b33a5300013dbfdd","2","1","2025-07-23T08:40:13.215Z","","","","","","","","","","","PreMotivationQ","","50","","","","","","","","","","","","","","","","","","","","","","","","","","","","",""
"","","","","ctl-task-cpt","9","373922","0.0-5.0-0.0","194","1","2025-07-23 08:34:33","1f75c3e559b7213887762d5229550c2b","5.69.202.172","Mozilla/5.0 (Windows NT 10.0; Win64; x64) AppleWebKit/537.36 (KHTML, like Gecko) Chrome/138.0.0.0 Safari/537.36","WebKit","Chrome","138.0.0.0","Windows","10.0","https://app.prolific.com/","en-GB,en-US;q=0.9,en;q=0.8","5c4f7b99b33a5300013dbfdd","683db9eb0562dbf637994deb","68809e9350ac47a0582506a0","2","1","5c4f7b99b33a5300013dbfdd","2","1","2025-07-23T08:40:49.862Z","","","","","","","","","","","","","","win-only","3","g1:SW,g2:NE","1","1","0","339451.3","1246.2","6247.2","33630.7","1","4","4","6","2","4","2","2","0","0.015151515151515152","1177.6","3000","180","[""up"",""right""]","{""num_key_presses"":10,""num_perfect"":8,""num_errors"":2,""num_randdir"":0,""num_randdir_good_moves"":0,""num_whilered"":0,""num_whileblue"":2,""num_blue"":2,""num_good_moves"":8}","[414.741960471017,413.7888378552028,0.1,414.741960471017,413.7888378552028,100.3,414.741960471017,413.7888378552028,200.5,414.741960471017,413.7888378552028,305.5,414.741960471017,413.7888378552028,411.6,414.741960471017,413.7888378552028,515.2,414.741960471017,413.7888378552028,619.4,515.116960471017,302.4138378552028,719.6,644.366960471017,137.41383785520281,819.9,673.241960471017,104.4138378552028,928,691.116960471017,98.9138378552028,1028.2,747.491960471017,76.9138378552028,1128.8,750.241960471017,76.9138378552028,1230.8,750.241960471017,76.9138378552028,1335.1,750.241960471017,76.9138378552028,1444.7,721.366960471017,180.03883785520281,1550.3,735.116960471017,225.41383785520281,1656.4,840.991960471017,291.4138378552028,1761,916.616960471017,342.2888378552028,1861.2,916.616960471017,342.2888378552028,1965.1,916.616960471017,342.2888378552028,2069.8,916.616960471017,342.2888378552028,2170.5,916.616960471017,342.2888378552028,2277.5,916.616960471017,342.2888378552028,2380.3,916.616960471017,342.2888378552028,2480.6,916.616960471017,342.2888378552028,2585.5,916.616960471017,342.2888378552028,2694.8,916.616960471017,342.2888378552028,2800,916.616960471017,342.2888378552028,2900.5,916.616960471017,342.2888378552028,3005.5,916.616960471017,342.2888378552028,3105.7,916.616960471017,342.2888378552028,3210.6,916.616960471017,342.2888378552028,3311,916.616960471017,342.2888378552028,3415.4,916.616960471017,342.2888378552028,3520.4,916.616960471017,342.2888378552028,3620.5,916.616960471017,342.2888378552028,3727,916.616960471017,342.2888378552028,3830.1,916.616960471017,342.2888378552028,3930.7,916.616960471017,342.2888378552028,4035,916.616960471017,342.2888378552028,4143.4,916.616960471017,342.2888378552028,4243.5,916.616960471017,342.2888378552028,4343.5,916.616960471017,342.2888378552028,4443.5,916.616960471017,342.2888378552028,4544.9,916.616960471017,342.2888378552028,4649.7,916.616960471017,342.2888378552028,4750.4,916.616960471017,342.2888378552028,4860.4,916.616960471017,342.2888378552028,4965.5]","[1352.9,1352.9,1000,0,352.9,""smooth"",""up"",""up"",""good_move"",4283.2,2930,2550.3,1353.3,379.6,""smooth"",""up"",""up"",""good_move"",7272.6,2989.2,2689.6,4283.5,299.6,""smooth"",""up"",""up"",""good_move"",9942.1,2668.8,2365.5,7273.3,303.3,""while_blue"",""right"",""left"",""bad_move"",12657.7,2715.4,2345.6,9942.3,369.8,""smooth"",""right"",""right"",""good_move"",15571.7,2913.4,2567.6,12658.3,345.8,""smooth"",""right"",""right"",""good_move"",18852.5,3280.3,2824.1,15572.2,456.2,""smooth"",""right"",""right"",""good_move"",21199.2,2346.3,1750.3,18853,595.9,""while_blue"",""right"",""down"",""bad_move"",23705.7,2505.7,2152.9,21200,352.8,""smooth"",""right"",""right"",""good_move"",27281.3,3575.1,3238.8,23706.2,336.4,""smooth"",""up"",""up"",""good_move""]","",""
"2828","","<div style=""width:500px;"">
  <p>What determined the result of this run?</p>
  </div>","100","html-slider-response","10","376751","0.0-5.0-1.0","194","1","2025-07-23 08:34:33","1f75c3e559b7213887762d5229550c2b","5.69.202.172","Mozilla/5.0 (Windows NT 10.0; Win64; x64) AppleWebKit/537.36 (KHTML, like Gecko) Chrome/138.0.0.0 Safari/537.36","WebKit","Chrome","138.0.0.0","Windows","10.0","https://app.prolific.com/","en-GB,en-US;q=0.9,en;q=0.8","5c4f7b99b33a5300013dbfdd","683db9eb0562dbf637994deb","68809e9350ac47a0582506a0","2","1","5c4f7b99b33a5300013dbfdd","2","1","2025-07-23T08:40:52.692Z","","","","","","","","","","","AttribQ","","50","","","","","","","","","","","","","","","","","","","","","","","","","","","","",""
"3458","","<div style=""width:500px;"">
  <p>How much control did you have over the ball?</p>
  </div>","100","html-slider-response","11","380211","0.0-5.0-2.0","194","1","2025-07-23 08:34:33","1f75c3e559b7213887762d5229550c2b","5.69.202.172","Mozilla/5.0 (Windows NT 10.0; Win64; x64) AppleWebKit/537.36 (KHTML, like Gecko) Chrome/138.0.0.0 Safari/537.36","WebKit","Chrome","138.0.0.0","Windows","10.0","https://app.prolific.com/","en-GB,en-US;q=0.9,en;q=0.8","5c4f7b99b33a5300013dbfdd","683db9eb0562dbf637994deb","68809e9350ac47a0582506a0","2","1","5c4f7b99b33a5300013dbfdd","2","1","2025-07-23T08:40:56.151Z","","","","","","","","","","","ControlQ","","50","","","","","","","","","","","","","","","","","","","","","","","","","","","","",""
"3115","","<div style=""width:500px;"">
  <p>How would you describe your current emotional state?</p>
  </div>","31","html-slider-response","12","383328","0.0-5.0-3.0","194","1","2025-07-23 08:34:33","1f75c3e559b7213887762d5229550c2b","5.69.202.172","Mozilla/5.0 (Windows NT 10.0; Win64; x64) AppleWebKit/537.36 (KHTML, like Gecko) Chrome/138.0.0.0 Safari/537.36","WebKit","Chrome","138.0.0.0","Windows","10.0","https://app.prolific.com/","en-GB,en-US;q=0.9,en;q=0.8","5c4f7b99b33a5300013dbfdd","683db9eb0562dbf637994deb","68809e9350ac47a0582506a0","2","1","5c4f7b99b33a5300013dbfdd","2","1","2025-07-23T08:40:59.268Z","","","","","","","","","","","StressQ","","50","","","","","","","","","","","","","","","","","","","","","","","","","","","","",""
"2481","","<div style=""width:500px;"">
  <p>What best describes how you currently feel?</p>
  </div>","34","html-slider-response","13","385809","0.0-5.0-4.0","194","1","2025-07-23 08:34:33","1f75c3e559b7213887762d5229550c2b","5.69.202.172","Mozilla/5.0 (Windows NT 10.0; Win64; x64) AppleWebKit/537.36 (KHTML, like Gecko) Chrome/138.0.0.0 Safari/537.36","WebKit","Chrome","138.0.0.0","Windows","10.0","https://app.prolific.com/","en-GB,en-US;q=0.9,en;q=0.8","5c4f7b99b33a5300013dbfdd","683db9eb0562dbf637994deb","68809e9350ac47a0582506a0","2","1","5c4f7b99b33a5300013dbfdd","2","1","2025-07-23T08:41:01.749Z","","","","","","","","","","","MotivationQ","","50","","","","","","","","","","","","","","","","","","","","","","","","","","","","",""
"","","","","ctl-task-cpt","14","423226","0.0-5.0-0.1","194","1","2025-07-23 08:34:33","1f75c3e559b7213887762d5229550c2b","5.69.202.172","Mozilla/5.0 (Windows NT 10.0; Win64; x64) AppleWebKit/537.36 (KHTML, like Gecko) Chrome/138.0.0.0 Safari/537.36","WebKit","Chrome","138.0.0.0","Windows","10.0","https://app.prolific.com/","en-GB,en-US;q=0.9,en;q=0.8","5c4f7b99b33a5300013dbfdd","683db9eb0562dbf637994deb","68809e9350ac47a0582506a0","2","1","5c4f7b99b33a5300013dbfdd","2","1","2025-07-23T08:41:39.167Z","","","","","","","","","","","","","","win-only","3","g1:SW,g2:NE","0.9","2","0","387979.6","1014.1","6016.7","34400.3","1","4","8","6","2","8","8","10","2","0.07575757575757576","884.7","3000","270","[""up"",""right""]","{""num_key_presses"":8,""num_perfect"":7,""num_errors"":0,""num_randdir"":1,""num_randdir_good_moves"":0,""num_whilered"":0,""num_whileblue"":0,""num_blue"":2,""num_good_moves"":7}","[418.866960471017,413.7888378552028,0.2,418.866960471017,413.7888378552028,102,418.866960471017,413.7888378552028,207.6,418.866960471017,413.7888378552028,312.6,418.866960471017,413.7888378552028,417,629.241960471017,225.41383785520281,517.7,726.866960471017,123.6638378552028,622.9,730.991960471017,115.4138378552028,727.1,750.241960471017,81.0388378552028,834.6,754.366960471017,76.9138378552028,936.7,754.366960471017,76.9138378552028,1037.6,754.366960471017,76.9138378552028,1141.7,856.116960471017,290.0388378552028,1242,957.866960471017,457.7888378552028,1343.3,957.866960471017,459.1638378552028,1447,957.866960471017,459.1638378552028,1547.7,957.866960471017,459.1638378552028,1647.9,957.866960471017,459.1638378552028,1751.9,957.866960471017,459.1638378552028,1857.5,957.866960471017,459.1638378552028,1963.4,957.866960471017,459.1638378552028,2066.7,957.866960471017,459.1638378552028,2167.8,957.866960471017,459.1638378552028,2272,957.866960471017,459.1638378552028,2377,957.866960471017,459.1638378552028,2478,957.866960471017,459.1638378552028,2578.9,957.866960471017,459.1638378552028,2681.6,957.866960471017,459.1638378552028,2786.7,957.866960471017,459.1638378552028,2892.8,957.866960471017,459.1638378552028,2996.9,957.866960471017,459.1638378552028,3101.7,957.866960471017,459.1638378552028,3202.3,957.866960471017,459.1638378552028,3306.8,957.866960471017,459.1638378552028,3411.2,957.866960471017,459.1638378552028,3511.4,957.866960471017,459.1638378552028,3611.4,957.866960471017,459.1638378552028,3716.7,957.866960471017,459.1638378552028,3817.3,957.866960471017,459.1638378552028,3922.3,957.866960471017,459.1638378552028,4026.6,957.866960471017,459.1638378552028,4127.6,957.866960471017,459.1638378552028,4227.8,957.866960471017,459.1638378552028,4332.9,957.866960471017,459.1638378552028,4433,957.866960471017,459.1638378552028,4537.4,957.866960471017,459.1638378552028,4641.8,957.866960471017,459.1638378552028,4742.8,957.866960471017,459.1638378552028,4847.2,957.866960471017,459.1638378552028,4952.4]","[5092.3,5092.3,2719.8,2004.4,368.1,""smooth"",""right"",""right"",""good_move"",7602.4,2509.7,2232.2,5092.7,277.5,""smooth"",""right"",""right"",""good_move"",14797.2,7194.5,3264.1,11129,404.1,""smooth"",""right"",""right"",""good_move"",17461.4,2664,2297,14797.4,367,""smooth"",""up"",""up"",""good_move"",20308.9,2847.3,2513.9,17461.6,333.4,""oops"",""up"",""left"",""bad_move"",23236,2926.8,2593.9,20309.2,332.9,""smooth"",""up"",""up"",""good_move"",26319.5,3083.2,2729.5,23236.3,353.7,""smooth"",""up"",""up"",""good_move"",28285.3,1965.5,1626.6,26319.8,338.9,""smooth"",""right"",""right"",""good_move""]","",""
"2864","","<div style=""width:500px;"">
  <p>What determined the result of this run?</p>
  </div>","80","html-slider-response","15","426092","0.0-5.0-1.1","194","1","2025-07-23 08:34:33","1f75c3e559b7213887762d5229550c2b","5.69.202.172","Mozilla/5.0 (Windows NT 10.0; Win64; x64) AppleWebKit/537.36 (KHTML, like Gecko) Chrome/138.0.0.0 Safari/537.36","WebKit","Chrome","138.0.0.0","Windows","10.0","https://app.prolific.com/","en-GB,en-US;q=0.9,en;q=0.8","5c4f7b99b33a5300013dbfdd","683db9eb0562dbf637994deb","68809e9350ac47a0582506a0","2","1","5c4f7b99b33a5300013dbfdd","2","1","2025-07-23T08:41:42.032Z","","","","","","","","","","","AttribQ","","50","","","","","","","","","","","","","","","","","","","","","","","","","","","","",""
"3110","","<div style=""width:500px;"">
  <p>How much control did you have over the ball?</p>
  </div>","93","html-slider-response","16","429203","0.0-5.0-2.1","194","1","2025-07-23 08:34:33","1f75c3e559b7213887762d5229550c2b","5.69.202.172","Mozilla/5.0 (Windows NT 10.0; Win64; x64) AppleWebKit/537.36 (KHTML, like Gecko) Chrome/138.0.0.0 Safari/537.36","WebKit","Chrome","138.0.0.0","Windows","10.0","https://app.prolific.com/","en-GB,en-US;q=0.9,en;q=0.8","5c4f7b99b33a5300013dbfdd","683db9eb0562dbf637994deb","68809e9350ac47a0582506a0","2","1","5c4f7b99b33a5300013dbfdd","2","1","2025-07-23T08:41:45.143Z","","","","","","","","","","","ControlQ","","50","","","","","","","","","","","","","","","","","","","","","","","","","","","","",""
"1856","","<div style=""width:500px;"">
  <p>How would you describe your current emotional state?</p>
  </div>","32","html-slider-response","17","431059","0.0-5.0-3.1","194","1","2025-07-23 08:34:33","1f75c3e559b7213887762d5229550c2b","5.69.202.172","Mozilla/5.0 (Windows NT 10.0; Win64; x64) AppleWebKit/537.36 (KHTML, like Gecko) Chrome/138.0.0.0 Safari/537.36","WebKit","Chrome","138.0.0.0","Windows","10.0","https://app.prolific.com/","en-GB,en-US;q=0.9,en;q=0.8","5c4f7b99b33a5300013dbfdd","683db9eb0562dbf637994deb","68809e9350ac47a0582506a0","2","1","5c4f7b99b33a5300013dbfdd","2","1","2025-07-23T08:41:46.999Z","","","","","","","","","","","StressQ","","50","","","","","","","","","","","","","","","","","","","","","","","","","","","","",""
"2225","","<div style=""width:500px;"">
  <p>What best describes how you currently feel?</p>
  </div>","33","html-slider-response","18","433284","0.0-5.0-4.1","194","1","2025-07-23 08:34:33","1f75c3e559b7213887762d5229550c2b","5.69.202.172","Mozilla/5.0 (Windows NT 10.0; Win64; x64) AppleWebKit/537.36 (KHTML, like Gecko) Chrome/138.0.0.0 Safari/537.36","WebKit","Chrome","138.0.0.0","Windows","10.0","https://app.prolific.com/","en-GB,en-US;q=0.9,en;q=0.8","5c4f7b99b33a5300013dbfdd","683db9eb0562dbf637994deb","68809e9350ac47a0582506a0","2","1","5c4f7b99b33a5300013dbfdd","2","1","2025-07-23T08:41:49.224Z","","","","","","","","","","","MotivationQ","","50","","","","","","","","","","","","","","","","","","","","","","","","","","","","",""
"","","","","ctl-task-cpt","19","464640","0.0-5.0-0.2","194","1","2025-07-23 08:34:33","1f75c3e559b7213887762d5229550c2b","5.69.202.172","Mozilla/5.0 (Windows NT 10.0; Win64; x64) AppleWebKit/537.36 (KHTML, like Gecko) Chrome/138.0.0.0 Safari/537.36","WebKit","Chrome","138.0.0.0","Windows","10.0","https://app.prolific.com/","en-GB,en-US;q=0.9,en;q=0.8","5c4f7b99b33a5300013dbfdd","683db9eb0562dbf637994deb","68809e9350ac47a0582506a0","2","1","5c4f7b99b33a5300013dbfdd","2","1","2025-07-23T08:42:20.580Z","","","","","","","","","","","","","","win-only","2","g1:SE,g2:NW","0.8","3","0","435455.7","869.8","5872.6","28335.9","1","4","4","6","2","4","3","13","10","0.09848484848484848","1007","3000","680","[""left"",""up""]","{""num_key_presses"":8,""num_perfect"":6,""num_errors"":1,""num_randdir"":1,""num_randdir_good_moves"":1,""num_whilered"":0,""num_whileblue"":1,""num_blue"":1,""num_good_moves"":7}","[422.991960471017,417.9138378552028,0.2,422.991960471017,417.9138378552028,100.8,422.991960471017,417.9138378552028,200.9,422.991960471017,417.9138378552028,304.3,422.991960471017,417.9138378552028,405.8,422.991960471017,417.9138378552028,506,240.11696047101702,272.1638378552028,612.3,116.36696047101701,162.16383785520281,719.2,101.24196047101701,140.16383785520281,819.2,90.24196047101701,115.4138378552028,920.8,90.24196047101701,114.0388378552028,1020.8,90.24196047101701,114.0388378552028,1121.8,95.74196047101701,147.03883785520281,1226.3,145.24196047101702,360.1638378552028,1326.5,161.74196047101702,427.5388378552028,1433.4,161.74196047101702,427.5388378552028,1534.9,161.74196047101702,427.5388378552028,1636.5,161.74196047101702,427.5388378552028,1736.9,161.74196047101702,427.5388378552028,1841.9,161.74196047101702,427.5388378552028,1946.5,161.74196047101702,427.5388378552028,2050.5,161.74196047101702,427.5388378552028,2151.5,161.74196047101702,427.5388378552028,2255.8,161.74196047101702,427.5388378552028,2361.4,161.74196047101702,427.5388378552028,2462.3,161.74196047101702,427.5388378552028,2562.9,161.74196047101702,427.5388378552028,2666.2,161.74196047101702,427.5388378552028,2771.3,161.74196047101702,427.5388378552028,2871.6,161.74196047101702,427.5388378552028,2971.7,161.74196047101702,427.5388378552028,3071.7,161.74196047101702,427.5388378552028,3176.5,161.74196047101702,427.5388378552028,3276.8,161.74196047101702,427.5388378552028,3381.1,161.74196047101702,427.5388378552028,3484.2,161.74196047101702,427.5388378552028,3586.6,161.74196047101702,427.5388378552028,3691.9,161.74196047101702,427.5388378552028,3791.9,161.74196047101702,427.5388378552028,3898,161.74196047101702,427.5388378552028,4002.1,161.74196047101702,427.5388378552028,4106.1,161.74196047101702,427.5388378552028,4213.1,161.74196047101702,427.5388378552028,4320.4,161.74196047101702,427.5388378552028,4420.5,161.74196047101702,427.5388378552028,4520.9,161.74196047101702,427.5388378552028,4621.8,161.74196047101702,427.5388378552028,4726.5,161.74196047101702,427.5388378552028,4831.5,161.74196047101702,427.5388378552028,4931.7]","[1330.2,1330.2,1000,0,330.2,""smooth"",""up"",""up"",""good_move"",4071.2,2740.6,2434.8,1330.6,305.8,""smooth"",""up"",""up"",""good_move"",6811.8,2740.3,2431.6,4071.5,308.7,""smooth"",""up"",""up"",""good_move"",9224.1,2412,2091.5,6812.1,320.5,""while_blue"",""left"",""right"",""bad_move"",12476.7,3251.6,2877.3,9225.1,374.3,""smooth"",""left"",""left"",""good_move"",16126,3648.9,3290.3,12477.1,358.6,""smooth"",""left"",""left"",""good_move"",19243.4,3117.1,2778.2,16126.3,338.9,""smooth"",""left"",""left"",""good_move"",22360.4,3116.9,2764.8,19243.5,352.1,""oops"",""left"",""left"",""good_move""]","",""
"4665","","<div style=""width:500px;"">
  <p>What determined the result of this run?</p>
  </div>","100","html-slider-response","20","469307","0.0-5.0-1.2","194","1","2025-07-23 08:34:33","1f75c3e559b7213887762d5229550c2b","5.69.202.172","Mozilla/5.0 (Windows NT 10.0; Win64; x64) AppleWebKit/537.36 (KHTML, like Gecko) Chrome/138.0.0.0 Safari/537.36","WebKit","Chrome","138.0.0.0","Windows","10.0","https://app.prolific.com/","en-GB,en-US;q=0.9,en;q=0.8","5c4f7b99b33a5300013dbfdd","683db9eb0562dbf637994deb","68809e9350ac47a0582506a0","2","1","5c4f7b99b33a5300013dbfdd","2","1","2025-07-23T08:42:25.247Z","","","","","","","","","","","AttribQ","","50","","","","","","","","","","","","","","","","","","","","","","","","","","","","",""
"2543","","<div style=""width:500px;"">
  <p>How much control did you have over the ball?</p>
  </div>","93","html-slider-response","21","471851","0.0-5.0-2.2","194","1","2025-07-23 08:34:33","1f75c3e559b7213887762d5229550c2b","5.69.202.172","Mozilla/5.0 (Windows NT 10.0; Win64; x64) AppleWebKit/537.36 (KHTML, like Gecko) Chrome/138.0.0.0 Safari/537.36","WebKit","Chrome","138.0.0.0","Windows","10.0","https://app.prolific.com/","en-GB,en-US;q=0.9,en;q=0.8","5c4f7b99b33a5300013dbfdd","683db9eb0562dbf637994deb","68809e9350ac47a0582506a0","2","1","5c4f7b99b33a5300013dbfdd","2","1","2025-07-23T08:42:27.791Z","","","","","","","","","","","ControlQ","","50","","","","","","","","","","","","","","","","","","","","","","","","","","","","",""
"1936","","<div style=""width:500px;"">
  <p>How would you describe your current emotional state?</p>
  </div>","13","html-slider-response","22","473788","0.0-5.0-3.2","194","1","2025-07-23 08:34:33","1f75c3e559b7213887762d5229550c2b","5.69.202.172","Mozilla/5.0 (Windows NT 10.0; Win64; x64) AppleWebKit/537.36 (KHTML, like Gecko) Chrome/138.0.0.0 Safari/537.36","WebKit","Chrome","138.0.0.0","Windows","10.0","https://app.prolific.com/","en-GB,en-US;q=0.9,en;q=0.8","5c4f7b99b33a5300013dbfdd","683db9eb0562dbf637994deb","68809e9350ac47a0582506a0","2","1","5c4f7b99b33a5300013dbfdd","2","1","2025-07-23T08:42:29.728Z","","","","","","","","","","","StressQ","","50","","","","","","","","","","","","","","","","","","","","","","","","","","","","",""
"1768","","<div style=""width:500px;"">
  <p>What best describes how you currently feel?</p>
  </div>","33","html-slider-response","23","475557","0.0-5.0-4.2","194","1","2025-07-23 08:34:33","1f75c3e559b7213887762d5229550c2b","5.69.202.172","Mozilla/5.0 (Windows NT 10.0; Win64; x64) AppleWebKit/537.36 (KHTML, like Gecko) Chrome/138.0.0.0 Safari/537.36","WebKit","Chrome","138.0.0.0","Windows","10.0","https://app.prolific.com/","en-GB,en-US;q=0.9,en;q=0.8","5c4f7b99b33a5300013dbfdd","683db9eb0562dbf637994deb","68809e9350ac47a0582506a0","2","1","5c4f7b99b33a5300013dbfdd","2","1","2025-07-23T08:42:31.497Z","","","","","","","","","","","MotivationQ","","50","","","","","","","","","","","","","","","","","","","","","","","","","","","","",""
"","","","","ctl-task-cpt","24","526929","0.0-5.0-0.3","194","1","2025-07-23 08:34:33","1f75c3e559b7213887762d5229550c2b","5.69.202.172","Mozilla/5.0 (Windows NT 10.0; Win64; x64) AppleWebKit/537.36 (KHTML, like Gecko) Chrome/138.0.0.0 Safari/537.36","WebKit","Chrome","138.0.0.0","Windows","10.0","https://app.prolific.com/","en-GB,en-US;q=0.9,en;q=0.8","5c4f7b99b33a5300013dbfdd","683db9eb0562dbf637994deb","68809e9350ac47a0582506a0","2","1","5c4f7b99b33a5300013dbfdd","2","1","2025-07-23T08:43:22.869Z","","","","","","","","","","","","","","win-only","3","g1:SW,g2:NE","0.7","4","0","477729.9","751.7","5756.7","48365.6","1","4","8","6","2","8","7","20","13","0.15151515151515152","717.5","3000","185","[""up"",""right""]","{""num_key_presses"":11,""num_perfect"":7,""num_errors"":1,""num_randdir"":3,""num_randdir_good_moves"":1,""num_whilered"":0,""num_whileblue"":0,""num_blue"":4,""num_good_moves"":8}","[416.116960471017,409.6638378552028,0,416.116960471017,409.6638378552028,103.7,416.116960471017,409.6638378552028,205.7,416.116960471017,409.6638378552028,312.5,424.366960471017,400.0388378552028,414.4,746.116960471017,93.4138378552028,520,768.116960471017,79.6638378552028,620,769.491960471017,79.6638378552028,728.7,769.491960471017,79.6638378552028,833.8,772.241960471017,82.4138378552028,934.2,860.241960471017,255.66383785520281,1034.3,876.741960471017,299.6638378552028,1139.3,876.741960471017,299.6638378552028,1239.5,876.741960471017,299.6638378552028,1340,876.741960471017,299.6638378552028,1444.4,876.741960471017,299.6638378552028,1547.2,876.741960471017,299.6638378552028,1649.7,876.741960471017,299.6638378552028,1754.3,876.741960471017,299.6638378552028,1859.5,876.741960471017,299.6638378552028,1970.6,876.741960471017,299.6638378552028,2075.8,876.741960471017,299.6638378552028,2180.7,876.741960471017,299.6638378552028,2281.4,876.741960471017,299.6638378552028,2383.2,876.741960471017,299.6638378552028,2483.7,876.741960471017,299.6638378552028,2584.6,876.741960471017,299.6638378552028,2684.9,876.741960471017,299.6638378552028,2790,876.741960471017,299.6638378552028,2894,876.741960471017,299.6638378552028,2999.1,876.741960471017,299.6638378552028,3099.5,876.741960471017,299.6638378552028,3199.7,876.741960471017,299.6638378552028,3299.8,876.741960471017,299.6638378552028,3403.6,876.741960471017,299.6638378552028,3504.5,876.741960471017,299.6638378552028,3605.8,876.741960471017,299.6638378552028,3709.6,876.741960471017,299.6638378552028,3817.1,876.741960471017,299.6638378552028,3917.3,876.741960471017,299.6638378552028,4020.1,876.741960471017,299.6638378552028,4124.1,876.741960471017,299.6638378552028,4224.6,876.741960471017,299.6638378552028,4324.8,876.741960471017,299.6638378552028,4430.3,876.741960471017,299.6638378552028,4532.4,876.741960471017,299.6638378552028,4633.1,876.741960471017,299.6638378552028,4733.9,876.741960471017,299.6638378552028,4834.5,876.741960471017,299.6638378552028,4939.2]","[10891.2,10891.2,2501.1,8049.9,340.2,""smooth"",""right"",""right"",""good_move"",13077.2,2185.7,1805,10891.5,380.7,""smooth"",""up"",""up"",""good_move"",16294.9,3217.2,2912.5,13077.7,304.7,""smooth"",""up"",""up"",""good_move"",22952,6656.8,2681.9,19937.7,332.4,""smooth"",""right"",""right"",""good_move"",25285.1,2333,1904.7,22952.2,428.2,""oops"",""up"",""down"",""bad_move"",26557.7,1272.3,2050.7,25285.4,-778.4,""error"",""-"",""-"",""no_move"",30082.7,3524.8,2189,27560.5,333.2,""oops"",""up"",""down"",""bad_move"",32716.3,2633.1,2198.8,30083.2,434.3,""smooth"",""up"",""up"",""good_move"",35704.3,2987.8,2619.2,32716.5,368.6,""oops"",""up"",""up"",""good_move"",39403.4,3698.9,3401.1,35704.5,297.8,""smooth"",""up"",""up"",""good_move"",42499.8,3096.2,2795.1,39403.7,301.1,""smooth"",""right"",""right"",""good_move""]","",""
"2590","","<div style=""width:500px;"">
  <p>What determined the result of this run?</p>
  </div>","92","html-slider-response","25","529520","0.0-5.0-1.3","194","1","2025-07-23 08:34:33","1f75c3e559b7213887762d5229550c2b","5.69.202.172","Mozilla/5.0 (Windows NT 10.0; Win64; x64) AppleWebKit/537.36 (KHTML, like Gecko) Chrome/138.0.0.0 Safari/537.36","WebKit","Chrome","138.0.0.0","Windows","10.0","https://app.prolific.com/","en-GB,en-US;q=0.9,en;q=0.8","5c4f7b99b33a5300013dbfdd","683db9eb0562dbf637994deb","68809e9350ac47a0582506a0","2","1","5c4f7b99b33a5300013dbfdd","2","1","2025-07-23T08:43:25.460Z","","","","","","","","","","","AttribQ","","50","","","","","","","","","","","","","","","","","","","","","","","","","","","","",""
"2305","","<div style=""width:500px;"">
  <p>How much control did you have over the ball?</p>
  </div>","85","html-slider-response","26","531826","0.0-5.0-2.3","194","1","2025-07-23 08:34:33","1f75c3e559b7213887762d5229550c2b","5.69.202.172","Mozilla/5.0 (Windows NT 10.0; Win64; x64) AppleWebKit/537.36 (KHTML, like Gecko) Chrome/138.0.0.0 Safari/537.36","WebKit","Chrome","138.0.0.0","Windows","10.0","https://app.prolific.com/","en-GB,en-US;q=0.9,en;q=0.8","5c4f7b99b33a5300013dbfdd","683db9eb0562dbf637994deb","68809e9350ac47a0582506a0","2","1","5c4f7b99b33a5300013dbfdd","2","1","2025-07-23T08:43:27.766Z","","","","","","","","","","","ControlQ","","50","","","","","","","","","","","","","","","","","","","","","","","","","","","","",""
"1601","","<div style=""width:500px;"">
  <p>How would you describe your current emotional state?</p>
  </div>","32","html-slider-response","27","533428","0.0-5.0-3.3","194","1","2025-07-23 08:34:33","1f75c3e559b7213887762d5229550c2b","5.69.202.172","Mozilla/5.0 (Windows NT 10.0; Win64; x64) AppleWebKit/537.36 (KHTML, like Gecko) Chrome/138.0.0.0 Safari/537.36","WebKit","Chrome","138.0.0.0","Windows","10.0","https://app.prolific.com/","en-GB,en-US;q=0.9,en;q=0.8","5c4f7b99b33a5300013dbfdd","683db9eb0562dbf637994deb","68809e9350ac47a0582506a0","2","1","5c4f7b99b33a5300013dbfdd","2","1","2025-07-23T08:43:29.368Z","","","","","","","","","","","StressQ","","50","","","","","","","","","","","","","","","","","","","","","","","","","","","","",""
"2348","","<div style=""width:500px;"">
  <p>What best describes how you currently feel?</p>
  </div>","28","html-slider-response","28","535777","0.0-5.0-4.3","194","1","2025-07-23 08:34:33","1f75c3e559b7213887762d5229550c2b","5.69.202.172","Mozilla/5.0 (Windows NT 10.0; Win64; x64) AppleWebKit/537.36 (KHTML, like Gecko) Chrome/138.0.0.0 Safari/537.36","WebKit","Chrome","138.0.0.0","Windows","10.0","https://app.prolific.com/","en-GB,en-US;q=0.9,en;q=0.8","5c4f7b99b33a5300013dbfdd","683db9eb0562dbf637994deb","68809e9350ac47a0582506a0","2","1","5c4f7b99b33a5300013dbfdd","2","1","2025-07-23T08:43:31.717Z","","","","","","","","","","","MotivationQ","","50","","","","","","","","","","","","","","","","","","","","","","","","","","","","",""
"","","","","ctl-task-cpt","29","583627","0.0-5.0-0.4","194","1","2025-07-23 08:34:33","1f75c3e559b7213887762d5229550c2b","5.69.202.172","Mozilla/5.0 (Windows NT 10.0; Win64; x64) AppleWebKit/537.36 (KHTML, like Gecko) Chrome/138.0.0.0 Safari/537.36","WebKit","Chrome","138.0.0.0","Windows","10.0","https://app.prolific.com/","en-GB,en-US;q=0.9,en;q=0.8","5c4f7b99b33a5300013dbfdd","683db9eb0562dbf637994deb","68809e9350ac47a0582506a0","2","1","5c4f7b99b33a5300013dbfdd","2","1","2025-07-23T08:44:19.567Z","","","","","","","","","","","","","","win-only","0","g1:NW,g2:SE","0.6","5","0","537948.9","890.8","5895.2","44832.1","1","4","8","6","2","-8","-10","10","20","0.07575757575757576","1007.6","3000","-2420","[""down"",""right""]","{""num_key_presses"":12,""num_perfect"":6,""num_errors"":2,""num_randdir"":4,""num_randdir_good_moves"":1,""num_whilered"":0,""num_whileblue"":1,""num_blue"":2,""num_good_moves"":7}","[414.741960471017,420.6638378552028,0.1,414.741960471017,420.6638378552028,106.6,414.741960471017,420.6638378552028,210.6,414.741960471017,420.6638378552028,311.1,414.741960471017,420.6638378552028,411.2,497.241960471017,521.0388378552028,515.9,659.491960471017,697.0388378552028,619.7,706.241960471017,727.2888378552028,720.3,706.241960471017,727.2888378552028,823.7,769.491960471017,757.5388378552028,925.9,781.866960471017,765.7888378552028,1040.3,781.866960471017,765.7888378552028,1141.8,1008.741960471017,719.0388378552028,1244.6,1062.366960471017,708.0388378552028,1345.9,1062.366960471017,708.0388378552028,1449.9,1062.366960471017,708.0388378552028,1555.3,1062.366960471017,708.0388378552028,1660.8,1062.366960471017,708.0388378552028,1761.1,1062.366960471017,708.0388378552028,1864.6,1062.366960471017,708.0388378552028,1965,1062.366960471017,708.0388378552028,2073.9,1062.366960471017,708.0388378552028,2175,1062.366960471017,708.0388378552028,2278.9,1062.366960471017,708.0388378552028,2389.3,1062.366960471017,708.0388378552028,2489.5,1062.366960471017,708.0388378552028,2595.9,1062.366960471017,708.0388378552028,2700.3,1062.366960471017,708.0388378552028,2804.5,1062.366960471017,708.0388378552028,2905.1,1062.366960471017,708.0388378552028,3005.1,1062.366960471017,708.0388378552028,3110.7,1062.366960471017,708.0388378552028,3223,1062.366960471017,708.0388378552028,3325.8,1062.366960471017,708.0388378552028,3431,1062.366960471017,708.0388378552028,3531.1,1062.366960471017,708.0388378552028,3639.1,1062.366960471017,708.0388378552028,3740.2,1062.366960471017,708.0388378552028,3845.6,1062.366960471017,708.0388378552028,3945.8,1062.366960471017,708.0388378552028,4054.1,1062.366960471017,708.0388378552028,4155,1062.366960471017,708.0388378552028,4255.2,1062.366960471017,708.0388378552028,4356.2,1062.366960471017,708.0388378552028,4460.7,1062.366960471017,708.0388378552028,4572.1,1062.366960471017,708.0388378552028,4674.9,1062.366960471017,708.0388378552028,4775.1,1062.366960471017,708.0388378552028,4875.5,1062.366960471017,708.0388378552028,4980.3]","[1398.9,1398.9,1000,0,398.9,""oops"",""down"",""right"",""good_move"",4606,3206.7,2878.7,1399.3,328,""smooth"",""down"",""down"",""good_move"",7181,2574.6,2218,4606.4,356.6,""oops"",""down"",""up"",""bad_move"",10297.5,3116.2,2822.6,7181.4,293.5,""smooth"",""down"",""down"",""good_move"",13545.5,3247.7,2952.6,10297.8,295.1,""smooth"",""down"",""down"",""good_move"",16628.2,3082.6,2750.8,13545.6,331.8,""smooth"",""down"",""down"",""good_move"",19777.1,3148.7,2830.8,16628.4,317.9,""smooth"",""right"",""right"",""good_move"",23582.1,3804,3457.2,19778.2,346.7,""while_blue"",""right"",""up"",""bad_move"",25439.4,1857,1460.1,23582.4,396.9,""oops"",""right"",""up"",""bad_move"",28323,2883.5,2376,25439.6,507.4,""oops"",""right"",""left"",""bad_move"",32821.7,4497.9,1853.4,32440.2,-1471.9,""error"",""-"",""-"",""no_move"",36906.3,4084.3,2693.4,33826.3,386.6,""smooth"",""down"",""down"",""good_move""]","",""
"2330","","<div style=""width:500px;"">
  <p>What determined the result of this run?</p>
  </div>","0","html-slider-response","30","585958","0.0-5.0-1.4","194","1","2025-07-23 08:34:33","1f75c3e559b7213887762d5229550c2b","5.69.202.172","Mozilla/5.0 (Windows NT 10.0; Win64; x64) AppleWebKit/537.36 (KHTML, like Gecko) Chrome/138.0.0.0 Safari/537.36","WebKit","Chrome","138.0.0.0","Windows","10.0","https://app.prolific.com/","en-GB,en-US;q=0.9,en;q=0.8","5c4f7b99b33a5300013dbfdd","683db9eb0562dbf637994deb","68809e9350ac47a0582506a0","2","1","5c4f7b99b33a5300013dbfdd","2","1","2025-07-23T08:44:21.898Z","","","","","","","","","","","AttribQ","","50","","","","","","","","","","","","","","","","","","","","","","","","","","","","",""
"2123","","<div style=""width:500px;"">
  <p>How much control did you have over the ball?</p>
  </div>","0","html-slider-response","31","588082","0.0-5.0-2.4","194","1","2025-07-23 08:34:33","1f75c3e559b7213887762d5229550c2b","5.69.202.172","Mozilla/5.0 (Windows NT 10.0; Win64; x64) AppleWebKit/537.36 (KHTML, like Gecko) Chrome/138.0.0.0 Safari/537.36","WebKit","Chrome","138.0.0.0","Windows","10.0","https://app.prolific.com/","en-GB,en-US;q=0.9,en;q=0.8","5c4f7b99b33a5300013dbfdd","683db9eb0562dbf637994deb","68809e9350ac47a0582506a0","2","1","5c4f7b99b33a5300013dbfdd","2","1","2025-07-23T08:44:24.022Z","","","","","","","","","","","ControlQ","","50","","","","","","","","","","","","","","","","","","","","","","","","","","","","",""
"1870","","<div style=""width:500px;"">
  <p>How would you describe your current emotional state?</p>
  </div>","24","html-slider-response","32","589954","0.0-5.0-3.4","194","1","2025-07-23 08:34:33","1f75c3e559b7213887762d5229550c2b","5.69.202.172","Mozilla/5.0 (Windows NT 10.0; Win64; x64) AppleWebKit/537.36 (KHTML, like Gecko) Chrome/138.0.0.0 Safari/537.36","WebKit","Chrome","138.0.0.0","Windows","10.0","https://app.prolific.com/","en-GB,en-US;q=0.9,en;q=0.8","5c4f7b99b33a5300013dbfdd","683db9eb0562dbf637994deb","68809e9350ac47a0582506a0","2","1","5c4f7b99b33a5300013dbfdd","2","1","2025-07-23T08:44:25.894Z","","","","","","","","","","","StressQ","","50","","","","","","","","","","","","","","","","","","","","","","","","","","","","",""
"1688","","<div style=""width:500px;"">
  <p>What best describes how you currently feel?</p>
  </div>","20","html-slider-response","33","591643","0.0-5.0-4.4","194","1","2025-07-23 08:34:33","1f75c3e559b7213887762d5229550c2b","5.69.202.172","Mozilla/5.0 (Windows NT 10.0; Win64; x64) AppleWebKit/537.36 (KHTML, like Gecko) Chrome/138.0.0.0 Safari/537.36","WebKit","Chrome","138.0.0.0","Windows","10.0","https://app.prolific.com/","en-GB,en-US;q=0.9,en;q=0.8","5c4f7b99b33a5300013dbfdd","683db9eb0562dbf637994deb","68809e9350ac47a0582506a0","2","1","5c4f7b99b33a5300013dbfdd","2","1","2025-07-23T08:44:27.583Z","","","","","","","","","","","MotivationQ","","50","","","","","","","","","","","","","","","","","","","","","","","","","","","","",""
"","","","","ctl-task-cpt","34","655737","0.0-5.0-0.5","194","1","2025-07-23 08:34:33","1f75c3e559b7213887762d5229550c2b","5.69.202.172","Mozilla/5.0 (Windows NT 10.0; Win64; x64) AppleWebKit/537.36 (KHTML, like Gecko) Chrome/138.0.0.0 Safari/537.36","WebKit","Chrome","138.0.0.0","Windows","10.0","https://app.prolific.com/","en-GB,en-US;q=0.9,en;q=0.8","5c4f7b99b33a5300013dbfdd","683db9eb0562dbf637994deb","68809e9350ac47a0582506a0","2","1","5c4f7b99b33a5300013dbfdd","2","1","2025-07-23T08:45:31.677Z","","","","","","","","","","","","","","win-only","3","g1:SW,g2:NE","0.5","6","0","593815","780","5780.5","61066.7","1","4","4","6","2","-4","-5","5","10","0.03787878787878788","700.2","3000","-2560","[""up"",""right""]","{""num_key_presses"":11,""num_perfect"":5,""num_errors"":1,""num_randdir"":5,""num_randdir_good_moves"":2,""num_whilered"":0,""num_whileblue"":1,""num_blue"":8,""num_good_moves"":8}","[418.866960471017,413.7888378552028,0.2,418.866960471017,413.7888378552028,101.7,418.866960471017,413.7888378552028,203.9,418.866960471017,413.7888378552028,308.2,614.116960471017,244.66383785520281,410.8,755.741960471017,122.2888378552028,517.3,796.991960471017,68.6638378552028,621.4,798.366960471017,64.5388378552028,725.8,798.366960471017,64.5388378552028,835.9,856.116960471017,219.91383785520281,940.9,977.116960471017,446.7888378552028,1041.4,977.116960471017,446.7888378552028,1141.8,977.116960471017,446.7888378552028,1252.8,977.116960471017,446.7888378552028,1355.5,977.116960471017,446.7888378552028,1467.1,977.116960471017,446.7888378552028,1569.5,977.116960471017,446.7888378552028,1670.6,977.116960471017,446.7888378552028,1784.4,977.116960471017,446.7888378552028,1886,977.116960471017,446.7888378552028,1987.2,977.116960471017,446.7888378552028,2100.6,977.116960471017,446.7888378552028,2203,977.116960471017,446.7888378552028,2305.8,977.116960471017,446.7888378552028,2416.6,977.116960471017,446.7888378552028,2520.9,977.116960471017,446.7888378552028,2637,977.116960471017,446.7888378552028,2737,977.116960471017,446.7888378552028,2855.3,977.116960471017,446.7888378552028,2956.2,977.116960471017,446.7888378552028,3056.6,977.116960471017,446.7888378552028,3161.7,977.116960471017,446.7888378552028,3264.5,977.116960471017,446.7888378552028,3365.5,977.116960471017,446.7888378552028,3467.2,977.116960471017,446.7888378552028,3570.7,977.116960471017,446.7888378552028,3671,977.116960471017,446.7888378552028,3783.9,977.116960471017,446.7888378552028,3884.1,977.116960471017,446.7888378552028,3989.1,977.116960471017,446.7888378552028,4089.3,977.116960471017,446.7888378552028,4193.1,977.116960471017,446.7888378552028,4296.3,977.116960471017,446.7888378552028,4400.1,977.116960471017,446.7888378552028,4500.4,977.116960471017,446.7888378552028,4606.1,977.116960471017,446.7888378552028,4706.2,977.116960471017,446.7888378552028,4816.1,977.116960471017,446.7888378552028,4916.8]","[1362.6,1362.6,1000,0,362.6,""smooth"",""right"",""right"",""good_move"",10240.2,8877.3,2443.5,7414.2,382.5,""oops"",""right"",""left"",""bad_move"",23579.6,13339.2,2415.1,20776.2,388.3,""oops"",""right"",""left"",""bad_move"",26399,2819.2,2363.7,23579.8,455.5,""smooth"",""right"",""right"",""good_move"",29007.4,2608.1,2205.6,26399.4,402.5,""smooth"",""right"",""right"",""good_move"",31787,2779.4,2369.7,29007.7,409.6,""smooth"",""up"",""up"",""good_move"",34930.6,3143.1,2796.7,31787.5,346.4,""oops"",""up"",""right"",""good_move"",40847.7,5916.7,2256.8,38238.4,352.5,""oops"",""up"",""left"",""bad_move"",43052.3,2204.2,1749.5,40848.1,454.7,""smooth"",""up"",""up"",""good_move"",46132.2,3079.5,2731.9,43052.7,347.6,""while_blue"",""right"",""up"",""good_move"",52981.8,6849.4,2485.3,50175.2,321.4,""oops"",""right"",""right"",""good_move""]","",""
"2962","","<div style=""width:500px;"">
  <p>What determined the result of this run?</p>
  </div>","0","html-slider-response","35","658700","0.0-5.0-1.5","194","1","2025-07-23 08:34:33","1f75c3e559b7213887762d5229550c2b","5.69.202.172","Mozilla/5.0 (Windows NT 10.0; Win64; x64) AppleWebKit/537.36 (KHTML, like Gecko) Chrome/138.0.0.0 Safari/537.36","WebKit","Chrome","138.0.0.0","Windows","10.0","https://app.prolific.com/","en-GB,en-US;q=0.9,en;q=0.8","5c4f7b99b33a5300013dbfdd","683db9eb0562dbf637994deb","68809e9350ac47a0582506a0","2","1","5c4f7b99b33a5300013dbfdd","2","1","2025-07-23T08:45:34.640Z","","","","","","","","","","","AttribQ","","50","","","","","","","","","","","","","","","","","","","","","","","","","","","","",""
"1841","","<div style=""width:500px;"">
  <p>How much control did you have over the ball?</p>
  </div>","18","html-slider-response","36","660542","0.0-5.0-2.5","194","1","2025-07-23 08:34:33","1f75c3e559b7213887762d5229550c2b","5.69.202.172","Mozilla/5.0 (Windows NT 10.0; Win64; x64) AppleWebKit/537.36 (KHTML, like Gecko) Chrome/138.0.0.0 Safari/537.36","WebKit","Chrome","138.0.0.0","Windows","10.0","https://app.prolific.com/","en-GB,en-US;q=0.9,en;q=0.8","5c4f7b99b33a5300013dbfdd","683db9eb0562dbf637994deb","68809e9350ac47a0582506a0","2","1","5c4f7b99b33a5300013dbfdd","2","1","2025-07-23T08:45:36.482Z","","","","","","","","","","","ControlQ","","50","","","","","","","","","","","","","","","","","","","","","","","","","","","","",""
"2979","","<div style=""width:500px;"">
  <p>How would you describe your current emotional state?</p>
  </div>","23","html-slider-response","37","663523","0.0-5.0-3.5","194","1","2025-07-23 08:34:33","1f75c3e559b7213887762d5229550c2b","5.69.202.172","Mozilla/5.0 (Windows NT 10.0; Win64; x64) AppleWebKit/537.36 (KHTML, like Gecko) Chrome/138.0.0.0 Safari/537.36","WebKit","Chrome","138.0.0.0","Windows","10.0","https://app.prolific.com/","en-GB,en-US;q=0.9,en;q=0.8","5c4f7b99b33a5300013dbfdd","683db9eb0562dbf637994deb","68809e9350ac47a0582506a0","2","1","5c4f7b99b33a5300013dbfdd","2","1","2025-07-23T08:45:39.463Z","","","","","","","","","","","StressQ","","50","","","","","","","","","","","","","","","","","","","","","","","","","","","","",""
"2002","","<div style=""width:500px;"">
  <p>What best describes how you currently feel?</p>
  </div>","15","html-slider-response","38","665526","0.0-5.0-4.5","194","1","2025-07-23 08:34:33","1f75c3e559b7213887762d5229550c2b","5.69.202.172","Mozilla/5.0 (Windows NT 10.0; Win64; x64) AppleWebKit/537.36 (KHTML, like Gecko) Chrome/138.0.0.0 Safari/537.36","WebKit","Chrome","138.0.0.0","Windows","10.0","https://app.prolific.com/","en-GB,en-US;q=0.9,en;q=0.8","5c4f7b99b33a5300013dbfdd","683db9eb0562dbf637994deb","68809e9350ac47a0582506a0","2","1","5c4f7b99b33a5300013dbfdd","2","1","2025-07-23T08:45:41.466Z","","","","","","","","","","","MotivationQ","","50","","","","","","","","","","","","","","","","","","","","","","","","","","","","",""
"","","","","ctl-task-cpt","39","715441","0.0-5.0-0.6","194","1","2025-07-23 08:34:33","1f75c3e559b7213887762d5229550c2b","5.69.202.172","Mozilla/5.0 (Windows NT 10.0; Win64; x64) AppleWebKit/537.36 (KHTML, like Gecko) Chrome/138.0.0.0 Safari/537.36","WebKit","Chrome","138.0.0.0","Windows","10.0","https://app.prolific.com/","en-GB,en-US;q=0.9,en;q=0.8","5c4f7b99b33a5300013dbfdd","683db9eb0562dbf637994deb","68809e9350ac47a0582506a0","2","1","5c4f7b99b33a5300013dbfdd","2","1","2025-07-23T08:46:31.381Z","","","","","","","","","","","","","","win-only","2","g1:SE,g2:NW","0.4","7","0","667697.9","689","5690","46895.5","1","4","4","6","2","-4","-5","0","5","0","766.5","3000","-2110","[""left"",""up""]","{""num_key_presses"":12,""num_perfect"":5,""num_errors"":1,""num_randdir"":6,""num_randdir_good_moves"":3,""num_whilered"":0,""num_whileblue"":1,""num_blue"":2,""num_good_moves"":8}","[410.616960471017,409.6638378552028,0.2,410.616960471017,409.6638378552028,104.2,410.616960471017,409.6638378552028,206.4,410.616960471017,409.6638378552028,307.5,410.616960471017,409.6638378552028,412.7,191.99196047101702,145.66383785520281,517,106.74196047101701,61.7888378552028,622.7,97.11696047101701,50.7888378552028,734.7,97.11696047101701,50.7888378552028,836.8,101.24196047101701,63.1638378552028,937,127.36696047101701,384.9138378552028,1038.2,130.11696047101702,527.9138378552028,1159.1,130.11696047101702,527.9138378552028,1263,-140.75803952898298,507.2888378552028,1366.7,-543.633039528983,468.7888378552028,1467.4,-543.633039528983,467.4138378552028,1584,-543.633039528983,467.4138378552028,1686.2,-543.633039528983,467.4138378552028,1786.9,-543.633039528983,467.4138378552028,1886.9,-543.633039528983,467.4138378552028,1987.8,-543.633039528983,467.4138378552028,2091.5,-543.633039528983,467.4138378552028,2193.4,-543.633039528983,467.4138378552028,2297.6,-543.633039528983,467.4138378552028,2398.2,-543.633039528983,467.4138378552028,2499.5,-543.633039528983,467.4138378552028,2602.1,-543.633039528983,467.4138378552028,2702.7,-543.633039528983,467.4138378552028,2824.7,-543.633039528983,467.4138378552028,2926.8,-543.633039528983,467.4138378552028,3031.4,-543.633039528983,467.4138378552028,3136.1,-543.633039528983,467.4138378552028,3237.2,-543.633039528983,467.4138378552028,3337.5,-543.633039528983,467.4138378552028,3441.4,-543.633039528983,467.4138378552028,3541.4,-543.633039528983,467.4138378552028,3642.1,-543.633039528983,467.4138378552028,3742.4,-543.633039528983,467.4138378552028,3846,-543.633039528983,467.4138378552028,3956.7,-543.633039528983,467.4138378552028,4056.9,-543.633039528983,467.4138378552028,4157.2,-543.633039528983,467.4138378552028,4262.6,-543.633039528983,467.4138378552028,4367.9,-543.633039528983,467.4138378552028,4471.8,-543.633039528983,467.4138378552028,4574.5,-543.633039528983,467.4138378552028,4679,-543.633039528983,467.4138378552028,4781.7,-543.633039528983,467.4138378552028,4882,-543.633039528983,467.4138378552028,4987]","[1396.7,1396.7,1000,0,396.7,""oops"",""up"",""right"",""bad_move"",5105.8,3708.1,3358.2,1397.7,349.9,""oops"",""up"",""right"",""bad_move"",8294.5,3188.2,2815.8,5106.3,372.4,""smooth"",""up"",""up"",""good_move"",11025,2730.1,2441.4,8294.9,288.7,""oops"",""up"",""up"",""good_move"",14075.6,3050.2,2706.4,11025.4,343.8,""smooth"",""up"",""up"",""good_move"",17556.8,3480.9,3161.7,14075.9,319.2,""smooth"",""left"",""left"",""good_move"",20859.6,3302.1,2956.5,17557.5,345.6,""oops"",""left"",""left"",""good_move"",23409.1,2549.1,1988.1,20860,561,""smooth"",""left"",""left"",""good_move"",25575.8,2166.4,1783.9,23409.4,382.5,""oops"",""left"",""left"",""good_move"",28585.7,3009.6,2693.5,25576.1,316.1,""oops"",""left"",""down"",""bad_move"",31805.4,3218.5,2904.4,28587,314,""smooth"",""up"",""up"",""good_move"",34699.7,2894,2650.4,31805.7,243.6,""while_blue"",""left"",""right"",""bad_move""]","",""
"1834","","<div style=""width:500px;"">
  <p>What determined the result of this run?</p>
  </div>","0","html-slider-response","40","717276","0.0-5.0-1.6","194","1","2025-07-23 08:34:33","1f75c3e559b7213887762d5229550c2b","5.69.202.172","Mozilla/5.0 (Windows NT 10.0; Win64; x64) AppleWebKit/537.36 (KHTML, like Gecko) Chrome/138.0.0.0 Safari/537.36","WebKit","Chrome","138.0.0.0","Windows","10.0","https://app.prolific.com/","en-GB,en-US;q=0.9,en;q=0.8","5c4f7b99b33a5300013dbfdd","683db9eb0562dbf637994deb","68809e9350ac47a0582506a0","2","1","5c4f7b99b33a5300013dbfdd","2","1","2025-07-23T08:46:33.216Z","","","","","","","","","","","AttribQ","","50","","","","","","","","","","","","","","","","","","","","","","","","","","","","",""
"2363","","<div style=""width:500px;"">
  <p>How much control did you have over the ball?</p>
  </div>","0","html-slider-response","41","719641","0.0-5.0-2.6","194","1","2025-07-23 08:34:33","1f75c3e559b7213887762d5229550c2b","5.69.202.172","Mozilla/5.0 (Windows NT 10.0; Win64; x64) AppleWebKit/537.36 (KHTML, like Gecko) Chrome/138.0.0.0 Safari/537.36","WebKit","Chrome","138.0.0.0","Windows","10.0","https://app.prolific.com/","en-GB,en-US;q=0.9,en;q=0.8","5c4f7b99b33a5300013dbfdd","683db9eb0562dbf637994deb","68809e9350ac47a0582506a0","2","1","5c4f7b99b33a5300013dbfdd","2","1","2025-07-23T08:46:35.581Z","","","","","","","","","","","ControlQ","","50","","","","","","","","","","","","","","","","","","","","","","","","","","","","",""
"2132","","<div style=""width:500px;"">
  <p>How would you describe your current emotional state?</p>
  </div>","40","html-slider-response","42","721773","0.0-5.0-3.6","194","1","2025-07-23 08:34:33","1f75c3e559b7213887762d5229550c2b","5.69.202.172","Mozilla/5.0 (Windows NT 10.0; Win64; x64) AppleWebKit/537.36 (KHTML, like Gecko) Chrome/138.0.0.0 Safari/537.36","WebKit","Chrome","138.0.0.0","Windows","10.0","https://app.prolific.com/","en-GB,en-US;q=0.9,en;q=0.8","5c4f7b99b33a5300013dbfdd","683db9eb0562dbf637994deb","68809e9350ac47a0582506a0","2","1","5c4f7b99b33a5300013dbfdd","2","1","2025-07-23T08:46:37.714Z","","","","","","","","","","","StressQ","","50","","","","","","","","","","","","","","","","","","","","","","","","","","","","",""
"1523","","<div style=""width:500px;"">
  <p>What best describes how you currently feel?</p>
  </div>","26","html-slider-response","43","723297","0.0-5.0-4.6","194","1","2025-07-23 08:34:33","1f75c3e559b7213887762d5229550c2b","5.69.202.172","Mozilla/5.0 (Windows NT 10.0; Win64; x64) AppleWebKit/537.36 (KHTML, like Gecko) Chrome/138.0.0.0 Safari/537.36","WebKit","Chrome","138.0.0.0","Windows","10.0","https://app.prolific.com/","en-GB,en-US;q=0.9,en;q=0.8","5c4f7b99b33a5300013dbfdd","683db9eb0562dbf637994deb","68809e9350ac47a0582506a0","2","1","5c4f7b99b33a5300013dbfdd","2","1","2025-07-23T08:46:39.237Z","","","","","","","","","","","MotivationQ","","50","","","","","","","","","","","","","","","","","","","","","","","","","","","","",""
"","","","","ctl-task-cpt","44","781948","0.0-5.0-0.7","194","1","2025-07-23 08:34:33","1f75c3e559b7213887762d5229550c2b","5.69.202.172","Mozilla/5.0 (Windows NT 10.0; Win64; x64) AppleWebKit/537.36 (KHTML, like Gecko) Chrome/138.0.0.0 Safari/537.36","WebKit","Chrome","138.0.0.0","Windows","10.0","https://app.prolific.com/","en-GB,en-US;q=0.9,en;q=0.8","5c4f7b99b33a5300013dbfdd","683db9eb0562dbf637994deb","68809e9350ac47a0582506a0","2","1","5c4f7b99b33a5300013dbfdd","2","1","2025-07-23T08:47:37.888Z","","","","","","","","","","","","","","win-only","0","g1:NW,g2:SE","0.3","8","0","725468.6","916.4","5921.5","55636.3","1","4","8","6","2","-8","-8","0","0","0","944","3000","-2350","[""down"",""right""]","{""num_key_presses"":11,""num_perfect"":4,""num_errors"":0,""num_randdir"":7,""num_randdir_good_moves"":3,""num_whilered"":0,""num_whileblue"":0,""num_blue"":5,""num_good_moves"":7}","[420.241960471017,405.5388378552028,0.2,420.241960471017,405.5388378552028,102,420.241960471017,405.5388378552028,205,420.241960471017,405.5388378552028,309.7,416.116960471017,406.9138378552028,422,512.366960471017,486.6638378552028,528.5,674.616960471017,637.9138378552028,629.3,721.366960471017,713.5388378552028,733.9,728.241960471017,742.4138378552028,835.1,747.491960471017,765.7888378552028,937.2,750.241960471017,765.7888378552028,1042.3,750.241960471017,765.7888378552028,1147.9,750.241960471017,765.7888378552028,1250,750.241960471017,765.7888378552028,1356.3,750.241960471017,765.7888378552028,1463.6,1283.741960471017,559.5388378552028,1564.4,1374.491960471017,523.7888378552028,1665.7,1374.491960471017,523.7888378552028,1767.6,1374.491960471017,523.7888378552028,1874.5,1374.491960471017,523.7888378552028,1986.1,1374.491960471017,523.7888378552028,2100.8,1374.491960471017,523.7888378552028,2207.9,1374.491960471017,523.7888378552028,2309.9,1374.491960471017,523.7888378552028,2414.9,1374.491960471017,523.7888378552028,2519.9,1374.491960471017,523.7888378552028,2625.6,1374.491960471017,523.7888378552028,2734.4,1374.491960471017,523.7888378552028,2835.8,1374.491960471017,523.7888378552028,2939.3,1374.491960471017,523.7888378552028,3044.1,1374.491960471017,523.7888378552028,3149.6,1374.491960471017,523.7888378552028,3250.2,1374.491960471017,523.7888378552028,3355.1,1374.491960471017,523.7888378552028,3455.3,1374.491960471017,523.7888378552028,3568.9,1374.491960471017,523.7888378552028,3670.1,1374.491960471017,523.7888378552028,3787.2,1374.491960471017,523.7888378552028,3896.7,1374.491960471017,523.7888378552028,3999.3,1374.491960471017,523.7888378552028,4100,1374.491960471017,523.7888378552028,4200.4,1374.491960471017,523.7888378552028,4301.1,1374.491960471017,523.7888378552028,4403.9,1374.491960471017,523.7888378552028,4515.2,1374.491960471017,523.7888378552028,4619.7,1374.491960471017,523.7888378552028,4720.1,1374.491960471017,523.7888378552028,4830.1,1374.491960471017,523.7888378552028,4930.1]","[1364.1,1364.2,1000,0,364.2,""oops"",""down"",""up"",""bad_move"",4163.1,2798.2,2431.1,1364.9,367.1,""oops"",""down"",""up"",""bad_move"",7190.4,3026.7,2666,4163.7,360.7,""oops"",""right"",""right"",""good_move"",16986.2,9795.5,2035.3,14589.9,361.1,""oops"",""right"",""left"",""bad_move"",19986.8,3000,2651.4,16986.8,348.6,""smooth"",""right"",""right"",""good_move"",22326.6,2339.2,1918.5,19987.5,420.7,""smooth"",""right"",""right"",""good_move"",28764.3,6437.3,2642.2,25724.8,397.3,""oops"",""right"",""right"",""good_move"",31848.6,3083.7,2723.9,28764.9,359.8,""oops"",""down"",""down"",""good_move"",35198.6,3349.5,3054.7,31849.1,294.8,""smooth"",""down"",""down"",""good_move"",37971.7,2772.8,2449.3,35198.9,323.5,""oops"",""down"",""up"",""bad_move"",44229.1,6256.9,2482.3,41314.3,432.5,""smooth"",""down"",""down"",""good_move""]","",""
"1720","","<div style=""width:500px;"">
  <p>What determined the result of this run?</p>
  </div>","0","html-slider-response","45","783668","0.0-5.0-1.7","194","1","2025-07-23 08:34:33","1f75c3e559b7213887762d5229550c2b","5.69.202.172","Mozilla/5.0 (Windows NT 10.0; Win64; x64) AppleWebKit/537.36 (KHTML, like Gecko) Chrome/138.0.0.0 Safari/537.36","WebKit","Chrome","138.0.0.0","Windows","10.0","https://app.prolific.com/","en-GB,en-US;q=0.9,en;q=0.8","5c4f7b99b33a5300013dbfdd","683db9eb0562dbf637994deb","68809e9350ac47a0582506a0","2","1","5c4f7b99b33a5300013dbfdd","2","1","2025-07-23T08:47:39.608Z","","","","","","","","","","","AttribQ","","50","","","","","","","","","","","","","","","","","","","","","","","","","","","","",""
"1723","","<div style=""width:500px;"">
  <p>How much control did you have over the ball?</p>
  </div>","0","html-slider-response","46","785392","0.0-5.0-2.7","194","1","2025-07-23 08:34:33","1f75c3e559b7213887762d5229550c2b","5.69.202.172","Mozilla/5.0 (Windows NT 10.0; Win64; x64) AppleWebKit/537.36 (KHTML, like Gecko) Chrome/138.0.0.0 Safari/537.36","WebKit","Chrome","138.0.0.0","Windows","10.0","https://app.prolific.com/","en-GB,en-US;q=0.9,en;q=0.8","5c4f7b99b33a5300013dbfdd","683db9eb0562dbf637994deb","68809e9350ac47a0582506a0","2","1","5c4f7b99b33a5300013dbfdd","2","1","2025-07-23T08:47:41.332Z","","","","","","","","","","","ControlQ","","50","","","","","","","","","","","","","","","","","","","","","","","","","","","","",""
"3053","","<div style=""width:500px;"">
  <p>How would you describe your current emotional state?</p>
  </div>","61","html-slider-response","47","788447","0.0-5.0-3.7","194","1","2025-07-23 08:34:33","1f75c3e559b7213887762d5229550c2b","5.69.202.172","Mozilla/5.0 (Windows NT 10.0; Win64; x64) AppleWebKit/537.36 (KHTML, like Gecko) Chrome/138.0.0.0 Safari/537.36","WebKit","Chrome","138.0.0.0","Windows","10.0","https://app.prolific.com/","en-GB,en-US;q=0.9,en;q=0.8","5c4f7b99b33a5300013dbfdd","683db9eb0562dbf637994deb","68809e9350ac47a0582506a0","2","1","5c4f7b99b33a5300013dbfdd","2","1","2025-07-23T08:47:44.387Z","","","","","","","","","","","StressQ","","50","","","","","","","","","","","","","","","","","","","","","","","","","","","","",""
"1834","","<div style=""width:500px;"">
  <p>What best describes how you currently feel?</p>
  </div>","10","html-slider-response","48","790282","0.0-5.0-4.7","194","1","2025-07-23 08:34:33","1f75c3e559b7213887762d5229550c2b","5.69.202.172","Mozilla/5.0 (Windows NT 10.0; Win64; x64) AppleWebKit/537.36 (KHTML, like Gecko) Chrome/138.0.0.0 Safari/537.36","WebKit","Chrome","138.0.0.0","Windows","10.0","https://app.prolific.com/","en-GB,en-US;q=0.9,en;q=0.8","5c4f7b99b33a5300013dbfdd","683db9eb0562dbf637994deb","68809e9350ac47a0582506a0","2","1","5c4f7b99b33a5300013dbfdd","2","1","2025-07-23T08:47:46.222Z","","","","","","","","","","","MotivationQ","","50","","","","","","","","","","","","","","","","","","","","","","","","","","","","",""
"","","","","ctl-task-cpt","49","842608","0.0-5.0-0.8","194","1","2025-07-23 08:34:33","1f75c3e559b7213887762d5229550c2b","5.69.202.172","Mozilla/5.0 (Windows NT 10.0; Win64; x64) AppleWebKit/537.36 (KHTML, like Gecko) Chrome/138.0.0.0 Safari/537.36","WebKit","Chrome","138.0.0.0","Windows","10.0","https://app.prolific.com/","en-GB,en-US;q=0.9,en;q=0.8","5c4f7b99b33a5300013dbfdd","683db9eb0562dbf637994deb","68809e9350ac47a0582506a0","2","1","5c4f7b99b33a5300013dbfdd","2","1","2025-07-23T08:48:38.549Z","","","","","","","","","","","","","","win-only","3","g1:SW,g2:NE","0.2","9","0","792453.1","840.1","5840.9","49297","1","4","4","6","2","-4","-5","0","0","0","671.7","3000","-2085","[""up"",""right""]","{""num_key_presses"":11,""num_perfect"":2,""num_errors"":1,""num_randdir"":8,""num_randdir_good_moves"":3,""num_whilered"":0,""num_whileblue"":1,""num_blue"":4,""num_good_moves"":6}","[417.491960471017,417.9138378552028,0.2,417.491960471017,417.9138378552028,101.7,417.491960471017,417.9138378552028,205.8,417.491960471017,417.9138378552028,306.1,589.366960471017,280.4138378552028,407,750.241960471017,86.5388378552028,523.1,752.991960471017,82.4138378552028,628.8,754.366960471017,81.0388378552028,739.7,792.866960471017,193.78883785520281,841.2,904.241960471017,445.4138378552028,941.3,904.241960471017,445.4138378552028,1056.6,997.741960471017,453.6638378552028,1161.8,1177.866960471017,494.9138378552028,1263.7,1177.866960471017,494.9138378552028,1366.4,1177.866960471017,494.9138378552028,1470.5,1177.866960471017,494.9138378552028,1572.2,1177.866960471017,494.9138378552028,1675.8,1177.866960471017,494.9138378552028,1776.5,1177.866960471017,494.9138378552028,1880.7,1177.866960471017,494.9138378552028,1993.1,1177.866960471017,494.9138378552028,2103.6,1177.866960471017,494.9138378552028,2205.9,1177.866960471017,494.9138378552028,2306.1,1177.866960471017,494.9138378552028,2407.4,1177.866960471017,494.9138378552028,2510.7,1177.866960471017,494.9138378552028,2613.6,1177.866960471017,494.9138378552028,2715.5,1177.866960471017,494.9138378552028,2818.5,1177.866960471017,494.9138378552028,2926.8,1177.866960471017,494.9138378552028,3027,1177.866960471017,494.9138378552028,3128.3,1177.866960471017,494.9138378552028,3230.5,1177.866960471017,494.9138378552028,3331.3,1177.866960471017,494.9138378552028,3431.5,1177.866960471017,494.9138378552028,3534.4,1177.866960471017,494.9138378552028,3637,1177.866960471017,494.9138378552028,3753.8,1177.866960471017,494.9138378552028,3855.7,1177.866960471017,494.9138378552028,3964.8,1177.866960471017,494.9138378552028,4065.5,1177.866960471017,494.9138378552028,4170.5,1177.866960471017,494.9138378552028,4272,1177.866960471017,494.9138378552028,4376.7,1177.866960471017,494.9138378552028,4481.4,1177.866960471017,494.9138378552028,4585.3,1177.866960471017,494.9138378552028,4685.6,1177.866960471017,494.9138378552028,4785.6,1177.866960471017,494.9138378552028,4886.7,1177.866960471017,494.9138378552028,4992]","[1342.4,1342.4,1000,0,342.4,""smooth"",""up"",""up"",""good_move"",7235,5891.6,2135.5,4736.4,363.1,""oops"",""up"",""down"",""bad_move"",14440.8,7205.5,2446,11650.7,344.1,""oops"",""up"",""right"",""good_move"",17606.9,3165.4,2532.6,14441.5,632.8,""oops"",""up"",""right"",""good_move"",20224.5,2617.3,2270.7,17607.4,346.5,""smooth"",""up"",""up"",""good_move"",22926.4,2701.5,2348.6,20224.9,352.9,""while_blue"",""up"",""right"",""good_move"",25308.1,2381.5,1999.6,22926.6,381.9,""oops"",""up"",""left"",""bad_move"",28453,3144.5,2802.5,25308.5,342,""oops"",""up"",""up"",""good_move"",30918.8,2465.5,2137,28453.3,328.5,""oops"",""up"",""left"",""bad_move"",37738.8,6819.8,2704.2,34705.2,329.4,""oops"",""up"",""left"",""bad_move"",40383.3,2644.4,2282.3,37738.9,362.1,""oops"",""up"",""down"",""bad_move""]","",""
"1597","","<div style=""width:500px;"">
  <p>What determined the result of this run?</p>
  </div>","0","html-slider-response","50","844207","0.0-5.0-1.8","194","1","2025-07-23 08:34:33","1f75c3e559b7213887762d5229550c2b","5.69.202.172","Mozilla/5.0 (Windows NT 10.0; Win64; x64) AppleWebKit/537.36 (KHTML, like Gecko) Chrome/138.0.0.0 Safari/537.36","WebKit","Chrome","138.0.0.0","Windows","10.0","https://app.prolific.com/","en-GB,en-US;q=0.9,en;q=0.8","5c4f7b99b33a5300013dbfdd","683db9eb0562dbf637994deb","68809e9350ac47a0582506a0","2","1","5c4f7b99b33a5300013dbfdd","2","1","2025-07-23T08:48:40.147Z","","","","","","","","","","","AttribQ","","50","","","","","","","","","","","","","","","","","","","","","","","","","","","","",""
"2329","","<div style=""width:500px;"">
  <p>How much control did you have over the ball?</p>
  </div>","0","html-slider-response","51","846539","0.0-5.0-2.8","194","1","2025-07-23 08:34:33","1f75c3e559b7213887762d5229550c2b","5.69.202.172","Mozilla/5.0 (Windows NT 10.0; Win64; x64) AppleWebKit/537.36 (KHTML, like Gecko) Chrome/138.0.0.0 Safari/537.36","WebKit","Chrome","138.0.0.0","Windows","10.0","https://app.prolific.com/","en-GB,en-US;q=0.9,en;q=0.8","5c4f7b99b33a5300013dbfdd","683db9eb0562dbf637994deb","68809e9350ac47a0582506a0","2","1","5c4f7b99b33a5300013dbfdd","2","1","2025-07-23T08:48:42.480Z","","","","","","","","","","","ControlQ","","50","","","","","","","","","","","","","","","","","","","","","","","","","","","","",""
"1616","","<div style=""width:500px;"">
  <p>How would you describe your current emotional state?</p>
  </div>","59","html-slider-response","52","848157","0.0-5.0-3.8","194","1","2025-07-23 08:34:33","1f75c3e559b7213887762d5229550c2b","5.69.202.172","Mozilla/5.0 (Windows NT 10.0; Win64; x64) AppleWebKit/537.36 (KHTML, like Gecko) Chrome/138.0.0.0 Safari/537.36","WebKit","Chrome","138.0.0.0","Windows","10.0","https://app.prolific.com/","en-GB,en-US;q=0.9,en;q=0.8","5c4f7b99b33a5300013dbfdd","683db9eb0562dbf637994deb","68809e9350ac47a0582506a0","2","1","5c4f7b99b33a5300013dbfdd","2","1","2025-07-23T08:48:44.097Z","","","","","","","","","","","StressQ","","50","","","","","","","","","","","","","","","","","","","","","","","","","","","","",""
"1259","","<div style=""width:500px;"">
  <p>What best describes how you currently feel?</p>
  </div>","15","html-slider-response","53","849418","0.0-5.0-4.8","194","1","2025-07-23 08:34:33","1f75c3e559b7213887762d5229550c2b","5.69.202.172","Mozilla/5.0 (Windows NT 10.0; Win64; x64) AppleWebKit/537.36 (KHTML, like Gecko) Chrome/138.0.0.0 Safari/537.36","WebKit","Chrome","138.0.0.0","Windows","10.0","https://app.prolific.com/","en-GB,en-US;q=0.9,en;q=0.8","5c4f7b99b33a5300013dbfdd","683db9eb0562dbf637994deb","68809e9350ac47a0582506a0","2","1","5c4f7b99b33a5300013dbfdd","2","1","2025-07-23T08:48:45.358Z","","","","","","","","","","","MotivationQ","","50","","","","","","","","","","","","","","","","","","","","","","","","","","","","",""
"","","","","ctl-task-cpt","54","914433","0.0-5.0-0.9","194","1","2025-07-23 08:34:33","1f75c3e559b7213887762d5229550c2b","5.69.202.172","Mozilla/5.0 (Windows NT 10.0; Win64; x64) AppleWebKit/537.36 (KHTML, like Gecko) Chrome/138.0.0.0 Safari/537.36","WebKit","Chrome","138.0.0.0","Windows","10.0","https://app.prolific.com/","en-GB,en-US;q=0.9,en;q=0.8","5c4f7b99b33a5300013dbfdd","683db9eb0562dbf637994deb","68809e9350ac47a0582506a0","2","1","5c4f7b99b33a5300013dbfdd","2","1","2025-07-23T08:49:50.373Z","","","","","","","","","","","","","","win-only","0","g1:NW,g2:SE","0.4","10","0","851591.4","707.2","5716.2","61995.4","1","4","8","6","2","-8","-8","0","0","0","1106.1","3000","-2055","[""down"",""right""]","{""num_key_presses"":14,""num_perfect"":4,""num_errors"":0,""num_randdir"":10,""num_randdir_good_moves"":4,""num_whilered"":0,""num_whileblue"":0,""num_blue"":4,""num_good_moves"":8}","[420.241960471017,412.4138378552028,0.2,420.241960471017,412.4138378552028,103.3,420.241960471017,412.4138378552028,212.6,420.241960471017,412.4138378552028,318.6,420.241960471017,412.4138378552028,419.8,446.366960471017,437.1638378552028,524.2,649.866960471017,681.9138378552028,628.9,719.991960471017,819.4138378552028,730.3,719.991960471017,822.1638378552028,833.2,719.991960471017,822.1638378552028,937.8,721.366960471017,822.1638378552028,1046.5,732.366960471017,822.1638378552028,1149.5,732.366960471017,822.1638378552028,1261,1087.116960471017,709.4138378552028,1363.3,1091.241960471017,709.4138378552028,1463.5,1091.241960471017,709.4138378552028,1564.2,1091.241960471017,709.4138378552028,1670.2,1091.241960471017,709.4138378552028,1774.4,1091.241960471017,709.4138378552028,1874.4,1091.241960471017,709.4138378552028,1978.3,1091.241960471017,709.4138378552028,2078.7,1091.241960471017,709.4138378552028,2191.9,1091.241960471017,709.4138378552028,2293.1,1091.241960471017,709.4138378552028,2393.1,1091.241960471017,709.4138378552028,2498.6,1091.241960471017,709.4138378552028,2598.9,1091.241960471017,709.4138378552028,2706.7,1091.241960471017,709.4138378552028,2807.5,1091.241960471017,709.4138378552028,2910.4,1091.241960471017,709.4138378552028,3013.5,1091.241960471017,709.4138378552028,3114.1,1091.241960471017,709.4138378552028,3219.9,1091.241960471017,709.4138378552028,3321.2,1091.241960471017,709.4138378552028,3425,1091.241960471017,709.4138378552028,3525,1091.241960471017,709.4138378552028,3625.2,1091.241960471017,709.4138378552028,3725.3,1091.241960471017,709.4138378552028,3829,1091.241960471017,709.4138378552028,3943,1091.241960471017,709.4138378552028,4045.9,1091.241960471017,709.4138378552028,4158.6,1091.241960471017,709.4138378552028,4263.1,1091.241960471017,709.4138378552028,4363.1,1091.241960471017,709.4138378552028,4463.3,1091.241960471017,709.4138378552028,4574.5,1091.241960471017,709.4138378552028,4674.5,1091.241960471017,709.4138378552028,4775.5,1091.241960471017,709.4138378552028,4877,1091.241960471017,709.4138378552028,4979]","[5504.6,5504.6,3123.4,2016.3,364.9,""smooth"",""down"",""down"",""good_move"",8534.1,3029.1,2664.1,5505,365,""oops"",""down"",""down"",""good_move"",11016.1,2481.8,2113.7,8534.4,368.1,""smooth"",""down"",""down"",""good_move"",13443.8,2427.4,2122.3,11016.4,305.1,""oops"",""right"",""up"",""bad_move"",15703.3,2259.2,1920.4,13444.2,338.8,""oops"",""right"",""left"",""bad_move"",18605.1,2901.1,2611.9,15704,289.2,""oops"",""right"",""up"",""bad_move"",25306.8,6701.1,2643.9,22349.8,313.1,""smooth"",""down"",""down"",""good_move"",28262.1,2954.8,2629.4,25307.3,325.4,""oops"",""down"",""down"",""good_move"",30975.2,2712.7,2363.5,28262.5,349.2,""smooth"",""right"",""right"",""good_move"",33369.7,2394,2056.8,30975.7,337.2,""oops"",""right"",""right"",""good_move"",36692.6,3322.4,2992.6,33370.2,329.8,""oops"",""right"",""up"",""bad_move"",39529.4,2836.2,2390.9,36693.2,445.3,""oops"",""down"",""left"",""bad_move"",46769.8,7240,2907.5,43505.9,356.4,""oops"",""down"",""down"",""good_move"",53375.8,6605.7,2458.7,50572.2,344.9,""oops"",""right"",""left"",""bad_move""]","",""
"2007","","<div style=""width:500px;"">
  <p>What determined the result of this run?</p>
  </div>","0","html-slider-response","55","916441","0.0-5.0-1.9","194","1","2025-07-23 08:34:33","1f75c3e559b7213887762d5229550c2b","5.69.202.172","Mozilla/5.0 (Windows NT 10.0; Win64; x64) AppleWebKit/537.36 (KHTML, like Gecko) Chrome/138.0.0.0 Safari/537.36","WebKit","Chrome","138.0.0.0","Windows","10.0","https://app.prolific.com/","en-GB,en-US;q=0.9,en;q=0.8","5c4f7b99b33a5300013dbfdd","683db9eb0562dbf637994deb","68809e9350ac47a0582506a0","2","1","5c4f7b99b33a5300013dbfdd","2","1","2025-07-23T08:49:52.381Z","","","","","","","","","","","AttribQ","","50","","","","","","","","","","","","","","","","","","","","","","","","","","","","",""
"1992","","<div style=""width:500px;"">
  <p>How much control did you have over the ball?</p>
  </div>","0","html-slider-response","56","918435","0.0-5.0-2.9","194","1","2025-07-23 08:34:33","1f75c3e559b7213887762d5229550c2b","5.69.202.172","Mozilla/5.0 (Windows NT 10.0; Win64; x64) AppleWebKit/537.36 (KHTML, like Gecko) Chrome/138.0.0.0 Safari/537.36","WebKit","Chrome","138.0.0.0","Windows","10.0","https://app.prolific.com/","en-GB,en-US;q=0.9,en;q=0.8","5c4f7b99b33a5300013dbfdd","683db9eb0562dbf637994deb","68809e9350ac47a0582506a0","2","1","5c4f7b99b33a5300013dbfdd","2","1","2025-07-23T08:49:54.375Z","","","","","","","","","","","ControlQ","","50","","","","","","","","","","","","","","","","","","","","","","","","","","","","",""
"2172","","<div style=""width:500px;"">
  <p>How would you describe your current emotional state?</p>
  </div>","64","html-slider-response","57","920610","0.0-5.0-3.9","194","1","2025-07-23 08:34:33","1f75c3e559b7213887762d5229550c2b","5.69.202.172","Mozilla/5.0 (Windows NT 10.0; Win64; x64) AppleWebKit/537.36 (KHTML, like Gecko) Chrome/138.0.0.0 Safari/537.36","WebKit","Chrome","138.0.0.0","Windows","10.0","https://app.prolific.com/","en-GB,en-US;q=0.9,en;q=0.8","5c4f7b99b33a5300013dbfdd","683db9eb0562dbf637994deb","68809e9350ac47a0582506a0","2","1","5c4f7b99b33a5300013dbfdd","2","1","2025-07-23T08:49:56.550Z","","","","","","","","","","","StressQ","","50","","","","","","","","","","","","","","","","","","","","","","","","","","","","",""
"1908","","<div style=""width:500px;"">
  <p>What best describes how you currently feel?</p>
  </div>","28","html-slider-response","58","922520","0.0-5.0-4.9","194","1","2025-07-23 08:34:33","1f75c3e559b7213887762d5229550c2b","5.69.202.172","Mozilla/5.0 (Windows NT 10.0; Win64; x64) AppleWebKit/537.36 (KHTML, like Gecko) Chrome/138.0.0.0 Safari/537.36","WebKit","Chrome","138.0.0.0","Windows","10.0","https://app.prolific.com/","en-GB,en-US;q=0.9,en;q=0.8","5c4f7b99b33a5300013dbfdd","683db9eb0562dbf637994deb","68809e9350ac47a0582506a0","2","1","5c4f7b99b33a5300013dbfdd","2","1","2025-07-23T08:49:58.460Z","","","","","","","","","","","MotivationQ","","50","","","","","","","","","","","","","","","","","","","","","","","","","","","","",""
"","","","","ctl-task-cpt","59","978764","0.0-5.0-0.10","194","1","2025-07-23 08:34:33","1f75c3e559b7213887762d5229550c2b","5.69.202.172","Mozilla/5.0 (Windows NT 10.0; Win64; x64) AppleWebKit/537.36 (KHTML, like Gecko) Chrome/138.0.0.0 Safari/537.36","WebKit","Chrome","138.0.0.0","Windows","10.0","https://app.prolific.com/","en-GB,en-US;q=0.9,en;q=0.8","5c4f7b99b33a5300013dbfdd","683db9eb0562dbf637994deb","68809e9350ac47a0582506a0","2","1","5c4f7b99b33a5300013dbfdd","2","1","2025-07-23T08:50:54.704Z","","","","","","","","","","","","","","win-only","0","g1:NW,g2:SE","0.5","11","0","924693.1","653.8","5656.1","53231.7","1","4","8","6","2","8","6","6","0","0.045454545454545456","996.6","3000","250","[""down"",""right""]","{""num_key_presses"":12,""num_perfect"":5,""num_errors"":2,""num_randdir"":5,""num_randdir_good_moves"":2,""num_whilered"":0,""num_whileblue"":2,""num_blue"":6,""num_good_moves"":9}","[422.991960471017,420.6638378552028,0.4,422.991960471017,420.6638378552028,103.3,422.991960471017,420.6638378552028,213.1,422.991960471017,420.6638378552028,315.5,592.116960471017,588.4138378552028,420.4,810.741960471017,954.1638378552028,525.5,810.741960471017,954.1638378552028,626,810.741960471017,954.1638378552028,734.9,780.491960471017,848.2888378552028,842.5,757.116960471017,819.4138378552028,948.5,755.741960471017,818.0388378552028,1049.7,839.616960471017,812.5388378552028,1152.1,1120.116960471017,787.7888378552028,1254.9,1125.616960471017,786.4138378552028,1359.2,1125.616960471017,786.4138378552028,1459.5,1125.616960471017,786.4138378552028,1564.3,1125.616960471017,786.4138378552028,1665.1,1125.616960471017,786.4138378552028,1766,1125.616960471017,786.4138378552028,1871,1125.616960471017,786.4138378552028,1973.8,1125.616960471017,786.4138378552028,2074.5,1125.616960471017,786.4138378552028,2180.8,1125.616960471017,786.4138378552028,2286.7,1125.616960471017,786.4138378552028,2388.2,1125.616960471017,786.4138378552028,2490.7,1125.616960471017,786.4138378552028,2595.5,1125.616960471017,786.4138378552028,2708.4,1125.616960471017,786.4138378552028,2808.7,1125.616960471017,786.4138378552028,2914.4,1125.616960471017,786.4138378552028,3016.8,1125.616960471017,786.4138378552028,3118.6,1125.616960471017,786.4138378552028,3223.3,1125.616960471017,786.4138378552028,3330.9,1125.616960471017,786.4138378552028,3437.7,1125.616960471017,786.4138378552028,3540.7,1125.616960471017,786.4138378552028,3642.5,1125.616960471017,786.4138378552028,3743.1,1125.616960471017,786.4138378552028,3855.9,1125.616960471017,786.4138378552028,3957.9,1125.616960471017,786.4138378552028,4058.8,1125.616960471017,786.4138378552028,4171.6,1125.616960471017,786.4138378552028,4271.7,1125.616960471017,786.4138378552028,4372.5,1125.616960471017,786.4138378552028,4473.6,1125.616960471017,786.4138378552028,4579.8,1125.616960471017,786.4138378552028,4680.2,1125.616960471017,786.4138378552028,4788.8,1125.616960471017,786.4138378552028,4897.4,1125.616960471017,786.4138378552028,4998.1]","[8695.6,8695.6,3134.5,5167.7,393.4,""smooth"",""down"",""down"",""good_move"",10881.4,2184.8,1451.3,8696.7,733.4,""oops"",""down"",""up"",""bad_move"",18162.4,7280.7,2911.5,14865.4,385.5,""smooth"",""down"",""down"",""good_move"",20507.4,2344.4,1925,18163.1,419.3,""smooth"",""down"",""down"",""good_move"",22948.8,2440.9,2092,20507.9,348.9,""oops"",""down"",""down"",""good_move"",29952.3,7003.2,2967.8,26596.8,387.8,""oops"",""right"",""left"",""bad_move"",32794.4,2841.4,2514.5,29953,326.9,""smooth"",""right"",""right"",""good_move"",35338,2542.5,2147.2,32795.5,395.3,""smooth"",""right"",""right"",""good_move"",38641.5,3303.1,2995.9,35338.4,307.3,""oops"",""right"",""right"",""good_move"",42254.1,3611.9,3288.6,38642.2,323.3,""oops"",""right"",""left"",""bad_move"",45211.1,2955.9,2614.1,42255.2,341.8,""while_blue"",""right"",""right"",""good_move"",47446.5,2234.9,1864.5,45211.6,370.4,""while_blue"",""right"",""right"",""good_move""]","",""
"9361","","<div style=""width:500px;"">
  <p>What determined the result of this run?</p>
  </div>","0","html-slider-response","60","988126","0.0-5.0-1.10","194","1","2025-07-23 08:34:33","1f75c3e559b7213887762d5229550c2b","5.69.202.172","Mozilla/5.0 (Windows NT 10.0; Win64; x64) AppleWebKit/537.36 (KHTML, like Gecko) Chrome/138.0.0.0 Safari/537.36","WebKit","Chrome","138.0.0.0","Windows","10.0","https://app.prolific.com/","en-GB,en-US;q=0.9,en;q=0.8","5c4f7b99b33a5300013dbfdd","683db9eb0562dbf637994deb","68809e9350ac47a0582506a0","2","1","5c4f7b99b33a5300013dbfdd","2","1","2025-07-23T08:51:04.066Z","","","","","","","","","","","AttribQ","","50","","","","","","","","","","","","","","","","","","","","","","","","","","","","",""
"2291","","<div style=""width:500px;"">
  <p>How much control did you have over the ball?</p>
  </div>","0","html-slider-response","61","990418","0.0-5.0-2.10","194","1","2025-07-23 08:34:33","1f75c3e559b7213887762d5229550c2b","5.69.202.172","Mozilla/5.0 (Windows NT 10.0; Win64; x64) AppleWebKit/537.36 (KHTML, like Gecko) Chrome/138.0.0.0 Safari/537.36","WebKit","Chrome","138.0.0.0","Windows","10.0","https://app.prolific.com/","en-GB,en-US;q=0.9,en;q=0.8","5c4f7b99b33a5300013dbfdd","683db9eb0562dbf637994deb","68809e9350ac47a0582506a0","2","1","5c4f7b99b33a5300013dbfdd","2","1","2025-07-23T08:51:06.358Z","","","","","","","","","","","ControlQ","","50","","","","","","","","","","","","","","","","","","","","","","","","","","","","",""
"2413","","<div style=""width:500px;"">
  <p>How would you describe your current emotional state?</p>
  </div>","68","html-slider-response","62","992833","0.0-5.0-3.10","194","1","2025-07-23 08:34:33","1f75c3e559b7213887762d5229550c2b","5.69.202.172","Mozilla/5.0 (Windows NT 10.0; Win64; x64) AppleWebKit/537.36 (KHTML, like Gecko) Chrome/138.0.0.0 Safari/537.36","WebKit","Chrome","138.0.0.0","Windows","10.0","https://app.prolific.com/","en-GB,en-US;q=0.9,en;q=0.8","5c4f7b99b33a5300013dbfdd","683db9eb0562dbf637994deb","68809e9350ac47a0582506a0","2","1","5c4f7b99b33a5300013dbfdd","2","1","2025-07-23T08:51:08.773Z","","","","","","","","","","","StressQ","","50","","","","","","","","","","","","","","","","","","","","","","","","","","","","",""
"1617","","<div style=""width:500px;"">
  <p>What best describes how you currently feel?</p>
  </div>","28","html-slider-response","63","994451","0.0-5.0-4.10","194","1","2025-07-23 08:34:33","1f75c3e559b7213887762d5229550c2b","5.69.202.172","Mozilla/5.0 (Windows NT 10.0; Win64; x64) AppleWebKit/537.36 (KHTML, like Gecko) Chrome/138.0.0.0 Safari/537.36","WebKit","Chrome","138.0.0.0","Windows","10.0","https://app.prolific.com/","en-GB,en-US;q=0.9,en;q=0.8","5c4f7b99b33a5300013dbfdd","683db9eb0562dbf637994deb","68809e9350ac47a0582506a0","2","1","5c4f7b99b33a5300013dbfdd","2","1","2025-07-23T08:51:10.391Z","","","","","","","","","","","MotivationQ","","50","","","","","","","","","","","","","","","","","","","","","","","","","","","","",""
"","","","","ctl-task-cpt","64","1039230","0.0-5.0-0.11","194","1","2025-07-23 08:34:33","1f75c3e559b7213887762d5229550c2b","5.69.202.172","Mozilla/5.0 (Windows NT 10.0; Win64; x64) AppleWebKit/537.36 (KHTML, like Gecko) Chrome/138.0.0.0 Safari/537.36","WebKit","Chrome","138.0.0.0","Windows","10.0","https://app.prolific.com/","en-GB,en-US;q=0.9,en;q=0.8","5c4f7b99b33a5300013dbfdd","683db9eb0562dbf637994deb","68809e9350ac47a0582506a0","2","1","5c4f7b99b33a5300013dbfdd","2","1","2025-07-23T08:51:55.170Z","","","","","","","","","","","","","","win-only","3","g1:SW,g2:NE","0.6","12","0","996622.3","532.2","5538.7","41761.4","1","4","4","6","2","4","4","10","6","0.07575757575757576","985.8","3000","385","[""up"",""right""]","{""num_key_presses"":12,""num_perfect"":7,""num_errors"":0,""num_randdir"":5,""num_randdir_good_moves"":2,""num_whilered"":0,""num_whileblue"":0,""num_blue"":1,""num_good_moves"":9}","[405.116960471017,415.1638378552028,0.2,405.116960471017,415.1638378552028,103.7,405.116960471017,415.1638378552028,203.7,405.116960471017,415.1638378552028,312,420.241960471017,398.6638378552028,414.7,603.116960471017,266.6638378552028,526.6,651.241960471017,188.28883785520281,627.6,662.241960471017,163.53883785520281,742.8,696.616960471017,140.16383785520281,843.9,724.116960471017,134.66383785520281,954,724.116960471017,134.66383785520281,1054.5,724.116960471017,134.66383785520281,1158.3,739.241960471017,159.41383785520281,1259.7,739.241960471017,159.41383785520281,1365,739.241960471017,159.41383785520281,1474.5,810.741960471017,175.91383785520281,1577,944.116960471017,233.66383785520281,1690.1,944.116960471017,233.66383785520281,1791.8,944.116960471017,233.66383785520281,1893.6,944.116960471017,233.66383785520281,1996.7,944.116960471017,233.66383785520281,2110.3,944.116960471017,233.66383785520281,2213.9,944.116960471017,233.66383785520281,2315.6,944.116960471017,233.66383785520281,2418.3,944.116960471017,233.66383785520281,2530.8,944.116960471017,233.66383785520281,2633.6,944.116960471017,233.66383785520281,2739.9,944.116960471017,233.66383785520281,2860.1,944.116960471017,233.66383785520281,2964.2,944.116960471017,233.66383785520281,3065.1,944.116960471017,233.66383785520281,3176.1,944.116960471017,233.66383785520281,3276.2,944.116960471017,233.66383785520281,3389,944.116960471017,233.66383785520281,3493,944.116960471017,233.66383785520281,3596.1,944.116960471017,233.66383785520281,3699.8,944.116960471017,233.66383785520281,3805.8,944.116960471017,233.66383785520281,3908.3,944.116960471017,233.66383785520281,4011.4,944.116960471017,233.66383785520281,4127.1,944.116960471017,233.66383785520281,4246.2,944.116960471017,233.66383785520281,4361.3,944.116960471017,233.66383785520281,4475.4,944.116960471017,233.66383785520281,4579.1,944.116960471017,233.66383785520281,4684.2,944.116960471017,233.66383785520281,4796.6,944.116960471017,233.66383785520281,4913.4]","[1430.5,1430.5,1000,0,430.5,""smooth"",""up"",""up"",""good_move"",4253.6,2822.3,2517.4,1431.3,304.9,""smooth"",""up"",""up"",""good_move"",6659.2,2405.3,2063,4253.9,342.3,""smooth"",""right"",""right"",""good_move"",9583,2923.1,2591.7,6659.9,331.4,""oops"",""right"",""left"",""bad_move"",12630.9,3047.3,2714.9,9583.6,332.4,""oops"",""up"",""right"",""good_move"",15222.9,2591.2,2258.2,12631.7,333,""smooth"",""up"",""up"",""good_move"",21096.5,5872.6,2296.8,18466.5,333.2,""smooth"",""right"",""right"",""good_move"",24621.1,3524.3,3152.2,21096.8,372.1,""oops"",""right"",""left"",""bad_move"",27103.8,2482.4,1973.5,24621.5,508.8,""smooth"",""right"",""right"",""good_move"",29585.3,2481.3,2141.8,27104,339.5,""oops"",""right"",""left"",""bad_move"",32967.7,3382,3098.7,29585.7,283.3,""smooth"",""right"",""right"",""good_move"",36082.6,3114.6,2789.3,32968,325.3,""oops"",""right"",""right"",""good_move""]","",""
"1892","","<div style=""width:500px;"">
  <p>What determined the result of this run?</p>
  </div>","0","html-slider-response","65","1041125","0.0-5.0-1.11","194","1","2025-07-23 08:34:33","1f75c3e559b7213887762d5229550c2b","5.69.202.172","Mozilla/5.0 (Windows NT 10.0; Win64; x64) AppleWebKit/537.36 (KHTML, like Gecko) Chrome/138.0.0.0 Safari/537.36","WebKit","Chrome","138.0.0.0","Windows","10.0","https://app.prolific.com/","en-GB,en-US;q=0.9,en;q=0.8","5c4f7b99b33a5300013dbfdd","683db9eb0562dbf637994deb","68809e9350ac47a0582506a0","2","1","5c4f7b99b33a5300013dbfdd","2","1","2025-07-23T08:51:57.065Z","","","","","","","","","","","AttribQ","","50","","","","","","","","","","","","","","","","","","","","","","","","","","","","",""
"2864","","<div style=""width:500px;"">
  <p>How much control did you have over the ball?</p>
  </div>","21","html-slider-response","66","1043990","0.0-5.0-2.11","194","1","2025-07-23 08:34:33","1f75c3e559b7213887762d5229550c2b","5.69.202.172","Mozilla/5.0 (Windows NT 10.0; Win64; x64) AppleWebKit/537.36 (KHTML, like Gecko) Chrome/138.0.0.0 Safari/537.36","WebKit","Chrome","138.0.0.0","Windows","10.0","https://app.prolific.com/","en-GB,en-US;q=0.9,en;q=0.8","5c4f7b99b33a5300013dbfdd","683db9eb0562dbf637994deb","68809e9350ac47a0582506a0","2","1","5c4f7b99b33a5300013dbfdd","2","1","2025-07-23T08:51:59.930Z","","","","","","","","","","","ControlQ","","50","","","","","","","","","","","","","","","","","","","","","","","","","","","","",""
"1856","","<div style=""width:500px;"">
  <p>How would you describe your current emotional state?</p>
  </div>","67","html-slider-response","67","1045847","0.0-5.0-3.11","194","1","2025-07-23 08:34:33","1f75c3e559b7213887762d5229550c2b","5.69.202.172","Mozilla/5.0 (Windows NT 10.0; Win64; x64) AppleWebKit/537.36 (KHTML, like Gecko) Chrome/138.0.0.0 Safari/537.36","WebKit","Chrome","138.0.0.0","Windows","10.0","https://app.prolific.com/","en-GB,en-US;q=0.9,en;q=0.8","5c4f7b99b33a5300013dbfdd","683db9eb0562dbf637994deb","68809e9350ac47a0582506a0","2","1","5c4f7b99b33a5300013dbfdd","2","1","2025-07-23T08:52:01.787Z","","","","","","","","","","","StressQ","","50","","","","","","","","","","","","","","","","","","","","","","","","","","","","",""
"1745","","<div style=""width:500px;"">
  <p>What best describes how you currently feel?</p>
  </div>","30","html-slider-response","68","1047594","0.0-5.0-4.11","194","1","2025-07-23 08:34:33","1f75c3e559b7213887762d5229550c2b","5.69.202.172","Mozilla/5.0 (Windows NT 10.0; Win64; x64) AppleWebKit/537.36 (KHTML, like Gecko) Chrome/138.0.0.0 Safari/537.36","WebKit","Chrome","138.0.0.0","Windows","10.0","https://app.prolific.com/","en-GB,en-US;q=0.9,en;q=0.8","5c4f7b99b33a5300013dbfdd","683db9eb0562dbf637994deb","68809e9350ac47a0582506a0","2","1","5c4f7b99b33a5300013dbfdd","2","1","2025-07-23T08:52:03.534Z","","","","","","","","","","","MotivationQ","","50","","","","","","","","","","","","","","","","","","","","","","","","","","","","",""
"","","","","ctl-task-cpt","69","1094424","0.0-5.0-0.12","194","1","2025-07-23 08:34:33","1f75c3e559b7213887762d5229550c2b","5.69.202.172","Mozilla/5.0 (Windows NT 10.0; Win64; x64) AppleWebKit/537.36 (KHTML, like Gecko) Chrome/138.0.0.0 Safari/537.36","WebKit","Chrome","138.0.0.0","Windows","10.0","https://app.prolific.com/","en-GB,en-US;q=0.9,en;q=0.8","5c4f7b99b33a5300013dbfdd","683db9eb0562dbf637994deb","68809e9350ac47a0582506a0","2","1","5c4f7b99b33a5300013dbfdd","2","1","2025-07-23T08:52:50.364Z","","","","","","","","","","","","","","win-only","2","g1:SE,g2:NW","0.7","13","0","1049767.8","788.6","5790.6","43792.8","1","4","8","6","2","8","8","18","10","0.13636363636363635","988.4","3000","910","[""left"",""up""]","{""num_key_presses"":10,""num_perfect"":7,""num_errors"":0,""num_randdir"":3,""num_randdir_good_moves"":1,""num_whilered"":0,""num_whileblue"":0,""num_blue"":3,""num_good_moves"":8}","[420.241960471017,412.4138378552028,0.3,420.241960471017,412.4138378552028,110,420.241960471017,412.4138378552028,216.3,420.241960471017,412.4138378552028,319.5,420.241960471017,412.4138378552028,422.7,156.24196047101702,57.6638378552028,522.8,64.11696047101701,-70.2111621447972,638.7,64.11696047101701,-55.0861621447972,740,17.36696047101701,21.9138378552028,844,9.11696047101701,38.4138378552028,960.7,9.11696047101701,39.7888378552028,1062.4,9.11696047101701,39.7888378552028,1163.5,-135.25803952898298,92.0388378552028,1266.2,-183.38303952898298,123.6638378552028,1378.5,-183.38303952898298,123.6638378552028,1480.1,-294.758039528983,144.28883785520281,1582.9,-384.133039528983,156.66383785520281,1683.3,-384.133039528983,156.66383785520281,1798.2,-384.133039528983,156.66383785520281,1910.1,-384.133039528983,156.66383785520281,2020,-384.133039528983,156.66383785520281,2122.7,-384.133039528983,156.66383785520281,2224.2,-384.133039528983,156.66383785520281,2343.6,-384.133039528983,156.66383785520281,2447.5,-384.133039528983,156.66383785520281,2555.2,-384.133039528983,156.66383785520281,2665.1,-384.133039528983,156.66383785520281,2769.4,-384.133039528983,156.66383785520281,2877,-384.133039528983,156.66383785520281,2977.6,-384.133039528983,156.66383785520281,3087.3,-384.133039528983,156.66383785520281,3187.6,-384.133039528983,156.66383785520281,3292.7,-384.133039528983,156.66383785520281,3393,-384.133039528983,156.66383785520281,3513.5,-384.133039528983,156.66383785520281,3618.8,-384.133039528983,156.66383785520281,3727.8,-384.133039528983,156.66383785520281,3842,-384.133039528983,156.66383785520281,3942.5,-384.133039528983,156.66383785520281,4059.1,-384.133039528983,156.66383785520281,4162.2,-384.133039528983,156.66383785520281,4272.3,-384.133039528983,156.66383785520281,4378.7,-384.133039528983,156.66383785520281,4494.7,-384.133039528983,156.66383785520281,4596.8,-384.133039528983,156.66383785520281,4702,-384.133039528983,156.66383785520281,4802.5,-384.133039528983,156.66383785520281,4902.5]","[8449,8449,2289.9,5794.9,364.2,""smooth"",""up"",""up"",""good_move"",11093.2,2643.7,2290.8,8449.6,352.8,""smooth"",""up"",""up"",""good_move"",17026.6,5932.7,1980.7,14631.7,414.2,""oops"",""up"",""down"",""bad_move"",20053.5,3026.4,2665,17027.1,361.4,""smooth"",""up"",""up"",""good_move"",22453,2398.8,1986.2,20054.2,412.6,""smooth"",""left"",""left"",""good_move"",25175.2,2721.8,2409.5,22453.4,312.3,""oops"",""up"",""down"",""bad_move"",28405.9,3230.1,2857.6,25175.8,372.5,""smooth"",""up"",""up"",""good_move"",31883.6,3477.2,3166,28406.4,311.2,""smooth"",""left"",""left"",""good_move"",34610,2726,2382.5,31884,343.5,""oops"",""left"",""up"",""good_move"",37869.1,3258.8,2960.3,34610.3,298.5,""smooth"",""left"",""left"",""good_move""]","",""
"1819","","<div style=""width:500px;"">
  <p>What determined the result of this run?</p>
  </div>","0","html-slider-response","70","1096245","0.0-5.0-1.12","194","1","2025-07-23 08:34:33","1f75c3e559b7213887762d5229550c2b","5.69.202.172","Mozilla/5.0 (Windows NT 10.0; Win64; x64) AppleWebKit/537.36 (KHTML, like Gecko) Chrome/138.0.0.0 Safari/537.36","WebKit","Chrome","138.0.0.0","Windows","10.0","https://app.prolific.com/","en-GB,en-US;q=0.9,en;q=0.8","5c4f7b99b33a5300013dbfdd","683db9eb0562dbf637994deb","68809e9350ac47a0582506a0","2","1","5c4f7b99b33a5300013dbfdd","2","1","2025-07-23T08:52:52.185Z","","","","","","","","","","","AttribQ","","50","","","","","","","","","","","","","","","","","","","","","","","","","","","","",""
"2022","","<div style=""width:500px;"">
  <p>How much control did you have over the ball?</p>
  </div>","35","html-slider-response","71","1098269","0.0-5.0-2.12","194","1","2025-07-23 08:34:33","1f75c3e559b7213887762d5229550c2b","5.69.202.172","Mozilla/5.0 (Windows NT 10.0; Win64; x64) AppleWebKit/537.36 (KHTML, like Gecko) Chrome/138.0.0.0 Safari/537.36","WebKit","Chrome","138.0.0.0","Windows","10.0","https://app.prolific.com/","en-GB,en-US;q=0.9,en;q=0.8","5c4f7b99b33a5300013dbfdd","683db9eb0562dbf637994deb","68809e9350ac47a0582506a0","2","1","5c4f7b99b33a5300013dbfdd","2","1","2025-07-23T08:52:54.209Z","","","","","","","","","","","ControlQ","","50","","","","","","","","","","","","","","","","","","","","","","","","","","","","",""
"3683","","<div style=""width:500px;"">
  <p>How would you describe your current emotional state?</p>
  </div>","59","html-slider-response","72","1101952","0.0-5.0-3.12","194","1","2025-07-23 08:34:33","1f75c3e559b7213887762d5229550c2b","5.69.202.172","Mozilla/5.0 (Windows NT 10.0; Win64; x64) AppleWebKit/537.36 (KHTML, like Gecko) Chrome/138.0.0.0 Safari/537.36","WebKit","Chrome","138.0.0.0","Windows","10.0","https://app.prolific.com/","en-GB,en-US;q=0.9,en;q=0.8","5c4f7b99b33a5300013dbfdd","683db9eb0562dbf637994deb","68809e9350ac47a0582506a0","2","1","5c4f7b99b33a5300013dbfdd","2","1","2025-07-23T08:52:57.892Z","","","","","","","","","","","StressQ","","50","","","","","","","","","","","","","","","","","","","","","","","","","","","","",""
"1435","","<div style=""width:500px;"">
  <p>What best describes how you currently feel?</p>
  </div>","35","html-slider-response","73","1103389","0.0-5.0-4.12","194","1","2025-07-23 08:34:33","1f75c3e559b7213887762d5229550c2b","5.69.202.172","Mozilla/5.0 (Windows NT 10.0; Win64; x64) AppleWebKit/537.36 (KHTML, like Gecko) Chrome/138.0.0.0 Safari/537.36","WebKit","Chrome","138.0.0.0","Windows","10.0","https://app.prolific.com/","en-GB,en-US;q=0.9,en;q=0.8","5c4f7b99b33a5300013dbfdd","683db9eb0562dbf637994deb","68809e9350ac47a0582506a0","2","1","5c4f7b99b33a5300013dbfdd","2","1","2025-07-23T08:52:59.329Z","","","","","","","","","","","MotivationQ","","50","","","","","","","","","","","","","","","","","","","","","","","","","","","","",""
