"rt","response_timestamp","stimulus","response","trial_type","trial_index","time_elapsed","internal_node_id","run_id","condition","recorded_at","source_code_version","ip","user_agent","device","browser","browser_version","platform","platform_version","referer","accept_language","PROLIFIC_PID","STUDY_ID","SESSION_ID","WEEK","BATCH","prolific_id","week","batch","realtime","success","responses","item_order","radio_event_ids","radio_event_times","key_event_times","mouse_event_times","straightlining","zigzagging","honeypot","eventType","view_history","slider_start","which_type","canvas_config","goals_layout","control_level","trial_number","tutorial_trial_number","trial_start_time","phase1_start_time","phase2_start_time","phase3_start_time","goal_1_value","goal_1_distance","goal_2_value","goal_2_distance","goal_selected","outcome","outcome_total","participant_final_score","participant_initial_score","participant_final_score_prop","goal_choice_rt","allocated_time","allocated_time_remaining","goal_direction","counts","mouse_movements","key_presses","question_order","question_id"
"3422","1752654189978","<p style='font-size:40px;line-height:1.25'><strong>Welcome to the experiment!</strong></p><p style='font-size:1.1em;line-height:1.25'>Thank you for participanting in our experiment again! You will be asked to play the Dysfunctional Ball Game again. We will briefly recap the rules before we start.</p><p style='font-size:1.1em;line-height:1.25'>Press <strong>Next</strong> to continue.</p>","0","custom-html-button-response","0","3429","0.0-0.0","55","1","2025-07-16 08:22:30","1f75c3e559b7213887762d5229550c2b","37.47.116.83","Mozilla/5.0 (Windows NT 10.0; Win64; x64) AppleWebKit/537.36 (KHTML, like Gecko) Chrome/138.0.0.0 Safari/537.36","WebKit","Chrome","138.0.0.0","Windows","10.0","https://app.prolific.com/","pl-PL,pl;q=0.9","5c39ed7a688b59000102a145","686e379bc37a29ffa5cdc956","68776073c6027c7c6fbacac2","1","1","5c39ed7a688b59000102a145","1","1","2025-07-16T08:23:09.981Z","","","","","","","","","","","","","","","","","","","","","","","","","","","","","","","","","","","","","","","","","",""
"5730","","","","fullscreen","1","10165","0.0-1.0","55","1","2025-07-16 08:22:30","1f75c3e559b7213887762d5229550c2b","37.47.116.83","Mozilla/5.0 (Windows NT 10.0; Win64; x64) AppleWebKit/537.36 (KHTML, like Gecko) Chrome/138.0.0.0 Safari/537.36","WebKit","Chrome","138.0.0.0","Windows","10.0","https://app.prolific.com/","pl-PL,pl;q=0.9","5c39ed7a688b59000102a145","686e379bc37a29ffa5cdc956","68776073c6027c7c6fbacac2","1","1","5c39ed7a688b59000102a145","1","1","","true","","","","","","","","","","","","","","","","","","","","","","","","","","","","","","","","","","","","","","","","",""
"4569","1752654201287","<p style='font-size:1.1em;line-height:1.25'>In the following, we will ask you a few questions relating to your feelings in the last 24 hours.<br></p><p style='font-size:1.1em;line-height:1.25'>Press the <strong>Next</strong> button to continue.</p>","0","custom-html-button-response","2","14735","0.0-2.0-0.0","55","1","2025-07-16 08:22:30","1f75c3e559b7213887762d5229550c2b","37.47.116.83","Mozilla/5.0 (Windows NT 10.0; Win64; x64) AppleWebKit/537.36 (KHTML, like Gecko) Chrome/138.0.0.0 Safari/537.36","WebKit","Chrome","138.0.0.0","Windows","10.0","https://app.prolific.com/","pl-PL,pl;q=0.9","5c39ed7a688b59000102a145","686e379bc37a29ffa5cdc956","68776073c6027c7c6fbacac2","1","1","5c39ed7a688b59000102a145","1","1","2025-07-16T08:23:21.288Z","","","","","","","","","","","","","","","","","","","","","","","","","","","","","","","","","","","","","","","","","",""
"120978.30000001192","","","","survey-template","3","135727","0.0-2.0-1.0","55","1","2025-07-16 08:22:30","1f75c3e559b7213887762d5229550c2b","37.47.116.83","Mozilla/5.0 (Windows NT 10.0; Win64; x64) AppleWebKit/537.36 (KHTML, like Gecko) Chrome/138.0.0.0 Safari/537.36","WebKit","Chrome","138.0.0.0","Windows","10.0","https://app.prolific.com/","pl-PL,pl;q=0.9","5c39ed7a688b59000102a145","686e379bc37a29ffa5cdc956","68776073c6027c7c6fbacac2","1","1","5c39ed7a688b59000102a145","1","1","2025-07-16T08:25:22.279Z","","{""Q01"":""2"",""Q02"":""1"",""Q03"":""1"",""Q04"":""3"",""Q05"":""3"",""Q06"":""1"",""Q07"":""3"",""Q08"":""0"",""Q09"":""2"",""Q10"":""2"",""Q11"":""3"",""Q12"":""0"",""Q13"":""5"",""Q14"":""2"",""Q15"":""2"",""Q16"":""3"",""Q17"":""2"",""Q18"":""1"",""Q19"":""0"",""Q20"":""1"",""Q21"":""1"",""Q22"":""1""}","[0,1,2,3,4,5,6,7,8,9,10,11,12,13,14,15,16,17,18,19,20,21]","[""Q01"",""Q02"",""Q03"",""Q04"",""Q05"",""Q06"",""Q07"",""Q08"",""Q09"",""Q10"",""Q11"",""Q12"",""Q13"",""Q14"",""Q15"",""Q16"",""Q16"",""Q17"",""Q18"",""Q19"",""Q20"",""Q21"",""Q22""]","[6162.899999976158,10053.899999976158,15475.5,16973.19999998808,20545.69999998808,25915.19999998808,29843.099999964237,32857.09999996424,38385.30000001192,41250.89999997616,45758.80000001192,49421,66555,77644.59999996424,81369.39999997616,84043.19999998808,85113.30000001192,88940.80000001192,93856,101956.89999997616,105738.39999997616,112388.89999997616,114646.80000001192]","[]","[0.30000001192092896,6162.899999976158,10053.899999976158,12727.300000011921,15475.5,16973.19999998808,20545.69999998808,25915.19999998808,29843.099999964237,32857.09999996424,38385.30000001192,41250.89999997616,44784.89999997616,44884.80000001192,45758.80000001192,49421,66555,77644.59999996424,81369.39999997616,84043.19999998808,85113.30000001192,88940.80000001192,93856,101956.89999997616,105738.39999997616,112388.89999997616,114646.80000001192,120967.69999998808]","0.3181818181818182","0.38095238095238093","0","drsp","","","","","","","","","","","","","","","","","","","","","","","","","","","","","","",""
"18058.69999998808","","","","survey-template","4","153790","0.0-2.0-2.0","55","1","2025-07-16 08:22:30","1f75c3e559b7213887762d5229550c2b","37.47.116.83","Mozilla/5.0 (Windows NT 10.0; Win64; x64) AppleWebKit/537.36 (KHTML, like Gecko) Chrome/138.0.0.0 Safari/537.36","WebKit","Chrome","138.0.0.0","Windows","10.0","https://app.prolific.com/","pl-PL,pl;q=0.9","5c39ed7a688b59000102a145","686e379bc37a29ffa5cdc956","68776073c6027c7c6fbacac2","1","1","5c39ed7a688b59000102a145","1","1","2025-07-16T08:25:40.342Z","","{""Q01"":""3"",""Q02"":""2"",""Q03"":""1""}","[0,1,2]","[""Q01"",""Q02"",""Q02"",""Q03""]","[6375.400000035763,9668.800000011921,12700.900000035763,16884.900000035763]","[]","[6375.400000035763,9668.800000011921,12700.900000035763,16884.900000035763,18057]","0.6666666666666666","0","0","stress","","","","","","","","","","","","","","","","","","","","","","","","","","","","","","",""
"84486","","","","instructions","5","238278","0.0-3.0-0.0","55","1","2025-07-16 08:22:30","1f75c3e559b7213887762d5229550c2b","37.47.116.83","Mozilla/5.0 (Windows NT 10.0; Win64; x64) AppleWebKit/537.36 (KHTML, like Gecko) Chrome/138.0.0.0 Safari/537.36","WebKit","Chrome","138.0.0.0","Windows","10.0","https://app.prolific.com/","pl-PL,pl;q=0.9","5c39ed7a688b59000102a145","686e379bc37a29ffa5cdc956","68776073c6027c7c6fbacac2","1","1","5c39ed7a688b59000102a145","1","1","","","","","","","","","","","","","[{""page_index"":0,""viewing_time"":84485}]","","","","","","","","","","","","","","","","","","","","","","","","","","","","","",""
"17343","","<p>Before you start with this game please answer the following three questions yourself. </p>
  <p>Through this game, we measure several aspects of your cognitive performance, such as reaction times, multi-tasking capabilities </p>
  <p>and the ability to assess the situation you are in.</p>
  <p></p>
  <p><b>How good do you usually are in such tasks?</b></p>","70","html-slider-response","6","255627","0.0-4.0-0.0","55","1","2025-07-16 08:22:30","1f75c3e559b7213887762d5229550c2b","37.47.116.83","Mozilla/5.0 (Windows NT 10.0; Win64; x64) AppleWebKit/537.36 (KHTML, like Gecko) Chrome/138.0.0.0 Safari/537.36","WebKit","Chrome","138.0.0.0","Windows","10.0","https://app.prolific.com/","pl-PL,pl;q=0.9","5c39ed7a688b59000102a145","686e379bc37a29ffa5cdc956","68776073c6027c7c6fbacac2","1","1","5c39ed7a688b59000102a145","1","1","2025-07-16T08:27:22.179Z","","","","","","","","","","","PreSkillQ","","50","","","","","","","","","","","","","","","","","","","","","","","","","","","","",""
"5535","","<div style=""width:500px;"">
  <p>How well do you think you will perform in this task compared to other participants?</p>
  </div>","73","html-slider-response","7","261165","0.0-4.0-1.0","55","1","2025-07-16 08:22:30","1f75c3e559b7213887762d5229550c2b","37.47.116.83","Mozilla/5.0 (Windows NT 10.0; Win64; x64) AppleWebKit/537.36 (KHTML, like Gecko) Chrome/138.0.0.0 Safari/537.36","WebKit","Chrome","138.0.0.0","Windows","10.0","https://app.prolific.com/","pl-PL,pl;q=0.9","5c39ed7a688b59000102a145","686e379bc37a29ffa5cdc956","68776073c6027c7c6fbacac2","1","1","5c39ed7a688b59000102a145","1","1","2025-07-16T08:27:27.717Z","","","","","","","","","","","PrePerfQ","","50","","","","","","","","","","","","","","","","","","","","","","","","","","","","",""
"6613","","<div style=""width:500px;"">
  <p>What best describes how you currently feel?</p>
  </div>","89","html-slider-response","8","267780","0.0-4.0-2.0","55","1","2025-07-16 08:22:30","1f75c3e559b7213887762d5229550c2b","37.47.116.83","Mozilla/5.0 (Windows NT 10.0; Win64; x64) AppleWebKit/537.36 (KHTML, like Gecko) Chrome/138.0.0.0 Safari/537.36","WebKit","Chrome","138.0.0.0","Windows","10.0","https://app.prolific.com/","pl-PL,pl;q=0.9","5c39ed7a688b59000102a145","686e379bc37a29ffa5cdc956","68776073c6027c7c6fbacac2","1","1","5c39ed7a688b59000102a145","1","1","2025-07-16T08:27:34.333Z","","","","","","","","","","","PreMotivationQ","","50","","","","","","","","","","","","","","","","","","","","","","","","","","","","",""
"","","","","ctl-task-cpt","9","303187","0.0-5.0-0.0","55","1","2025-07-16 08:22:30","1f75c3e559b7213887762d5229550c2b","37.47.116.83","Mozilla/5.0 (Windows NT 10.0; Win64; x64) AppleWebKit/537.36 (KHTML, like Gecko) Chrome/138.0.0.0 Safari/537.36","WebKit","Chrome","138.0.0.0","Windows","10.0","https://app.prolific.com/","pl-PL,pl;q=0.9","5c39ed7a688b59000102a145","686e379bc37a29ffa5cdc956","68776073c6027c7c6fbacac2","1","1","5c39ed7a688b59000102a145","1","1","2025-07-16T08:28:09.739Z","","","","","","","","","","","","","","win-only","1","g1:NE,g2:SW","1","1","0","270662.7","7570.9","12571.7","32399.5","1","4","4","6","2","4","4","4","0","0.030303030303030304","1847.8","3000","375","[""down"",""left""]","{""num_key_presses"":6,""num_perfect"":6,""num_errors"":0,""num_randdir"":0,""num_randdir_good_moves"":0,""num_whilered"":0,""num_whileblue"":0,""num_blue"":1,""num_good_moves"":6}","[295.22232142857143,294.12857142857143,0.5,295.22232142857143,294.12857142857143,101.5,295.22232142857143,294.12857142857143,205.1,295.22232142857143,294.12857142857143,306,295.22232142857143,296.12857142857143,409.8,298.22232142857143,299.12857142857143,510.2,307.22232142857143,306.12857142857143,611.5,270.22232142857143,329.12857142857143,715.1,84.22232142857143,505.12857142857143,817.2,28.222321428571426,589.1285714285714,917.2,29.222321428571426,610.1285714285714,1019.9,-10.777678571428574,657.1285714285714,1120.1,-16.777678571428574,670.1285714285714,1220.6,5.222321428571426,606.1285714285714,1325.3,23.222321428571426,574.1285714285714,1425.3,23.222321428571426,567.1285714285714,1526,25.222321428571426,566.1285714285714,1631.1,38.222321428571426,561.1285714285714,1735.9,40.222321428571426,557.1285714285714,1840.6,40.222321428571426,557.1285714285714,1941.5,40.222321428571426,557.1285714285714,2046,40.222321428571426,557.1285714285714,2150.1,40.222321428571426,557.1285714285714,2250.1,40.222321428571426,557.1285714285714,2350.2,41.222321428571426,555.1285714285714,2450.4,44.222321428571426,552.1285714285714,2550.5,45.222321428571426,551.1285714285714,2654.8,45.222321428571426,551.1285714285714,2755.2,45.222321428571426,551.1285714285714,2860.7,45.222321428571426,551.1285714285714,2964.9,48.222321428571426,549.1285714285714,3066,48.222321428571426,549.1285714285714,3170.2,48.222321428571426,549.1285714285714,3275,48.222321428571426,549.1285714285714,3375,48.222321428571426,549.1285714285714,3475,48.222321428571426,549.1285714285714,3580.9,48.222321428571426,549.1285714285714,3685,48.222321428571426,549.1285714285714,3786.6,48.222321428571426,549.1285714285714,3889.6,48.222321428571426,549.1285714285714,3990.5,48.222321428571426,549.1285714285714,4094.8,48.222321428571426,549.1285714285714,4195.1,48.222321428571426,549.1285714285714,4295.2,48.222321428571426,549.1285714285714,4395.7,48.222321428571426,549.1285714285714,4500,49.222321428571426,549.1285714285714,4605.3,49.222321428571426,549.1285714285714,4705.5,49.222321428571426,549.1285714285714,4810.1,49.222321428571426,549.1285714285714,4910.1]","[1426.7,1426.7,1000,0,426.7,""smooth"",""down"",""down"",""good_move"",4830.2,3402.8,2912.1,1427.5,490.6,""smooth"",""left"",""left"",""good_move"",6995.8,2165,1727.5,4830.8,437.6,""smooth"",""down"",""down"",""good_move"",9777.6,2780.3,2337.9,6997.3,442.4,""smooth"",""left"",""left"",""good_move"",16003.6,6225.6,2475.4,13114.4,413.9,""smooth"",""down"",""down"",""good_move"",19733.3,3729.4,3250.2,16004,479.1,""smooth"",""left"",""left"",""good_move""]","",""
"9092","","<div style=""width:500px;"">
  <p>What determined the result of this run?</p>
  </div>","94","html-slider-response","10","312280","0.0-5.0-1.0","55","1","2025-07-16 08:22:30","1f75c3e559b7213887762d5229550c2b","37.47.116.83","Mozilla/5.0 (Windows NT 10.0; Win64; x64) AppleWebKit/537.36 (KHTML, like Gecko) Chrome/138.0.0.0 Safari/537.36","WebKit","Chrome","138.0.0.0","Windows","10.0","https://app.prolific.com/","pl-PL,pl;q=0.9","5c39ed7a688b59000102a145","686e379bc37a29ffa5cdc956","68776073c6027c7c6fbacac2","1","1","5c39ed7a688b59000102a145","1","1","2025-07-16T08:28:18.833Z","","","","","","","","","","","AttribQ","","50","","","","","","","","","","","","","","","","","","","","","","","","","","","","",""
"3514","","<div style=""width:500px;"">
  <p>How much control did you have over the ball?</p>
  </div>","92","html-slider-response","11","315798","0.0-5.0-2.0","55","1","2025-07-16 08:22:30","1f75c3e559b7213887762d5229550c2b","37.47.116.83","Mozilla/5.0 (Windows NT 10.0; Win64; x64) AppleWebKit/537.36 (KHTML, like Gecko) Chrome/138.0.0.0 Safari/537.36","WebKit","Chrome","138.0.0.0","Windows","10.0","https://app.prolific.com/","pl-PL,pl;q=0.9","5c39ed7a688b59000102a145","686e379bc37a29ffa5cdc956","68776073c6027c7c6fbacac2","1","1","5c39ed7a688b59000102a145","1","1","2025-07-16T08:28:22.350Z","","","","","","","","","","","ControlQ","","50","","","","","","","","","","","","","","","","","","","","","","","","","","","","",""
"10414","","<div style=""width:500px;"">
  <p>How would you describe your current emotional state?</p>
  </div>","70","html-slider-response","12","326215","0.0-5.0-3.0","55","1","2025-07-16 08:22:30","1f75c3e559b7213887762d5229550c2b","37.47.116.83","Mozilla/5.0 (Windows NT 10.0; Win64; x64) AppleWebKit/537.36 (KHTML, like Gecko) Chrome/138.0.0.0 Safari/537.36","WebKit","Chrome","138.0.0.0","Windows","10.0","https://app.prolific.com/","pl-PL,pl;q=0.9","5c39ed7a688b59000102a145","686e379bc37a29ffa5cdc956","68776073c6027c7c6fbacac2","1","1","5c39ed7a688b59000102a145","1","1","2025-07-16T08:28:32.767Z","","","","","","","","","","","StressQ","","50","","","","","","","","","","","","","","","","","","","","","","","","","","","","",""
"7646","","<div style=""width:500px;"">
  <p>What best describes how you currently feel?</p>
  </div>","83","html-slider-response","13","333863","0.0-5.0-4.0","55","1","2025-07-16 08:22:30","1f75c3e559b7213887762d5229550c2b","37.47.116.83","Mozilla/5.0 (Windows NT 10.0; Win64; x64) AppleWebKit/537.36 (KHTML, like Gecko) Chrome/138.0.0.0 Safari/537.36","WebKit","Chrome","138.0.0.0","Windows","10.0","https://app.prolific.com/","pl-PL,pl;q=0.9","5c39ed7a688b59000102a145","686e379bc37a29ffa5cdc956","68776073c6027c7c6fbacac2","1","1","5c39ed7a688b59000102a145","1","1","2025-07-16T08:28:40.415Z","","","","","","","","","","","MotivationQ","","50","","","","","","","","","","","","","","","","","","","","","","","","","","","","",""
"","","","","ctl-task-cpt","14","366857","0.0-5.0-0.1","55","1","2025-07-16 08:22:30","1f75c3e559b7213887762d5229550c2b","37.47.116.83","Mozilla/5.0 (Windows NT 10.0; Win64; x64) AppleWebKit/537.36 (KHTML, like Gecko) Chrome/138.0.0.0 Safari/537.36","WebKit","Chrome","138.0.0.0","Windows","10.0","https://app.prolific.com/","pl-PL,pl;q=0.9","5c39ed7a688b59000102a145","686e379bc37a29ffa5cdc956","68776073c6027c7c6fbacac2","1","1","5c39ed7a688b59000102a145","1","1","2025-07-16T08:29:13.409Z","","","","","","","","","","","","","","win-only","0","g1:NW,g2:SE","0.9","2","0","336743.3","1815.3","6816.4","29981.4","1","4","8","6","2","-8","-9","0","4","0","2893.9","3000","-2995","[""down"",""right""]","{""num_key_presses"":6,""num_perfect"":5,""num_errors"":1,""num_randdir"":0,""num_randdir_good_moves"":0,""num_whilered"":0,""num_whileblue"":1,""num_blue"":2,""num_good_moves"":5}","[302.22232142857143,298.12857142857143,0.3,302.22232142857143,298.12857142857143,101.6,302.22232142857143,298.12857142857143,214.3,302.22232142857143,298.12857142857143,317.8,302.22232142857143,298.12857142857143,421.2,300.22232142857143,298.12857142857143,522.1,297.22232142857143,300.12857142857143,627.5,297.22232142857143,300.12857142857143,727.6,297.22232142857143,300.12857142857143,830.1,274.22232142857143,277.12857142857143,931,264.22232142857143,276.12857142857143,1032.1,264.22232142857143,276.12857142857143,1135.9,264.22232142857143,279.12857142857143,1242.2,264.22232142857143,282.12857142857143,1345.3,264.22232142857143,286.12857142857143,1447.1,264.22232142857143,286.12857142857143,1551,264.22232142857143,286.12857142857143,1656.8,331.22232142857143,378.12857142857143,1758.4,418.22232142857143,423.12857142857143,1858.7,440.22232142857143,434.12857142857143,1958.7,481.22232142857143,466.12857142857143,2060.6,522.2223214285714,534.1285714285714,2161.1,542.2223214285714,561.1285714285714,2261.3,537.2223214285714,542.1285714285714,2362,521.2223214285714,530.1285714285714,2467.4,521.2223214285714,530.1285714285714,2567.4,521.2223214285714,530.1285714285714,2672.6,521.2223214285714,530.1285714285714,2777.5,521.2223214285714,530.1285714285714,2880.5,521.2223214285714,530.1285714285714,2981.2,521.2223214285714,530.1285714285714,3086.5,521.2223214285714,530.1285714285714,3186.7,518.2223214285714,528.1285714285714,3292.2,514.2223214285714,527.1285714285714,3393.6,511.22232142857143,525.1285714285714,3495.2,507.22232142857143,523.1285714285714,3595.2,506.22232142857143,523.1285714285714,3696.1,504.22232142857143,521.1285714285714,3796.1,504.22232142857143,520.1285714285714,3901.1,504.22232142857143,520.1285714285714,4005.5,504.22232142857143,520.1285714285714,4108,504.22232142857143,520.1285714285714,4209,504.22232142857143,520.1285714285714,4310.5,516.2223214285714,528.1285714285714,4410.5,517.2223214285714,529.1285714285714,4511.2,517.2223214285714,529.1285714285714,4616.5,517.2223214285714,529.1285714285714,4717.1,517.2223214285714,529.1285714285714,4817.2,517.2223214285714,529.1285714285714,4921.5]","[1594.4,1594.3,1000,0.1,594.3,""smooth"",""down"",""down"",""good_move"",8223.2,6628.4,2130.9,5684.5,407.8,""smooth"",""right"",""right"",""good_move"",11131.6,2907.9,2541.9,8223.7,366,""smooth"",""down"",""down"",""good_move"",14010.5,2878.5,2434.3,11132,444.2,""smooth"",""right"",""right"",""good_move"",17034.7,3023.8,2673.6,14010.9,350.2,""while_blue"",""down"",""left"",""bad_move"",20185.5,3150,2517.4,17035.6,632.5,""smooth"",""down"",""down"",""good_move""]","",""
"8666","","<div style=""width:500px;"">
  <p>What determined the result of this run?</p>
  </div>","63","html-slider-response","15","375525","0.0-5.0-1.1","55","1","2025-07-16 08:22:30","1f75c3e559b7213887762d5229550c2b","37.47.116.83","Mozilla/5.0 (Windows NT 10.0; Win64; x64) AppleWebKit/537.36 (KHTML, like Gecko) Chrome/138.0.0.0 Safari/537.36","WebKit","Chrome","138.0.0.0","Windows","10.0","https://app.prolific.com/","pl-PL,pl;q=0.9","5c39ed7a688b59000102a145","686e379bc37a29ffa5cdc956","68776073c6027c7c6fbacac2","1","1","5c39ed7a688b59000102a145","1","1","2025-07-16T08:29:22.077Z","","","","","","","","","","","AttribQ","","50","","","","","","","","","","","","","","","","","","","","","","","","","","","","",""
"5901","","<div style=""width:500px;"">
  <p>How much control did you have over the ball?</p>
  </div>","61","html-slider-response","16","381428","0.0-5.0-2.1","55","1","2025-07-16 08:22:30","1f75c3e559b7213887762d5229550c2b","37.47.116.83","Mozilla/5.0 (Windows NT 10.0; Win64; x64) AppleWebKit/537.36 (KHTML, like Gecko) Chrome/138.0.0.0 Safari/537.36","WebKit","Chrome","138.0.0.0","Windows","10.0","https://app.prolific.com/","pl-PL,pl;q=0.9","5c39ed7a688b59000102a145","686e379bc37a29ffa5cdc956","68776073c6027c7c6fbacac2","1","1","5c39ed7a688b59000102a145","1","1","2025-07-16T08:29:27.980Z","","","","","","","","","","","ControlQ","","50","","","","","","","","","","","","","","","","","","","","","","","","","","","","",""
"5993","","<div style=""width:500px;"">
  <p>How would you describe your current emotional state?</p>
  </div>","99","html-slider-response","17","387424","0.0-5.0-3.1","55","1","2025-07-16 08:22:30","1f75c3e559b7213887762d5229550c2b","37.47.116.83","Mozilla/5.0 (Windows NT 10.0; Win64; x64) AppleWebKit/537.36 (KHTML, like Gecko) Chrome/138.0.0.0 Safari/537.36","WebKit","Chrome","138.0.0.0","Windows","10.0","https://app.prolific.com/","pl-PL,pl;q=0.9","5c39ed7a688b59000102a145","686e379bc37a29ffa5cdc956","68776073c6027c7c6fbacac2","1","1","5c39ed7a688b59000102a145","1","1","2025-07-16T08:29:33.976Z","","","","","","","","","","","StressQ","","50","","","","","","","","","","","","","","","","","","","","","","","","","","","","",""
"4214","","<div style=""width:500px;"">
  <p>What best describes how you currently feel?</p>
  </div>","73","html-slider-response","18","391640","0.0-5.0-4.1","55","1","2025-07-16 08:22:30","1f75c3e559b7213887762d5229550c2b","37.47.116.83","Mozilla/5.0 (Windows NT 10.0; Win64; x64) AppleWebKit/537.36 (KHTML, like Gecko) Chrome/138.0.0.0 Safari/537.36","WebKit","Chrome","138.0.0.0","Windows","10.0","https://app.prolific.com/","pl-PL,pl;q=0.9","5c39ed7a688b59000102a145","686e379bc37a29ffa5cdc956","68776073c6027c7c6fbacac2","1","1","5c39ed7a688b59000102a145","1","1","2025-07-16T08:29:38.192Z","","","","","","","","","","","MotivationQ","","50","","","","","","","","","","","","","","","","","","","","","","","","","","","","",""
"","","","","ctl-task-cpt","19","422674","0.0-5.0-0.2","55","1","2025-07-16 08:22:30","1f75c3e559b7213887762d5229550c2b","37.47.116.83","Mozilla/5.0 (Windows NT 10.0; Win64; x64) AppleWebKit/537.36 (KHTML, like Gecko) Chrome/138.0.0.0 Safari/537.36","WebKit","Chrome","138.0.0.0","Windows","10.0","https://app.prolific.com/","pl-PL,pl;q=0.9","5c39ed7a688b59000102a145","686e379bc37a29ffa5cdc956","68776073c6027c7c6fbacac2","1","1","5c39ed7a688b59000102a145","1","1","2025-07-16T08:30:09.227Z","","","","","","","","","","","","","","win-only","1","g1:NE,g2:SW","0.8","3","0","394523.7","2362.7","7367.2","28022.6","1","4","8","6","2","8","8","8","0","0.06060606060606061","1745.3","3000","655","[""down"",""left""]","{""num_key_presses"":6,""num_perfect"":6,""num_errors"":0,""num_randdir"":0,""num_randdir_good_moves"":0,""num_whilered"":0,""num_whileblue"":0,""num_blue"":1,""num_good_moves"":6}","[292.22232142857143,296.12857142857143,1,292.22232142857143,296.12857142857143,102.8,292.22232142857143,297.12857142857143,208.5,292.22232142857143,298.12857142857143,314.2,292.22232142857143,302.12857142857143,414.3,292.22232142857143,309.12857142857143,520,268.22232142857143,364.12857142857143,620.3,210.22232142857143,437.12857142857143,723.2,128.22232142857143,524.1285714285714,823.3,116.22232142857143,519.1285714285714,929.1,110.22232142857143,514.1285714285714,1035.7,30.222321428571426,519.1285714285714,1138.5,1.2223214285714263,528.1285714285714,1238.8,8.222321428571426,527.1285714285714,1345.6,21.222321428571426,523.1285714285714,1449.8,43.222321428571426,522.1285714285714,1550,46.222321428571426,521.1285714285714,1651.2,46.222321428571426,521.1285714285714,1753.4,46.222321428571426,521.1285714285714,1863.2,46.222321428571426,521.1285714285714,1964.9,46.222321428571426,521.1285714285714,2069,46.222321428571426,521.1285714285714,2174.4,46.222321428571426,521.1285714285714,2278.9,46.222321428571426,521.1285714285714,2378.9,46.222321428571426,521.1285714285714,2479.4,46.222321428571426,521.1285714285714,2584.1,46.222321428571426,521.1285714285714,2684.6,46.222321428571426,521.1285714285714,2787.9,46.222321428571426,521.1285714285714,2888.6,46.222321428571426,521.1285714285714,2989.3,46.222321428571426,521.1285714285714,3095.1,46.222321428571426,521.1285714285714,3199.7,46.222321428571426,521.1285714285714,3305.3,46.222321428571426,521.1285714285714,3409.6,46.222321428571426,521.1285714285714,3514,46.222321428571426,521.1285714285714,3620,46.222321428571426,521.1285714285714,3724,46.222321428571426,521.1285714285714,3824.4,46.222321428571426,521.1285714285714,3928.8,46.222321428571426,521.1285714285714,4039.2,46.222321428571426,521.1285714285714,4142.9,46.222321428571426,521.1285714285714,4243.5,46.222321428571426,521.1285714285714,4343.6,46.222321428571426,521.1285714285714,4444.8,46.222321428571426,521.1285714285714,4552.4,46.222321428571426,521.1285714285714,4653,46.222321428571426,521.1285714285714,4754.5,46.222321428571426,521.1285714285714,4858.7,46.222321428571426,521.1285714285714,4959.2]","[1420,1420,1000,0,420,""smooth"",""down"",""down"",""good_move"",4847.3,3426.6,3013.1,1420.7,413.5,""smooth"",""down"",""down"",""good_move"",8355.6,3507.8,3055.4,4847.8,452.4,""smooth"",""down"",""down"",""good_move"",11407.4,3051.1,2619.6,8356.3,431.5,""smooth"",""left"",""left"",""good_move"",17514.7,6106.7,2419.7,14674,421,""smooth"",""left"",""left"",""good_move"",20547.6,3031.9,2591.9,17515.7,440,""smooth"",""left"",""left"",""good_move""]","",""
"5791","","<div style=""width:500px;"">
  <p>What determined the result of this run?</p>
  </div>","100","html-slider-response","20","428467","0.0-5.0-1.2","55","1","2025-07-16 08:22:30","1f75c3e559b7213887762d5229550c2b","37.47.116.83","Mozilla/5.0 (Windows NT 10.0; Win64; x64) AppleWebKit/537.36 (KHTML, like Gecko) Chrome/138.0.0.0 Safari/537.36","WebKit","Chrome","138.0.0.0","Windows","10.0","https://app.prolific.com/","pl-PL,pl;q=0.9","5c39ed7a688b59000102a145","686e379bc37a29ffa5cdc956","68776073c6027c7c6fbacac2","1","1","5c39ed7a688b59000102a145","1","1","2025-07-16T08:30:15.019Z","","","","","","","","","","","AttribQ","","50","","","","","","","","","","","","","","","","","","","","","","","","","","","","",""
"3592","","<div style=""width:500px;"">
  <p>How much control did you have over the ball?</p>
  </div>","100","html-slider-response","21","432062","0.0-5.0-2.2","55","1","2025-07-16 08:22:30","1f75c3e559b7213887762d5229550c2b","37.47.116.83","Mozilla/5.0 (Windows NT 10.0; Win64; x64) AppleWebKit/537.36 (KHTML, like Gecko) Chrome/138.0.0.0 Safari/537.36","WebKit","Chrome","138.0.0.0","Windows","10.0","https://app.prolific.com/","pl-PL,pl;q=0.9","5c39ed7a688b59000102a145","686e379bc37a29ffa5cdc956","68776073c6027c7c6fbacac2","1","1","5c39ed7a688b59000102a145","1","1","2025-07-16T08:30:18.614Z","","","","","","","","","","","ControlQ","","50","","","","","","","","","","","","","","","","","","","","","","","","","","","","",""
"3083","","<div style=""width:500px;"">
  <p>How would you describe your current emotional state?</p>
  </div>","71","html-slider-response","22","435149","0.0-5.0-3.2","55","1","2025-07-16 08:22:30","1f75c3e559b7213887762d5229550c2b","37.47.116.83","Mozilla/5.0 (Windows NT 10.0; Win64; x64) AppleWebKit/537.36 (KHTML, like Gecko) Chrome/138.0.0.0 Safari/537.36","WebKit","Chrome","138.0.0.0","Windows","10.0","https://app.prolific.com/","pl-PL,pl;q=0.9","5c39ed7a688b59000102a145","686e379bc37a29ffa5cdc956","68776073c6027c7c6fbacac2","1","1","5c39ed7a688b59000102a145","1","1","2025-07-16T08:30:21.701Z","","","","","","","","","","","StressQ","","50","","","","","","","","","","","","","","","","","","","","","","","","","","","","",""
"2841","","<div style=""width:500px;"">
  <p>What best describes how you currently feel?</p>
  </div>","81","html-slider-response","23","437993","0.0-5.0-4.2","55","1","2025-07-16 08:22:30","1f75c3e559b7213887762d5229550c2b","37.47.116.83","Mozilla/5.0 (Windows NT 10.0; Win64; x64) AppleWebKit/537.36 (KHTML, like Gecko) Chrome/138.0.0.0 Safari/537.36","WebKit","Chrome","138.0.0.0","Windows","10.0","https://app.prolific.com/","pl-PL,pl;q=0.9","5c39ed7a688b59000102a145","686e379bc37a29ffa5cdc956","68776073c6027c7c6fbacac2","1","1","5c39ed7a688b59000102a145","1","1","2025-07-16T08:30:24.545Z","","","","","","","","","","","MotivationQ","","50","","","","","","","","","","","","","","","","","","","","","","","","","","","","",""
"","","","","ctl-task-cpt","24","485005","0.0-5.0-0.3","55","1","2025-07-16 08:22:30","1f75c3e559b7213887762d5229550c2b","37.47.116.83","Mozilla/5.0 (Windows NT 10.0; Win64; x64) AppleWebKit/537.36 (KHTML, like Gecko) Chrome/138.0.0.0 Safari/537.36","WebKit","Chrome","138.0.0.0","Windows","10.0","https://app.prolific.com/","pl-PL,pl;q=0.9","5c39ed7a688b59000102a145","686e379bc37a29ffa5cdc956","68776073c6027c7c6fbacac2","1","1","5c39ed7a688b59000102a145","1","1","2025-07-16T08:31:11.557Z","","","","","","","","","","","","","","win-only","2","g1:SE,g2:NW","0.7","4","0","440875.1","2867.4","7872.1","43999.1","1","4","4","6","1","1","1","9","8","0.06818181818181818","2669.8","3000","195","[""down"",""right""]","{""num_key_presses"":8,""num_perfect"":5,""num_errors"":0,""num_randdir"":3,""num_randdir_good_moves"":1,""num_whilered"":0,""num_whileblue"":0,""num_blue"":4,""num_good_moves"":6}","[299.22232142857143,298.12857142857143,0.4,299.22232142857143,298.12857142857143,103.2,299.22232142857143,298.12857142857143,204,299.22232142857143,298.12857142857143,304,299.22232142857143,298.12857142857143,404,299.22232142857143,298.12857142857143,512.1,212.22232142857143,207.12857142857143,614.4,109.22232142857143,57.128571428571426,714.4,92.22232142857143,47.128571428571426,819.9,86.22232142857143,52.128571428571426,925.5,83.22232142857143,55.128571428571426,1030.8,83.22232142857143,55.128571428571426,1134.3,81.22232142857143,56.128571428571426,1234.5,81.22232142857143,56.128571428571426,1339,81.22232142857143,56.128571428571426,1444.7,189.22232142857143,192.12857142857143,1549.3,265.22232142857143,350.12857142857143,1649.7,342.22232142857143,396.12857142857143,1754.4,389.22232142857143,417.12857142857143,1861.5,458.22232142857143,444.12857142857143,1964.6,477.22232142857143,484.12857142857143,2065.7,502.22232142857143,525.1285714285714,2165.7,521.2223214285714,541.1285714285714,2270.1,566.2223214285714,560.1285714285714,2375.3,558.2223214285714,550.1285714285714,2480.7,552.2223214285714,545.1285714285714,2580.9,545.2223214285714,539.1285714285714,2681.1,545.2223214285714,539.1285714285714,2781.8,545.2223214285714,539.1285714285714,2883.5,545.2223214285714,539.1285714285714,2985.5,544.2223214285714,538.1285714285714,3094.2,541.2223214285714,535.1285714285714,3196.6,538.2223214285714,531.1285714285714,3298.8,537.2223214285714,527.1285714285714,3408.8,534.2223214285714,519.1285714285714,3509.9,533.2223214285714,514.1285714285714,3613.5,531.2223214285714,510.12857142857143,3714.7,530.2223214285714,508.12857142857143,3816.6,529.2223214285714,506.12857142857143,3919.1,529.2223214285714,506.12857142857143,4030.2,529.2223214285714,506.12857142857143,4130.2,529.2223214285714,506.12857142857143,4234,529.2223214285714,506.12857142857143,4343.4,529.2223214285714,506.12857142857143,4443.8,529.2223214285714,506.12857142857143,4544.1,529.2223214285714,506.12857142857143,4644.2,529.2223214285714,506.12857142857143,4747.1,529.2223214285714,506.12857142857143,4850,529.2223214285714,506.12857142857143,4954.7]","[4913.4,4913.5,2418.3,2009.9,485.3,""smooth"",""down"",""down"",""good_move"",10979.2,6064.8,2234.6,8238.8,505.8,""oops"",""right"",""left"",""bad_move"",17110.9,6131.2,1957.6,14725,428.3,""smooth"",""down"",""down"",""good_move"",20394.4,3281.5,2810,17112.9,471.6,""smooth"",""right"",""right"",""good_move"",22649.9,2254.9,1788.8,20395,466.1,""oops"",""right"",""left"",""bad_move"",29198.6,6548.4,2853,25922,423.7,""oops"",""right"",""right"",""good_move"",32685.7,3486.7,3118.8,29199.1,367.9,""smooth"",""right"",""right"",""good_move"",36013,3326.4,2884.8,32686.6,441.6,""smooth"",""right"",""right"",""good_move""]","",""
"2058","","<div style=""width:500px;"">
  <p>What determined the result of this run?</p>
  </div>","83","html-slider-response","25","487066","0.0-5.0-1.3","55","1","2025-07-16 08:22:30","1f75c3e559b7213887762d5229550c2b","37.47.116.83","Mozilla/5.0 (Windows NT 10.0; Win64; x64) AppleWebKit/537.36 (KHTML, like Gecko) Chrome/138.0.0.0 Safari/537.36","WebKit","Chrome","138.0.0.0","Windows","10.0","https://app.prolific.com/","pl-PL,pl;q=0.9","5c39ed7a688b59000102a145","686e379bc37a29ffa5cdc956","68776073c6027c7c6fbacac2","1","1","5c39ed7a688b59000102a145","1","1","2025-07-16T08:31:13.619Z","","","","","","","","","","","AttribQ","","50","","","","","","","","","","","","","","","","","","","","","","","","","","","","",""
"1957","","<div style=""width:500px;"">
  <p>How much control did you have over the ball?</p>
  </div>","67","html-slider-response","26","489027","0.0-5.0-2.3","55","1","2025-07-16 08:22:30","1f75c3e559b7213887762d5229550c2b","37.47.116.83","Mozilla/5.0 (Windows NT 10.0; Win64; x64) AppleWebKit/537.36 (KHTML, like Gecko) Chrome/138.0.0.0 Safari/537.36","WebKit","Chrome","138.0.0.0","Windows","10.0","https://app.prolific.com/","pl-PL,pl;q=0.9","5c39ed7a688b59000102a145","686e379bc37a29ffa5cdc956","68776073c6027c7c6fbacac2","1","1","5c39ed7a688b59000102a145","1","1","2025-07-16T08:31:15.579Z","","","","","","","","","","","ControlQ","","50","","","","","","","","","","","","","","","","","","","","","","","","","","","","",""
"2331","","<div style=""width:500px;"">
  <p>How would you describe your current emotional state?</p>
  </div>","77","html-slider-response","27","491362","0.0-5.0-3.3","55","1","2025-07-16 08:22:30","1f75c3e559b7213887762d5229550c2b","37.47.116.83","Mozilla/5.0 (Windows NT 10.0; Win64; x64) AppleWebKit/537.36 (KHTML, like Gecko) Chrome/138.0.0.0 Safari/537.36","WebKit","Chrome","138.0.0.0","Windows","10.0","https://app.prolific.com/","pl-PL,pl;q=0.9","5c39ed7a688b59000102a145","686e379bc37a29ffa5cdc956","68776073c6027c7c6fbacac2","1","1","5c39ed7a688b59000102a145","1","1","2025-07-16T08:31:17.914Z","","","","","","","","","","","StressQ","","50","","","","","","","","","","","","","","","","","","","","","","","","","","","","",""
"2563","","<div style=""width:500px;"">
  <p>What best describes how you currently feel?</p>
  </div>","82","html-slider-response","28","493928","0.0-5.0-4.3","55","1","2025-07-16 08:22:30","1f75c3e559b7213887762d5229550c2b","37.47.116.83","Mozilla/5.0 (Windows NT 10.0; Win64; x64) AppleWebKit/537.36 (KHTML, like Gecko) Chrome/138.0.0.0 Safari/537.36","WebKit","Chrome","138.0.0.0","Windows","10.0","https://app.prolific.com/","pl-PL,pl;q=0.9","5c39ed7a688b59000102a145","686e379bc37a29ffa5cdc956","68776073c6027c7c6fbacac2","1","1","5c39ed7a688b59000102a145","1","1","2025-07-16T08:31:20.481Z","","","","","","","","","","","MotivationQ","","50","","","","","","","","","","","","","","","","","","","","","","","","","","","","",""
"","","","","ctl-task-cpt","29","527381","0.0-5.0-0.4","55","1","2025-07-16 08:22:30","1f75c3e559b7213887762d5229550c2b","37.47.116.83","Mozilla/5.0 (Windows NT 10.0; Win64; x64) AppleWebKit/537.36 (KHTML, like Gecko) Chrome/138.0.0.0 Safari/537.36","WebKit","Chrome","138.0.0.0","Windows","10.0","https://app.prolific.com/","pl-PL,pl;q=0.9","5c39ed7a688b59000102a145","686e379bc37a29ffa5cdc956","68776073c6027c7c6fbacac2","1","1","5c39ed7a688b59000102a145","1","1","2025-07-16T08:31:53.934Z","","","","","","","","","","","","","","win-only","0","g1:NW,g2:SE","0.6","5","0","496811.1","1579.1","6583.7","30430.9","1","4","8","6","2","-8","-8","1","9","0.007575757575757576","1482.3","3000","-2900","[""down"",""right""]","{""num_key_presses"":8,""num_perfect"":5,""num_errors"":0,""num_randdir"":3,""num_randdir_good_moves"":1,""num_whilered"":0,""num_whileblue"":0,""num_blue"":0,""num_good_moves"":6}","[296.22232142857143,295.12857142857143,0.4,296.22232142857143,295.12857142857143,104.3,297.22232142857143,296.12857142857143,204.7,297.22232142857143,297.12857142857143,309.8,297.22232142857143,297.12857142857143,412.4,276.22232142857143,310.12857142857143,516.7,250.22232142857143,349.12857142857143,623.2,345.22232142857143,494.12857142857143,726.9,364.22232142857143,525.1285714285714,832.3,404.22232142857143,565.1285714285714,939.4,428.22232142857143,582.1285714285714,1044.3,490.22232142857143,566.1285714285714,1147.1,544.2223214285714,549.1285714285714,1247.9,539.2223214285714,543.1285714285714,1359.4,535.2223214285714,542.1285714285714,1461.6,535.2223214285714,542.1285714285714,1562.4,535.2223214285714,542.1285714285714,1674.3,535.2223214285714,542.1285714285714,1777.1,535.2223214285714,542.1285714285714,1878.4,534.2223214285714,543.1285714285714,1981.6,536.2223214285714,548.1285714285714,2090.2,539.2223214285714,551.1285714285714,2192.7,539.2223214285714,551.1285714285714,2298.2,539.2223214285714,551.1285714285714,2405,539.2223214285714,551.1285714285714,2507.6,539.2223214285714,551.1285714285714,2611.5,539.2223214285714,551.1285714285714,2713.2,539.2223214285714,551.1285714285714,2823,539.2223214285714,551.1285714285714,2926.9,539.2223214285714,551.1285714285714,3027.3,539.2223214285714,551.1285714285714,3131.5,539.2223214285714,551.1285714285714,3234.5,539.2223214285714,551.1285714285714,3337.3,539.2223214285714,551.1285714285714,3440.3,539.2223214285714,551.1285714285714,3541.2,539.2223214285714,551.1285714285714,3642.9,539.2223214285714,551.1285714285714,3751.9,539.2223214285714,551.1285714285714,3852.1,539.2223214285714,551.1285714285714,3957,539.2223214285714,551.1285714285714,4059.5,539.2223214285714,551.1285714285714,4161.3,539.2223214285714,551.1285714285714,4262.1,539.2223214285714,551.1285714285714,4368.7,539.2223214285714,551.1285714285714,4472.4,539.2223214285714,551.1285714285714,4576.9,539.2223214285714,551.1285714285714,4682.9,539.2223214285714,551.1285714285714,4788.8,539.2223214285714,551.1285714285714,4892.6]","[1414.8,1414.9,1000,0,414.9,""smooth"",""down"",""down"",""good_move"",4312.1,2896.7,2430.1,1415.4,466.6,""smooth"",""down"",""down"",""good_move"",7170,2857.4,2429.9,4312.6,427.5,""oops"",""down"",""down"",""good_move"",10292.3,3119.8,2693.2,7172.7,426.5,""oops"",""right"",""left"",""bad_move"",13051.9,2757.8,2348,10294.1,409.8,""oops"",""right"",""up"",""bad_move"",15386.2,2333.1,1832.2,13053.1,500.9,""smooth"",""right"",""right"",""good_move"",18799.9,3412.1,3065.6,15387.8,346.5,""smooth"",""right"",""right"",""good_move"",21138.4,2338.1,2004.2,18800.3,333.9,""smooth"",""right"",""right"",""good_move""]","",""
"4087","","<div style=""width:500px;"">
  <p>What determined the result of this run?</p>
  </div>","87","html-slider-response","30","531471","0.0-5.0-1.4","55","1","2025-07-16 08:22:30","1f75c3e559b7213887762d5229550c2b","37.47.116.83","Mozilla/5.0 (Windows NT 10.0; Win64; x64) AppleWebKit/537.36 (KHTML, like Gecko) Chrome/138.0.0.0 Safari/537.36","WebKit","Chrome","138.0.0.0","Windows","10.0","https://app.prolific.com/","pl-PL,pl;q=0.9","5c39ed7a688b59000102a145","686e379bc37a29ffa5cdc956","68776073c6027c7c6fbacac2","1","1","5c39ed7a688b59000102a145","1","1","2025-07-16T08:31:58.024Z","","","","","","","","","","","AttribQ","","50","","","","","","","","","","","","","","","","","","","","","","","","","","","","",""
"1698","","<div style=""width:500px;"">
  <p>How much control did you have over the ball?</p>
  </div>","74","html-slider-response","31","533171","0.0-5.0-2.4","55","1","2025-07-16 08:22:30","1f75c3e559b7213887762d5229550c2b","37.47.116.83","Mozilla/5.0 (Windows NT 10.0; Win64; x64) AppleWebKit/537.36 (KHTML, like Gecko) Chrome/138.0.0.0 Safari/537.36","WebKit","Chrome","138.0.0.0","Windows","10.0","https://app.prolific.com/","pl-PL,pl;q=0.9","5c39ed7a688b59000102a145","686e379bc37a29ffa5cdc956","68776073c6027c7c6fbacac2","1","1","5c39ed7a688b59000102a145","1","1","2025-07-16T08:31:59.724Z","","","","","","","","","","","ControlQ","","50","","","","","","","","","","","","","","","","","","","","","","","","","","","","",""
"2707","","<div style=""width:500px;"">
  <p>How would you describe your current emotional state?</p>
  </div>","76","html-slider-response","32","535881","0.0-5.0-3.4","55","1","2025-07-16 08:22:30","1f75c3e559b7213887762d5229550c2b","37.47.116.83","Mozilla/5.0 (Windows NT 10.0; Win64; x64) AppleWebKit/537.36 (KHTML, like Gecko) Chrome/138.0.0.0 Safari/537.36","WebKit","Chrome","138.0.0.0","Windows","10.0","https://app.prolific.com/","pl-PL,pl;q=0.9","5c39ed7a688b59000102a145","686e379bc37a29ffa5cdc956","68776073c6027c7c6fbacac2","1","1","5c39ed7a688b59000102a145","1","1","2025-07-16T08:32:02.434Z","","","","","","","","","","","StressQ","","50","","","","","","","","","","","","","","","","","","","","","","","","","","","","",""
"1589","","<div style=""width:500px;"">
  <p>What best describes how you currently feel?</p>
  </div>","81","html-slider-response","33","537473","0.0-5.0-4.4","55","1","2025-07-16 08:22:30","1f75c3e559b7213887762d5229550c2b","37.47.116.83","Mozilla/5.0 (Windows NT 10.0; Win64; x64) AppleWebKit/537.36 (KHTML, like Gecko) Chrome/138.0.0.0 Safari/537.36","WebKit","Chrome","138.0.0.0","Windows","10.0","https://app.prolific.com/","pl-PL,pl;q=0.9","5c39ed7a688b59000102a145","686e379bc37a29ffa5cdc956","68776073c6027c7c6fbacac2","1","1","5c39ed7a688b59000102a145","1","1","2025-07-16T08:32:04.026Z","","","","","","","","","","","MotivationQ","","50","","","","","","","","","","","","","","","","","","","","","","","","","","","","",""
"","","","","ctl-task-cpt","34","568271","0.0-5.0-0.5","55","1","2025-07-16 08:22:30","1f75c3e559b7213887762d5229550c2b","37.47.116.83","Mozilla/5.0 (Windows NT 10.0; Win64; x64) AppleWebKit/537.36 (KHTML, like Gecko) Chrome/138.0.0.0 Safari/537.36","WebKit","Chrome","138.0.0.0","Windows","10.0","https://app.prolific.com/","pl-PL,pl;q=0.9","5c39ed7a688b59000102a145","686e379bc37a29ffa5cdc956","68776073c6027c7c6fbacac2","1","1","5c39ed7a688b59000102a145","1","1","2025-07-16T08:32:34.823Z","","","","","","","","","","","","","","win-only","0","g1:NW,g2:SE","0.5","6","0","540355.2","1365.2","6370.2","27776.6","1","4","4","6","1","1","0","1","1","0.007575757575757576","2318.4","3000","1255","[""left"",""up""]","{""num_key_presses"":6,""num_perfect"":3,""num_errors"":1,""num_randdir"":2,""num_randdir_good_moves"":1,""num_whilered"":0,""num_whileblue"":1,""num_blue"":3,""num_good_moves"":5}","[296.22232142857143,302.12857142857143,0.3,296.22232142857143,302.12857142857143,108.1,296.22232142857143,302.12857142857143,212.5,296.22232142857143,302.12857142857143,312.5,295.22232142857143,305.12857142857143,416.7,289.22232142857143,313.12857142857143,526.1,304.22232142857143,340.12857142857143,630.8,490.22232142857143,499.12857142857143,731.2,552.2223214285714,539.1285714285714,837.8,564.2223214285714,535.1285714285714,944.9,576.2223214285714,529.1285714285714,1050.7,569.2223214285714,526.1285714285714,1152.2,552.2223214285714,532.1285714285714,1257.2,550.2223214285714,535.1285714285714,1362.4,549.2223214285714,535.1285714285714,1463.1,549.2223214285714,535.1285714285714,1566.2,529.2223214285714,510.12857142857143,1666.4,192.22232142857143,188.12857142857143,1767.6,76.22232142857143,18.128571428571426,1872,77.22232142857143,15.128571428571426,1976.1,72.22232142857143,15.128571428571426,2077.6,43.222321428571426,43.128571428571426,2178.4,46.222321428571426,50.128571428571426,2278.6,47.222321428571426,50.128571428571426,2381.6,59.222321428571426,55.128571428571426,2489.4,62.222321428571426,63.128571428571426,2593,69.22232142857143,85.12857142857143,2695.4,102.22232142857143,111.12857142857143,2795.7,103.22232142857143,112.12857142857143,2896.2,142.22232142857143,135.12857142857143,2997.5,147.22232142857143,140.12857142857143,3106,147.22232142857143,140.12857142857143,3210.3,147.22232142857143,142.12857142857143,3316,147.22232142857143,142.12857142857143,3418.7,147.22232142857143,142.12857142857143,3525.8,147.22232142857143,142.12857142857143,3627.3,147.22232142857143,142.12857142857143,3731,147.22232142857143,142.12857142857143,3832,145.22232142857143,138.12857142857143,3932.8,144.22232142857143,135.12857142857143,4042,142.22232142857143,133.12857142857143,4143.1,140.22232142857143,132.12857142857143,4243.6,133.22232142857143,133.12857142857143,4346.2,130.22232142857143,135.12857142857143,4452.9,128.22232142857143,137.12857142857143,4556.4,126.22232142857143,140.12857142857143,4661.6,126.22232142857143,141.12857142857143,4761.9,126.22232142857143,141.12857142857143,4862.2,126.22232142857143,141.12857142857143,4966.4]","[4814.5,4814.6,2371.1,2001.5,442,""oops"",""up"",""up"",""good_move"",10259.2,5444,2062.6,7823,373.7,""smooth"",""up"",""up"",""good_move"",13188.5,2928.5,2524.5,10260.1,403.9,""oops"",""left"",""down"",""bad_move"",15974,2783.7,2372.5,13190.3,411.2,""smooth"",""left"",""left"",""good_move"",18320.6,2346,1966.1,15974.6,379.9,""while_blue"",""left"",""left"",""good_move"",21283.7,2961.3,2454.9,18322.5,506.3,""smooth"",""up"",""up"",""good_move""]","",""
"10662","","<div style=""width:500px;"">
  <p>What determined the result of this run?</p>
  </div>","77","html-slider-response","35","578934","0.0-5.0-1.5","55","1","2025-07-16 08:22:30","1f75c3e559b7213887762d5229550c2b","37.47.116.83","Mozilla/5.0 (Windows NT 10.0; Win64; x64) AppleWebKit/537.36 (KHTML, like Gecko) Chrome/138.0.0.0 Safari/537.36","WebKit","Chrome","138.0.0.0","Windows","10.0","https://app.prolific.com/","pl-PL,pl;q=0.9","5c39ed7a688b59000102a145","686e379bc37a29ffa5cdc956","68776073c6027c7c6fbacac2","1","1","5c39ed7a688b59000102a145","1","1","2025-07-16T08:32:45.487Z","","","","","","","","","","","AttribQ","","50","","","","","","","","","","","","","","","","","","","","","","","","","","","","",""
"5406","","<div style=""width:500px;"">
  <p>How much control did you have over the ball?</p>
  </div>","72","html-slider-response","36","584344","0.0-5.0-2.5","55","1","2025-07-16 08:22:30","1f75c3e559b7213887762d5229550c2b","37.47.116.83","Mozilla/5.0 (Windows NT 10.0; Win64; x64) AppleWebKit/537.36 (KHTML, like Gecko) Chrome/138.0.0.0 Safari/537.36","WebKit","Chrome","138.0.0.0","Windows","10.0","https://app.prolific.com/","pl-PL,pl;q=0.9","5c39ed7a688b59000102a145","686e379bc37a29ffa5cdc956","68776073c6027c7c6fbacac2","1","1","5c39ed7a688b59000102a145","1","1","2025-07-16T08:32:50.896Z","","","","","","","","","","","ControlQ","","50","","","","","","","","","","","","","","","","","","","","","","","","","","","","",""
"4442","","<div style=""width:500px;"">
  <p>How would you describe your current emotional state?</p>
  </div>","86","html-slider-response","37","588790","0.0-5.0-3.5","55","1","2025-07-16 08:22:30","1f75c3e559b7213887762d5229550c2b","37.47.116.83","Mozilla/5.0 (Windows NT 10.0; Win64; x64) AppleWebKit/537.36 (KHTML, like Gecko) Chrome/138.0.0.0 Safari/537.36","WebKit","Chrome","138.0.0.0","Windows","10.0","https://app.prolific.com/","pl-PL,pl;q=0.9","5c39ed7a688b59000102a145","686e379bc37a29ffa5cdc956","68776073c6027c7c6fbacac2","1","1","5c39ed7a688b59000102a145","1","1","2025-07-16T08:32:55.342Z","","","","","","","","","","","StressQ","","50","","","","","","","","","","","","","","","","","","","","","","","","","","","","",""
"3384","","<div style=""width:500px;"">
  <p>What best describes how you currently feel?</p>
  </div>","80","html-slider-response","38","592178","0.0-5.0-4.5","55","1","2025-07-16 08:22:30","1f75c3e559b7213887762d5229550c2b","37.47.116.83","Mozilla/5.0 (Windows NT 10.0; Win64; x64) AppleWebKit/537.36 (KHTML, like Gecko) Chrome/138.0.0.0 Safari/537.36","WebKit","Chrome","138.0.0.0","Windows","10.0","https://app.prolific.com/","pl-PL,pl;q=0.9","5c39ed7a688b59000102a145","686e379bc37a29ffa5cdc956","68776073c6027c7c6fbacac2","1","1","5c39ed7a688b59000102a145","1","1","2025-07-16T08:32:58.731Z","","","","","","","","","","","MotivationQ","","50","","","","","","","","","","","","","","","","","","","","","","","","","","","","",""
"","","","","ctl-task-cpt","39","637435","0.0-5.0-0.6","55","1","2025-07-16 08:22:30","1f75c3e559b7213887762d5229550c2b","37.47.116.83","Mozilla/5.0 (Windows NT 10.0; Win64; x64) AppleWebKit/537.36 (KHTML, like Gecko) Chrome/138.0.0.0 Safari/537.36","WebKit","Chrome","138.0.0.0","Windows","10.0","https://app.prolific.com/","pl-PL,pl;q=0.9","5c39ed7a688b59000102a145","686e379bc37a29ffa5cdc956","68776073c6027c7c6fbacac2","1","1","5c39ed7a688b59000102a145","1","1","2025-07-16T08:33:43.987Z","","","","","","","","","","","","","","win-only","2","g1:SE,g2:NW","0.4","7","0","595060.8","3513.2","8521.2","42235.1","1","4","8","6","2","-8","-9","0","1","0","1713.6","3000","-2570","[""left"",""up""]","{""num_key_presses"":10,""num_perfect"":4,""num_errors"":1,""num_randdir"":5,""num_randdir_good_moves"":1,""num_whilered"":0,""num_whileblue"":1,""num_blue"":2,""num_good_moves"":6}","[295.22232142857143,301.12857142857143,0.3,295.22232142857143,301.12857142857143,103.3,295.22232142857143,301.12857142857143,205,294.22232142857143,301.12857142857143,311.1,294.22232142857143,301.12857142857143,416.1,294.22232142857143,301.12857142857143,520.1,18.222321428571426,336.12857142857143,624.6,9.222321428571426,292.12857142857143,732.2,-45.777678571428574,192.12857142857143,834.6,-51.777678571428574,168.12857142857143,938,-46.777678571428574,95.12857142857143,1047.4,-22.777678571428574,50.128571428571426,1147.7,-6.777678571428574,48.128571428571426,1248.4,3.2223214285714263,44.128571428571426,1352.9,23.222321428571426,55.128571428571426,1458.8,36.222321428571426,58.128571428571426,1560.1,42.222321428571426,63.128571428571426,1663.3,42.222321428571426,63.128571428571426,1763.5,42.222321428571426,63.128571428571426,1863.9,37.222321428571426,69.12857142857143,1968.7,42.222321428571426,71.12857142857143,2069.3,47.222321428571426,84.12857142857143,2175.8,47.222321428571426,90.12857142857143,2279.9,29.222321428571426,84.12857142857143,2383.2,-106.77767857142857,84.12857142857143,2498,-194.77767857142857,103.12857142857143,2603.2,-264.77767857142857,123.12857142857143,2714,-271.77767857142857,124.12857142857143,2814.6,-261.77767857142857,116.12857142857143,2917.6,-261.77767857142857,116.12857142857143,3018.3,-261.77767857142857,116.12857142857143,3123.7,-261.77767857142857,116.12857142857143,3228.3,-261.77767857142857,116.12857142857143,3333.1,-261.77767857142857,116.12857142857143,3433.6,-261.77767857142857,116.12857142857143,3539.2,-261.77767857142857,116.12857142857143,3643.3,-261.77767857142857,116.12857142857143,3745,-261.77767857142857,116.12857142857143,3847.9,-261.77767857142857,116.12857142857143,3948.2,-261.77767857142857,116.12857142857143,4049.6,-261.77767857142857,116.12857142857143,4155.4,-261.77767857142857,116.12857142857143,4263.3,-261.77767857142857,116.12857142857143,4369.6,-261.77767857142857,116.12857142857143,4479.8,-261.77767857142857,116.12857142857143,4581,-261.77767857142857,116.12857142857143,4682.1,-261.77767857142857,116.12857142857143,4782.3,-261.77767857142857,116.12857142857143,4882.4,-261.77767857142857,116.12857142857143,4982.4]","[1377.8,1377.8,1000,0,377.8,""smooth"",""up"",""up"",""good_move"",4065.5,2686.8,2302.7,1378.7,384.1,""oops"",""up"",""right"",""bad_move"",7477.6,3411.2,3078.6,4066.4,332.6,""smooth"",""up"",""up"",""good_move"",9994.2,2515.4,2071,7478.8,444.4,""smooth"",""up"",""up"",""good_move"",13225.2,3229.5,2922.9,9995.7,306.6,""oops"",""left"",""down"",""bad_move"",15311.1,2085,1606.2,13226.1,478.8,""oops"",""left"",""left"",""good_move"",19105.7,3793.9,3481.6,15311.8,312.3,""oops"",""left"",""right"",""bad_move"",21900.9,2794.2,2453,19106.7,341.2,""while_blue"",""left"",""up"",""good_move"",27719,5816.8,1991.3,25218.2,509.5,""smooth"",""left"",""left"",""good_move"",30457,2737.3,2235.9,27719.8,501.3,""oops"",""left"",""down"",""bad_move""]","",""
"4333","","<div style=""width:500px;"">
  <p>What determined the result of this run?</p>
  </div>","74","html-slider-response","40","641769","0.0-5.0-1.6","55","1","2025-07-16 08:22:30","1f75c3e559b7213887762d5229550c2b","37.47.116.83","Mozilla/5.0 (Windows NT 10.0; Win64; x64) AppleWebKit/537.36 (KHTML, like Gecko) Chrome/138.0.0.0 Safari/537.36","WebKit","Chrome","138.0.0.0","Windows","10.0","https://app.prolific.com/","pl-PL,pl;q=0.9","5c39ed7a688b59000102a145","686e379bc37a29ffa5cdc956","68776073c6027c7c6fbacac2","1","1","5c39ed7a688b59000102a145","1","1","2025-07-16T08:33:48.322Z","","","","","","","","","","","AttribQ","","50","","","","","","","","","","","","","","","","","","","","","","","","","","","","",""
"4037","","<div style=""width:500px;"">
  <p>How much control did you have over the ball?</p>
  </div>","35","html-slider-response","41","645809","0.0-5.0-2.6","55","1","2025-07-16 08:22:30","1f75c3e559b7213887762d5229550c2b","37.47.116.83","Mozilla/5.0 (Windows NT 10.0; Win64; x64) AppleWebKit/537.36 (KHTML, like Gecko) Chrome/138.0.0.0 Safari/537.36","WebKit","Chrome","138.0.0.0","Windows","10.0","https://app.prolific.com/","pl-PL,pl;q=0.9","5c39ed7a688b59000102a145","686e379bc37a29ffa5cdc956","68776073c6027c7c6fbacac2","1","1","5c39ed7a688b59000102a145","1","1","2025-07-16T08:33:52.362Z","","","","","","","","","","","ControlQ","","50","","","","","","","","","","","","","","","","","","","","","","","","","","","","",""
"1773","","<div style=""width:500px;"">
  <p>How would you describe your current emotional state?</p>
  </div>","74","html-slider-response","42","647585","0.0-5.0-3.6","55","1","2025-07-16 08:22:30","1f75c3e559b7213887762d5229550c2b","37.47.116.83","Mozilla/5.0 (Windows NT 10.0; Win64; x64) AppleWebKit/537.36 (KHTML, like Gecko) Chrome/138.0.0.0 Safari/537.36","WebKit","Chrome","138.0.0.0","Windows","10.0","https://app.prolific.com/","pl-PL,pl;q=0.9","5c39ed7a688b59000102a145","686e379bc37a29ffa5cdc956","68776073c6027c7c6fbacac2","1","1","5c39ed7a688b59000102a145","1","1","2025-07-16T08:33:54.138Z","","","","","","","","","","","StressQ","","50","","","","","","","","","","","","","","","","","","","","","","","","","","","","",""
"1686","","<div style=""width:500px;"">
  <p>What best describes how you currently feel?</p>
  </div>","95","html-slider-response","43","649274","0.0-5.0-4.6","55","1","2025-07-16 08:22:30","1f75c3e559b7213887762d5229550c2b","37.47.116.83","Mozilla/5.0 (Windows NT 10.0; Win64; x64) AppleWebKit/537.36 (KHTML, like Gecko) Chrome/138.0.0.0 Safari/537.36","WebKit","Chrome","138.0.0.0","Windows","10.0","https://app.prolific.com/","pl-PL,pl;q=0.9","5c39ed7a688b59000102a145","686e379bc37a29ffa5cdc956","68776073c6027c7c6fbacac2","1","1","5c39ed7a688b59000102a145","1","1","2025-07-16T08:33:55.826Z","","","","","","","","","","","MotivationQ","","50","","","","","","","","","","","","","","","","","","","","","","","","","","","","",""
"","","","","ctl-task-cpt","44","687061","0.0-5.0-0.7","55","1","2025-07-16 08:22:30","1f75c3e559b7213887762d5229550c2b","37.47.116.83","Mozilla/5.0 (Windows NT 10.0; Win64; x64) AppleWebKit/537.36 (KHTML, like Gecko) Chrome/138.0.0.0 Safari/537.36","WebKit","Chrome","138.0.0.0","Windows","10.0","https://app.prolific.com/","pl-PL,pl;q=0.9","5c39ed7a688b59000102a145","686e379bc37a29ffa5cdc956","68776073c6027c7c6fbacac2","1","1","5c39ed7a688b59000102a145","1","1","2025-07-16T08:34:33.613Z","","","","","","","","","","","","","","win-only","0","g1:NW,g2:SE","0.3","8","0","652156.8","1029.1","6039.1","34772.2","1","4","4","6","1","-1","-1","0","0","0","2099.6","3000","-2375","[""left"",""up""]","{""num_key_presses"":7,""num_perfect"":2,""num_errors"":0,""num_randdir"":5,""num_randdir_good_moves"":3,""num_whilered"":0,""num_whileblue"":0,""num_blue"":3,""num_good_moves"":5}","[295.22232142857143,296.12857142857143,0.3,295.22232142857143,296.12857142857143,105.6,295.22232142857143,296.12857142857143,220.5,292.22232142857143,294.12857142857143,331.1,248.22232142857143,270.12857142857143,431.2,255.22232142857143,291.12857142857143,533.2,417.22232142857143,477.12857142857143,640.8,427.22232142857143,486.12857142857143,744.7,478.22232142857143,527.1285714285714,847.7,485.22232142857143,528.1285714285714,948.2,491.22232142857143,521.1285714285714,1049.3,447.22232142857143,492.12857142857143,1154.1,380.22232142857143,445.12857142857143,1254.2,173.22232142857143,225.12857142857143,1358.5,134.22232142857143,155.12857142857143,1462.1,79.22232142857143,94.12857142857143,1568.5,68.22232142857143,72.12857142857143,1673.7,32.222321428571426,39.128571428571426,1780.2,32.222321428571426,39.128571428571426,1882.2,36.222321428571426,44.128571428571426,1986.1,44.222321428571426,52.128571428571426,2090.3,44.222321428571426,52.128571428571426,2192.5,46.222321428571426,54.128571428571426,2296.2,68.22232142857143,72.12857142857143,2396.8,70.22232142857143,73.12857142857143,2500.8,70.22232142857143,73.12857142857143,2606.5,70.22232142857143,73.12857142857143,2707.1,70.22232142857143,73.12857142857143,2808.6,70.22232142857143,73.12857142857143,2913.3,70.22232142857143,73.12857142857143,3018.1,70.22232142857143,73.12857142857143,3121.3,70.22232142857143,73.12857142857143,3222.4,70.22232142857143,73.12857142857143,3323.6,70.22232142857143,73.12857142857143,3428.2,70.22232142857143,73.12857142857143,3540.2,70.22232142857143,73.12857142857143,3642.2,70.22232142857143,73.12857142857143,3743.6,70.22232142857143,73.12857142857143,3846.9,70.22232142857143,73.12857142857143,3947.7,70.22232142857143,73.12857142857143,4055.3,70.22232142857143,73.12857142857143,4158.1,70.22232142857143,73.12857142857143,4263.8,70.22232142857143,73.12857142857143,4372.4,70.22232142857143,73.12857142857143,4473,70.22232142857143,73.12857142857143,4577.4,70.22232142857143,73.12857142857143,4686,70.22232142857143,73.12857142857143,4788.8,70.22232142857143,73.12857142857143,4893.2,70.22232142857143,73.12857142857143,4997.2]","[4633.6,4633.6,2226.7,2009.7,397.2,""smooth"",""left"",""left"",""good_move"",10901,6266.9,2283.6,8127,490.4,""oops"",""left"",""right"",""bad_move"",13719,2817.4,2101.9,10901.6,715.5,""oops"",""up"",""right"",""bad_move"",16580.1,2859.9,2159.5,13720.2,700.4,""smooth"",""up"",""up"",""good_move"",19892.7,3311.9,2882.7,16580.8,429.2,""oops"",""left"",""left"",""good_move"",21813.2,1919,1281.9,19894.3,637,""oops"",""left"",""up"",""good_move"",26876,5062.6,2059.1,24397.2,419.8,""oops"",""left"",""left"",""good_move""]","",""
"3015","","<div style=""width:500px;"">
  <p>What determined the result of this run?</p>
  </div>","76","html-slider-response","45","690080","0.0-5.0-1.7","55","1","2025-07-16 08:22:30","1f75c3e559b7213887762d5229550c2b","37.47.116.83","Mozilla/5.0 (Windows NT 10.0; Win64; x64) AppleWebKit/537.36 (KHTML, like Gecko) Chrome/138.0.0.0 Safari/537.36","WebKit","Chrome","138.0.0.0","Windows","10.0","https://app.prolific.com/","pl-PL,pl;q=0.9","5c39ed7a688b59000102a145","686e379bc37a29ffa5cdc956","68776073c6027c7c6fbacac2","1","1","5c39ed7a688b59000102a145","1","1","2025-07-16T08:34:36.632Z","","","","","","","","","","","AttribQ","","50","","","","","","","","","","","","","","","","","","","","","","","","","","","","",""
"3329","","<div style=""width:500px;"">
  <p>How much control did you have over the ball?</p>
  </div>","32","html-slider-response","46","693412","0.0-5.0-2.7","55","1","2025-07-16 08:22:30","1f75c3e559b7213887762d5229550c2b","37.47.116.83","Mozilla/5.0 (Windows NT 10.0; Win64; x64) AppleWebKit/537.36 (KHTML, like Gecko) Chrome/138.0.0.0 Safari/537.36","WebKit","Chrome","138.0.0.0","Windows","10.0","https://app.prolific.com/","pl-PL,pl;q=0.9","5c39ed7a688b59000102a145","686e379bc37a29ffa5cdc956","68776073c6027c7c6fbacac2","1","1","5c39ed7a688b59000102a145","1","1","2025-07-16T08:34:39.964Z","","","","","","","","","","","ControlQ","","50","","","","","","","","","","","","","","","","","","","","","","","","","","","","",""
"4110","","<div style=""width:500px;"">
  <p>How would you describe your current emotional state?</p>
  </div>","90","html-slider-response","47","697525","0.0-5.0-3.7","55","1","2025-07-16 08:22:30","1f75c3e559b7213887762d5229550c2b","37.47.116.83","Mozilla/5.0 (Windows NT 10.0; Win64; x64) AppleWebKit/537.36 (KHTML, like Gecko) Chrome/138.0.0.0 Safari/537.36","WebKit","Chrome","138.0.0.0","Windows","10.0","https://app.prolific.com/","pl-PL,pl;q=0.9","5c39ed7a688b59000102a145","686e379bc37a29ffa5cdc956","68776073c6027c7c6fbacac2","1","1","5c39ed7a688b59000102a145","1","1","2025-07-16T08:34:44.078Z","","","","","","","","","","","StressQ","","50","","","","","","","","","","","","","","","","","","","","","","","","","","","","",""
"2312","","<div style=""width:500px;"">
  <p>What best describes how you currently feel?</p>
  </div>","99","html-slider-response","48","699840","0.0-5.0-4.7","55","1","2025-07-16 08:22:30","1f75c3e559b7213887762d5229550c2b","37.47.116.83","Mozilla/5.0 (Windows NT 10.0; Win64; x64) AppleWebKit/537.36 (KHTML, like Gecko) Chrome/138.0.0.0 Safari/537.36","WebKit","Chrome","138.0.0.0","Windows","10.0","https://app.prolific.com/","pl-PL,pl;q=0.9","5c39ed7a688b59000102a145","686e379bc37a29ffa5cdc956","68776073c6027c7c6fbacac2","1","1","5c39ed7a688b59000102a145","1","1","2025-07-16T08:34:46.392Z","","","","","","","","","","","MotivationQ","","50","","","","","","","","","","","","","","","","","","","","","","","","","","","","",""
"","","","","ctl-task-cpt","49","740370","0.0-5.0-0.8","55","1","2025-07-16 08:22:30","1f75c3e559b7213887762d5229550c2b","37.47.116.83","Mozilla/5.0 (Windows NT 10.0; Win64; x64) AppleWebKit/537.36 (KHTML, like Gecko) Chrome/138.0.0.0 Safari/537.36","WebKit","Chrome","138.0.0.0","Windows","10.0","https://app.prolific.com/","pl-PL,pl;q=0.9","5c39ed7a688b59000102a145","686e379bc37a29ffa5cdc956","68776073c6027c7c6fbacac2","1","1","5c39ed7a688b59000102a145","1","1","2025-07-16T08:35:26.922Z","","","","","","","","","","","","","","win-only","1","g1:NE,g2:SW","0.2","9","0","702722.5","1200.8","6201.3","37501.5","1","4","4","6","2","-4","-4","0","0","0","1386.1","3000","-2295","[""down"",""left""]","{""num_key_presses"":10,""num_perfect"":2,""num_errors"":0,""num_randdir"":8,""num_randdir_good_moves"":5,""num_whilered"":0,""num_whileblue"":0,""num_blue"":0,""num_good_moves"":7}","[299.22232142857143,292.12857142857143,0.4,299.22232142857143,292.12857142857143,107.2,299.22232142857143,292.12857142857143,216.5,299.22232142857143,295.12857142857143,318.3,321.22232142857143,294.12857142857143,419.9,251.22232142857143,242.12857142857143,521.4,151.22232142857143,381.12857142857143,622.8,158.22232142857143,399.12857142857143,727,135.22232142857143,448.12857142857143,827.8,118.22232142857143,479.12857142857143,929.4,81.22232142857143,536.1285714285714,1035.3,78.22232142857143,544.1285714285714,1137.8,66.22232142857143,543.1285714285714,1240.2,66.22232142857143,543.1285714285714,1346.3,66.22232142857143,543.1285714285714,1456.2,66.22232142857143,543.1285714285714,1564.6,66.22232142857143,543.1285714285714,1666.4,83.22232142857143,525.1285714285714,1772.2,340.22232142857143,419.12857142857143,1872.8,342.22232142857143,419.12857142857143,1973.3,342.22232142857143,419.12857142857143,2078,342.22232142857143,419.12857142857143,2185.3,342.22232142857143,419.12857142857143,2287.2,342.22232142857143,419.12857142857143,2392.5,342.22232142857143,419.12857142857143,2498.2,342.22232142857143,419.12857142857143,2599.1,342.22232142857143,419.12857142857143,2701.8,342.22232142857143,419.12857142857143,2805.6,342.22232142857143,419.12857142857143,2908.9,342.22232142857143,419.12857142857143,3011.5,342.22232142857143,419.12857142857143,3116.4,342.22232142857143,419.12857142857143,3220.1,342.22232142857143,419.12857142857143,3325.9,342.22232142857143,419.12857142857143,3433.8,342.22232142857143,419.12857142857143,3536.2,342.22232142857143,419.12857142857143,3646,342.22232142857143,419.12857142857143,3750.5,342.22232142857143,419.12857142857143,3854.6,342.22232142857143,419.12857142857143,3954.6,342.22232142857143,419.12857142857143,4055.1,342.22232142857143,419.12857142857143,4155.7,342.22232142857143,419.12857142857143,4268,342.22232142857143,419.12857142857143,4370.2,342.22232142857143,419.12857142857143,4485.3,342.22232142857143,419.12857142857143,4586.8,342.22232142857143,419.12857142857143,4691.4,342.22232142857143,419.12857142857143,4793.9,342.22232142857143,419.12857142857143,4898.2,342.22232142857143,419.12857142857143,4998.8]","[1379.6,1379.6,1000,0,379.6,""smooth"",""down"",""down"",""good_move"",4365,2983.3,2577.5,1381.8,405.8,""oops"",""down"",""right"",""bad_move"",7511,3145.3,2716.9,4365.7,428.4,""oops"",""left"",""left"",""good_move"",10676.7,3164.2,2765,7512.5,399.2,""smooth"",""left"",""left"",""good_move"",13899.3,3221.4,2799.3,10677.9,422.1,""oops"",""left"",""left"",""good_move"",16854.1,2954.4,2611.8,13899.7,342.6,""oops"",""down"",""left"",""good_move"",20189.9,3334.4,2913.4,16855.5,421,""oops"",""down"",""down"",""good_move"",22857,2665.7,2294.8,20191.3,370.9,""oops"",""down"",""up"",""bad_move"",25645.9,2787.2,2430.9,22858.7,356.3,""oops"",""down"",""up"",""bad_move"",28405.5,2759.2,2287.9,25646.3,471.3,""oops"",""down"",""down"",""good_move""]","",""
"7768","","<div style=""width:500px;"">
  <p>What determined the result of this run?</p>
  </div>","33","html-slider-response","50","748140","0.0-5.0-1.8","55","1","2025-07-16 08:22:30","1f75c3e559b7213887762d5229550c2b","37.47.116.83","Mozilla/5.0 (Windows NT 10.0; Win64; x64) AppleWebKit/537.36 (KHTML, like Gecko) Chrome/138.0.0.0 Safari/537.36","WebKit","Chrome","138.0.0.0","Windows","10.0","https://app.prolific.com/","pl-PL,pl;q=0.9","5c39ed7a688b59000102a145","686e379bc37a29ffa5cdc956","68776073c6027c7c6fbacac2","1","1","5c39ed7a688b59000102a145","1","1","2025-07-16T08:35:34.692Z","","","","","","","","","","","AttribQ","","50","","","","","","","","","","","","","","","","","","","","","","","","","","","","",""
"2135","","<div style=""width:500px;"">
  <p>How much control did you have over the ball?</p>
  </div>","30","html-slider-response","51","750278","0.0-5.0-2.8","55","1","2025-07-16 08:22:30","1f75c3e559b7213887762d5229550c2b","37.47.116.83","Mozilla/5.0 (Windows NT 10.0; Win64; x64) AppleWebKit/537.36 (KHTML, like Gecko) Chrome/138.0.0.0 Safari/537.36","WebKit","Chrome","138.0.0.0","Windows","10.0","https://app.prolific.com/","pl-PL,pl;q=0.9","5c39ed7a688b59000102a145","686e379bc37a29ffa5cdc956","68776073c6027c7c6fbacac2","1","1","5c39ed7a688b59000102a145","1","1","2025-07-16T08:35:36.830Z","","","","","","","","","","","ControlQ","","50","","","","","","","","","","","","","","","","","","","","","","","","","","","","",""
"4212","","<div style=""width:500px;"">
  <p>How would you describe your current emotional state?</p>
  </div>","95","html-slider-response","52","754493","0.0-5.0-3.8","55","1","2025-07-16 08:22:30","1f75c3e559b7213887762d5229550c2b","37.47.116.83","Mozilla/5.0 (Windows NT 10.0; Win64; x64) AppleWebKit/537.36 (KHTML, like Gecko) Chrome/138.0.0.0 Safari/537.36","WebKit","Chrome","138.0.0.0","Windows","10.0","https://app.prolific.com/","pl-PL,pl;q=0.9","5c39ed7a688b59000102a145","686e379bc37a29ffa5cdc956","68776073c6027c7c6fbacac2","1","1","5c39ed7a688b59000102a145","1","1","2025-07-16T08:35:41.045Z","","","","","","","","","","","StressQ","","50","","","","","","","","","","","","","","","","","","","","","","","","","","","","",""
"1676","","<div style=""width:500px;"">
  <p>What best describes how you currently feel?</p>
  </div>","100","html-slider-response","53","756172","0.0-5.0-4.8","55","1","2025-07-16 08:22:30","1f75c3e559b7213887762d5229550c2b","37.47.116.83","Mozilla/5.0 (Windows NT 10.0; Win64; x64) AppleWebKit/537.36 (KHTML, like Gecko) Chrome/138.0.0.0 Safari/537.36","WebKit","Chrome","138.0.0.0","Windows","10.0","https://app.prolific.com/","pl-PL,pl;q=0.9","5c39ed7a688b59000102a145","686e379bc37a29ffa5cdc956","68776073c6027c7c6fbacac2","1","1","5c39ed7a688b59000102a145","1","1","2025-07-16T08:35:42.725Z","","","","","","","","","","","MotivationQ","","50","","","","","","","","","","","","","","","","","","","","","","","","","","","","",""
"","","","","ctl-task-cpt","54","796611","0.0-5.0-0.9","55","1","2025-07-16 08:22:30","1f75c3e559b7213887762d5229550c2b","37.47.116.83","Mozilla/5.0 (Windows NT 10.0; Win64; x64) AppleWebKit/537.36 (KHTML, like Gecko) Chrome/138.0.0.0 Safari/537.36","WebKit","Chrome","138.0.0.0","Windows","10.0","https://app.prolific.com/","pl-PL,pl;q=0.9","5c39ed7a688b59000102a145","686e379bc37a29ffa5cdc956","68776073c6027c7c6fbacac2","1","1","5c39ed7a688b59000102a145","1","1","2025-07-16T08:36:23.163Z","","","","","","","","","","","","","","win-only","2","g1:SE,g2:NW","0.4","10","0","759055.5","2624.4","7635.3","37421.6","1","4","8","6","2","-8","-8","0","0","0","955.8","3000","-2300","[""left"",""up""]","{""num_key_presses"":8,""num_perfect"":3,""num_errors"":0,""num_randdir"":5,""num_randdir_good_moves"":3,""num_whilered"":0,""num_whileblue"":0,""num_blue"":1,""num_good_moves"":6}","[296.22232142857143,298.12857142857143,0.2,296.22232142857143,298.12857142857143,102.6,296.22232142857143,298.12857142857143,207.2,296.22232142857143,298.12857142857143,318.3,251.22232142857143,280.12857142857143,419.1,123.22232142857143,179.12857142857143,519.9,19.222321428571426,76.12857142857143,623.7,10.222321428571426,53.128571428571426,730.7,13.222321428571426,52.128571428571426,835.4,21.222321428571426,49.128571428571426,938.6,22.222321428571426,49.128571428571426,1043.5,22.222321428571426,49.128571428571426,1152.1,22.222321428571426,49.128571428571426,1253,22.222321428571426,49.128571428571426,1359,22.222321428571426,49.128571428571426,1463.3,22.222321428571426,49.128571428571426,1565.8,22.222321428571426,49.128571428571426,1666.3,22.222321428571426,49.128571428571426,1767.7,22.222321428571426,49.128571428571426,1873.2,22.222321428571426,49.128571428571426,1983.1,22.222321428571426,49.128571428571426,2086.9,22.222321428571426,49.128571428571426,2187.5,22.222321428571426,49.128571428571426,2294.1,22.222321428571426,49.128571428571426,2401.1,22.222321428571426,49.128571428571426,2504.1,22.222321428571426,49.128571428571426,2615.7,22.222321428571426,49.128571428571426,2717.4,22.222321428571426,49.128571428571426,2825.8,22.222321428571426,49.128571428571426,2931.7,22.222321428571426,49.128571428571426,3034.4,22.222321428571426,49.128571428571426,3138.8,22.222321428571426,49.128571428571426,3245.3,22.222321428571426,49.128571428571426,3348.2,22.222321428571426,49.128571428571426,3451.4,22.222321428571426,49.128571428571426,3552,22.222321428571426,49.128571428571426,3652.7,22.222321428571426,49.128571428571426,3765.7,22.222321428571426,49.128571428571426,3866.1,22.222321428571426,49.128571428571426,3969.4,22.222321428571426,49.128571428571426,4083.7,22.222321428571426,49.128571428571426,4187,22.222321428571426,49.128571428571426,4290.6,22.222321428571426,49.128571428571426,4391.1,22.222321428571426,49.128571428571426,4497.4,22.222321428571426,49.128571428571426,4600.2,22.222321428571426,49.128571428571426,4703.2,22.222321428571426,49.128571428571426,4806.9,22.222321428571426,49.128571428571426,4911.8]","[4944,4944.1,2530.4,2006.1,407.6,""smooth"",""up"",""up"",""good_move"",8059.8,3114.3,2442.8,4945.5,671.5,""oops"",""left"",""left"",""good_move"",11532.7,3470.6,2973.2,8062.2,497.3,""oops"",""left"",""left"",""good_move"",14259.8,2724.7,2287.3,11535.2,437.3,""oops"",""up"",""down"",""bad_move"",17543,3282.5,2771.4,14260.5,511.1,""smooth"",""up"",""up"",""good_move"",20547.6,3004,2514,17543.6,490,""smooth"",""up"",""up"",""good_move"",23229.7,2680.7,2206.4,20549.1,474.2,""oops"",""up"",""up"",""good_move"",26483,3251.7,2849.7,23231.3,402,""oops"",""left"",""right"",""bad_move""]","",""
"13289","","<div style=""width:500px;"">
  <p>What determined the result of this run?</p>
  </div>","29","html-slider-response","55","809902","0.0-5.0-1.9","55","1","2025-07-16 08:22:30","1f75c3e559b7213887762d5229550c2b","37.47.116.83","Mozilla/5.0 (Windows NT 10.0; Win64; x64) AppleWebKit/537.36 (KHTML, like Gecko) Chrome/138.0.0.0 Safari/537.36","WebKit","Chrome","138.0.0.0","Windows","10.0","https://app.prolific.com/","pl-PL,pl;q=0.9","5c39ed7a688b59000102a145","686e379bc37a29ffa5cdc956","68776073c6027c7c6fbacac2","1","1","5c39ed7a688b59000102a145","1","1","2025-07-16T08:36:36.454Z","","","","","","","","","","","AttribQ","","50","","","","","","","","","","","","","","","","","","","","","","","","","","","","",""
"2859","","<div style=""width:500px;"">
  <p>How much control did you have over the ball?</p>
  </div>","17","html-slider-response","56","812764","0.0-5.0-2.9","55","1","2025-07-16 08:22:30","1f75c3e559b7213887762d5229550c2b","37.47.116.83","Mozilla/5.0 (Windows NT 10.0; Win64; x64) AppleWebKit/537.36 (KHTML, like Gecko) Chrome/138.0.0.0 Safari/537.36","WebKit","Chrome","138.0.0.0","Windows","10.0","https://app.prolific.com/","pl-PL,pl;q=0.9","5c39ed7a688b59000102a145","686e379bc37a29ffa5cdc956","68776073c6027c7c6fbacac2","1","1","5c39ed7a688b59000102a145","1","1","2025-07-16T08:36:39.316Z","","","","","","","","","","","ControlQ","","50","","","","","","","","","","","","","","","","","","","","","","","","","","","","",""
"2858","","<div style=""width:500px;"">
  <p>How would you describe your current emotional state?</p>
  </div>","100","html-slider-response","57","815625","0.0-5.0-3.9","55","1","2025-07-16 08:22:30","1f75c3e559b7213887762d5229550c2b","37.47.116.83","Mozilla/5.0 (Windows NT 10.0; Win64; x64) AppleWebKit/537.36 (KHTML, like Gecko) Chrome/138.0.0.0 Safari/537.36","WebKit","Chrome","138.0.0.0","Windows","10.0","https://app.prolific.com/","pl-PL,pl;q=0.9","5c39ed7a688b59000102a145","686e379bc37a29ffa5cdc956","68776073c6027c7c6fbacac2","1","1","5c39ed7a688b59000102a145","1","1","2025-07-16T08:36:42.178Z","","","","","","","","","","","StressQ","","50","","","","","","","","","","","","","","","","","","","","","","","","","","","","",""
"2052","","<div style=""width:500px;"">
  <p>What best describes how you currently feel?</p>
  </div>","100","html-slider-response","58","817680","0.0-5.0-4.9","55","1","2025-07-16 08:22:30","1f75c3e559b7213887762d5229550c2b","37.47.116.83","Mozilla/5.0 (Windows NT 10.0; Win64; x64) AppleWebKit/537.36 (KHTML, like Gecko) Chrome/138.0.0.0 Safari/537.36","WebKit","Chrome","138.0.0.0","Windows","10.0","https://app.prolific.com/","pl-PL,pl;q=0.9","5c39ed7a688b59000102a145","686e379bc37a29ffa5cdc956","68776073c6027c7c6fbacac2","1","1","5c39ed7a688b59000102a145","1","1","2025-07-16T08:36:44.232Z","","","","","","","","","","","MotivationQ","","50","","","","","","","","","","","","","","","","","","","","","","","","","","","","",""
"","","","","ctl-task-cpt","59","851934","0.0-5.0-0.10","55","1","2025-07-16 08:22:30","1f75c3e559b7213887762d5229550c2b","37.47.116.83","Mozilla/5.0 (Windows NT 10.0; Win64; x64) AppleWebKit/537.36 (KHTML, like Gecko) Chrome/138.0.0.0 Safari/537.36","WebKit","Chrome","138.0.0.0","Windows","10.0","https://app.prolific.com/","pl-PL,pl;q=0.9","5c39ed7a688b59000102a145","686e379bc37a29ffa5cdc956","68776073c6027c7c6fbacac2","1","1","5c39ed7a688b59000102a145","1","1","2025-07-16T08:37:18.486Z","","","","","","","","","","","","","","win-only","0","g1:NW,g2:SE","0.5","11","0","820563.6","1454","6458.3","31223.8","1","4","4","6","2","-4","-4","0","0","0","1454.2","3000","-2015","[""down"",""right""]","{""num_key_presses"":7,""num_perfect"":4,""num_errors"":0,""num_randdir"":3,""num_randdir_good_moves"":1,""num_whilered"":0,""num_whileblue"":0,""num_blue"":1,""num_good_moves"":5}","[301.22232142857143,296.12857142857143,1.3,301.22232142857143,296.12857142857143,101.8,301.22232142857143,296.12857142857143,205,301.22232142857143,296.12857142857143,312.4,301.22232142857143,298.12857142857143,421.9,298.22232142857143,301.12857142857143,526.3,298.22232142857143,301.12857142857143,636.3,298.22232142857143,301.12857142857143,739.6,308.22232142857143,313.12857142857143,846.8,464.22232142857143,425.12857142857143,953.9,533.2223214285714,473.12857142857143,1056,533.2223214285714,477.12857142857143,1163.2,522.2223214285714,492.12857142857143,1266.2,522.2223214285714,523.1285714285714,1370.6,522.2223214285714,523.1285714285714,1474.7,522.2223214285714,523.1285714285714,1591.5,522.2223214285714,523.1285714285714,1703.8,522.2223214285714,523.1285714285714,1817.2,522.2223214285714,523.1285714285714,1924.7,522.2223214285714,523.1285714285714,2038.3,522.2223214285714,523.1285714285714,2152.8,522.2223214285714,523.1285714285714,2258.3,522.2223214285714,523.1285714285714,2363.1,522.2223214285714,523.1285714285714,2474,522.2223214285714,523.1285714285714,2578.5,522.2223214285714,523.1285714285714,2694.1,522.2223214285714,523.1285714285714,2810.5,522.2223214285714,523.1285714285714,2919,522.2223214285714,523.1285714285714,3033,522.2223214285714,523.1285714285714,3135,522.2223214285714,523.1285714285714,3245.7,522.2223214285714,523.1285714285714,3348.3,522.2223214285714,523.1285714285714,3451.5,522.2223214285714,523.1285714285714,3563.8,522.2223214285714,523.1285714285714,3670,522.2223214285714,523.1285714285714,3773.3,522.2223214285714,523.1285714285714,3879.7,522.2223214285714,523.1285714285714,3982,522.2223214285714,523.1285714285714,4084.8,522.2223214285714,523.1285714285714,4197.2,522.2223214285714,523.1285714285714,4306.6,522.2223214285714,523.1285714285714,4406.8,522.2223214285714,523.1285714285714,4524,522.2223214285714,523.1285714285714,4635.4,522.2223214285714,523.1285714285714,4751.1,522.2223214285714,523.1285714285714,4862.1,522.2223214285714,523.1285714285714,4965.1]","[1511.8,1511.9,1000,0,511.9,""smooth"",""down"",""down"",""good_move"",4462.6,2950.4,2504.3,1512.3,446.1,""smooth"",""down"",""down"",""good_move"",6323.1,1860.1,1296.1,4463,564,""smooth"",""right"",""right"",""good_move"",8895,2571.2,2115.1,6323.8,456.1,""oops"",""right"",""up"",""bad_move"",14867.8,5970.9,2278.7,11998.9,590.2,""oops"",""down"",""right"",""good_move"",18004,3132.8,2431,14871.5,701.5,""smooth"",""down"",""down"",""good_move"",21091.8,3087.2,2375.9,18004.6,711.3,""oops"",""right"",""left"",""bad_move""]","",""
"2459","","<div style=""width:500px;"">
  <p>What determined the result of this run?</p>
  </div>","34","html-slider-response","60","854395","0.0-5.0-1.10","55","1","2025-07-16 08:22:30","1f75c3e559b7213887762d5229550c2b","37.47.116.83","Mozilla/5.0 (Windows NT 10.0; Win64; x64) AppleWebKit/537.36 (KHTML, like Gecko) Chrome/138.0.0.0 Safari/537.36","WebKit","Chrome","138.0.0.0","Windows","10.0","https://app.prolific.com/","pl-PL,pl;q=0.9","5c39ed7a688b59000102a145","686e379bc37a29ffa5cdc956","68776073c6027c7c6fbacac2","1","1","5c39ed7a688b59000102a145","1","1","2025-07-16T08:37:20.948Z","","","","","","","","","","","AttribQ","","50","","","","","","","","","","","","","","","","","","","","","","","","","","","","",""
"2532","","<div style=""width:500px;"">
  <p>How much control did you have over the ball?</p>
  </div>","34","html-slider-response","61","856929","0.0-5.0-2.10","55","1","2025-07-16 08:22:30","1f75c3e559b7213887762d5229550c2b","37.47.116.83","Mozilla/5.0 (Windows NT 10.0; Win64; x64) AppleWebKit/537.36 (KHTML, like Gecko) Chrome/138.0.0.0 Safari/537.36","WebKit","Chrome","138.0.0.0","Windows","10.0","https://app.prolific.com/","pl-PL,pl;q=0.9","5c39ed7a688b59000102a145","686e379bc37a29ffa5cdc956","68776073c6027c7c6fbacac2","1","1","5c39ed7a688b59000102a145","1","1","2025-07-16T08:37:23.482Z","","","","","","","","","","","ControlQ","","50","","","","","","","","","","","","","","","","","","","","","","","","","","","","",""
"2061","","<div style=""width:500px;"">
  <p>How would you describe your current emotional state?</p>
  </div>","99","html-slider-response","62","858993","0.0-5.0-3.10","55","1","2025-07-16 08:22:30","1f75c3e559b7213887762d5229550c2b","37.47.116.83","Mozilla/5.0 (Windows NT 10.0; Win64; x64) AppleWebKit/537.36 (KHTML, like Gecko) Chrome/138.0.0.0 Safari/537.36","WebKit","Chrome","138.0.0.0","Windows","10.0","https://app.prolific.com/","pl-PL,pl;q=0.9","5c39ed7a688b59000102a145","686e379bc37a29ffa5cdc956","68776073c6027c7c6fbacac2","1","1","5c39ed7a688b59000102a145","1","1","2025-07-16T08:37:25.545Z","","","","","","","","","","","StressQ","","50","","","","","","","","","","","","","","","","","","","","","","","","","","","","",""
"2054","","<div style=""width:500px;"">
  <p>What best describes how you currently feel?</p>
  </div>","100","html-slider-response","63","861050","0.0-5.0-4.10","55","1","2025-07-16 08:22:30","1f75c3e559b7213887762d5229550c2b","37.47.116.83","Mozilla/5.0 (Windows NT 10.0; Win64; x64) AppleWebKit/537.36 (KHTML, like Gecko) Chrome/138.0.0.0 Safari/537.36","WebKit","Chrome","138.0.0.0","Windows","10.0","https://app.prolific.com/","pl-PL,pl;q=0.9","5c39ed7a688b59000102a145","686e379bc37a29ffa5cdc956","68776073c6027c7c6fbacac2","1","1","5c39ed7a688b59000102a145","1","1","2025-07-16T08:37:27.602Z","","","","","","","","","","","MotivationQ","","50","","","","","","","","","","","","","","","","","","","","","","","","","","","","",""
"","","","","ctl-task-cpt","64","899295","0.0-5.0-0.11","55","1","2025-07-16 08:22:30","1f75c3e559b7213887762d5229550c2b","37.47.116.83","Mozilla/5.0 (Windows NT 10.0; Win64; x64) AppleWebKit/537.36 (KHTML, like Gecko) Chrome/138.0.0.0 Safari/537.36","WebKit","Chrome","138.0.0.0","Windows","10.0","https://app.prolific.com/","pl-PL,pl;q=0.9","5c39ed7a688b59000102a145","686e379bc37a29ffa5cdc956","68776073c6027c7c6fbacac2","1","1","5c39ed7a688b59000102a145","1","1","2025-07-16T08:38:05.847Z","","","","","","","","","","","","","","win-only","2","g1:SE,g2:NW","0.6","12","0","863932.7","874.1","5879.4","35225.8","1","4","8","6","1","-1","-1","0","0","0","5005.3","3000","-2250","[""down"",""right""]","{""num_key_presses"":9,""num_perfect"":5,""num_errors"":0,""num_randdir"":4,""num_randdir_good_moves"":0,""num_whilered"":0,""num_whileblue"":0,""num_blue"":0,""num_good_moves"":4}","[293.22232142857143,301.12857142857143,0.8,293.22232142857143,301.12857142857143,103.3,293.22232142857143,301.12857142857143,204.8,448.22232142857143,409.12857142857143,309.1,613.2223214285714,474.12857142857143,409.6,613.2223214285714,474.12857142857143,511,613.2223214285714,474.12857142857143,613.8,613.2223214285714,474.12857142857143,718.2,613.2223214285714,474.12857142857143,830.5,613.2223214285714,474.12857142857143,934.3,613.2223214285714,474.12857142857143,1037.1,613.2223214285714,474.12857142857143,1144.7,613.2223214285714,474.12857142857143,1245.2,613.2223214285714,474.12857142857143,1346.7,613.2223214285714,474.12857142857143,1447.6,613.2223214285714,474.12857142857143,1553.3,613.2223214285714,474.12857142857143,1656.5,613.2223214285714,474.12857142857143,1762.5,613.2223214285714,474.12857142857143,1864.5,613.2223214285714,474.12857142857143,1975,613.2223214285714,474.12857142857143,2077.5,613.2223214285714,474.12857142857143,2186,613.2223214285714,474.12857142857143,2293.8,613.2223214285714,474.12857142857143,2396.9,613.2223214285714,474.12857142857143,2497.5,613.2223214285714,474.12857142857143,2610.2,613.2223214285714,474.12857142857143,2712.7,613.2223214285714,474.12857142857143,2813.7,613.2223214285714,474.12857142857143,2918,613.2223214285714,474.12857142857143,3018.6,613.2223214285714,474.12857142857143,3118.8,613.2223214285714,474.12857142857143,3218.8,613.2223214285714,474.12857142857143,3320,613.2223214285714,474.12857142857143,3422.3,613.2223214285714,474.12857142857143,3525.7,613.2223214285714,474.12857142857143,3626.5,613.2223214285714,474.12857142857143,3730.4,613.2223214285714,474.12857142857143,3834.4,613.2223214285714,474.12857142857143,3934.4,613.2223214285714,474.12857142857143,4036.2,613.2223214285714,474.12857142857143,4138.5,613.2223214285714,474.12857142857143,4241.9,613.2223214285714,474.12857142857143,4346.2,613.2223214285714,474.12857142857143,4447.9,613.2223214285714,474.12857142857143,4549.1,613.2223214285714,474.12857142857143,4653.2,613.2223214285714,474.12857142857143,4756.9,613.2223214285714,474.12857142857143,4860.1,613.2223214285714,474.12857142857143,4962.1]","[1547.1,1547.1,1000,0,547.2,""smooth"",""down"",""down"",""good_move"",4701.6,3153.8,2653.2,1547.8,500.6,""smooth"",""right"",""right"",""good_move"",7757.8,3054.7,2605.3,4703.1,449.4,""oops"",""right"",""left"",""bad_move"",10553,2794.7,2327.5,7758.3,467.2,""smooth"",""right"",""right"",""good_move"",14276.7,3723.2,3206.1,10553.5,517.1,""oops"",""right"",""up"",""bad_move"",17236.2,2958.9,2575.9,14277.3,383,""oops"",""down"",""left"",""bad_move"",20877.6,3639.5,3017.7,17238.2,621.8,""smooth"",""right"",""right"",""good_move"",24136.4,3257,2846.3,20879.4,410.7,""oops"",""down"",""up"",""bad_move"",27290.7,3152.4,2593.9,24138.3,558.6,""smooth"",""up"",""up"",""bad_move""]","",""
"7856","","<div style=""width:500px;"">
  <p>What determined the result of this run?</p>
  </div>","32","html-slider-response","65","907153","0.0-5.0-1.11","55","1","2025-07-16 08:22:30","1f75c3e559b7213887762d5229550c2b","37.47.116.83","Mozilla/5.0 (Windows NT 10.0; Win64; x64) AppleWebKit/537.36 (KHTML, like Gecko) Chrome/138.0.0.0 Safari/537.36","WebKit","Chrome","138.0.0.0","Windows","10.0","https://app.prolific.com/","pl-PL,pl;q=0.9","5c39ed7a688b59000102a145","686e379bc37a29ffa5cdc956","68776073c6027c7c6fbacac2","1","1","5c39ed7a688b59000102a145","1","1","2025-07-16T08:38:13.706Z","","","","","","","","","","","AttribQ","","50","","","","","","","","","","","","","","","","","","","","","","","","","","","","",""
"5006","","<div style=""width:500px;"">
  <p>How much control did you have over the ball?</p>
  </div>","21","html-slider-response","66","912163","0.0-5.0-2.11","55","1","2025-07-16 08:22:30","1f75c3e559b7213887762d5229550c2b","37.47.116.83","Mozilla/5.0 (Windows NT 10.0; Win64; x64) AppleWebKit/537.36 (KHTML, like Gecko) Chrome/138.0.0.0 Safari/537.36","WebKit","Chrome","138.0.0.0","Windows","10.0","https://app.prolific.com/","pl-PL,pl;q=0.9","5c39ed7a688b59000102a145","686e379bc37a29ffa5cdc956","68776073c6027c7c6fbacac2","1","1","5c39ed7a688b59000102a145","1","1","2025-07-16T08:38:18.716Z","","","","","","","","","","","ControlQ","","50","","","","","","","","","","","","","","","","","","","","","","","","","","","","",""
"3008","","<div style=""width:500px;"">
  <p>How would you describe your current emotional state?</p>
  </div>","71","html-slider-response","67","915175","0.0-5.0-3.11","55","1","2025-07-16 08:22:30","1f75c3e559b7213887762d5229550c2b","37.47.116.83","Mozilla/5.0 (Windows NT 10.0; Win64; x64) AppleWebKit/537.36 (KHTML, like Gecko) Chrome/138.0.0.0 Safari/537.36","WebKit","Chrome","138.0.0.0","Windows","10.0","https://app.prolific.com/","pl-PL,pl;q=0.9","5c39ed7a688b59000102a145","686e379bc37a29ffa5cdc956","68776073c6027c7c6fbacac2","1","1","5c39ed7a688b59000102a145","1","1","2025-07-16T08:38:21.727Z","","","","","","","","","","","StressQ","","50","","","","","","","","","","","","","","","","","","","","","","","","","","","","",""
"1817","","<div style=""width:500px;"">
  <p>What best describes how you currently feel?</p>
  </div>","89","html-slider-response","68","916995","0.0-5.0-4.11","55","1","2025-07-16 08:22:30","1f75c3e559b7213887762d5229550c2b","37.47.116.83","Mozilla/5.0 (Windows NT 10.0; Win64; x64) AppleWebKit/537.36 (KHTML, like Gecko) Chrome/138.0.0.0 Safari/537.36","WebKit","Chrome","138.0.0.0","Windows","10.0","https://app.prolific.com/","pl-PL,pl;q=0.9","5c39ed7a688b59000102a145","686e379bc37a29ffa5cdc956","68776073c6027c7c6fbacac2","1","1","5c39ed7a688b59000102a145","1","1","2025-07-16T08:38:23.547Z","","","","","","","","","","","MotivationQ","","50","","","","","","","","","","","","","","","","","","","","","","","","","","","","",""
"","","","","ctl-task-cpt","69","949557","0.0-5.0-0.12","55","1","2025-07-16 08:22:30","1f75c3e559b7213887762d5229550c2b","37.47.116.83","Mozilla/5.0 (Windows NT 10.0; Win64; x64) AppleWebKit/537.36 (KHTML, like Gecko) Chrome/138.0.0.0 Safari/537.36","WebKit","Chrome","138.0.0.0","Windows","10.0","https://app.prolific.com/","pl-PL,pl;q=0.9","5c39ed7a688b59000102a145","686e379bc37a29ffa5cdc956","68776073c6027c7c6fbacac2","1","1","5c39ed7a688b59000102a145","1","1","2025-07-16T08:38:56.109Z","","","","","","","","","","","","","","win-only","3","g1:SW,g2:NE","0.7","13","0","919877.4","1941.6","6946.7","29539.8","1","4","4","6","2","4","3","3","0","0.022727272727272728","2196.7","3000","1410","[""up"",""right""]","{""num_key_presses"":8,""num_perfect"":5,""num_errors"":1,""num_randdir"":2,""num_randdir_good_moves"":1,""num_whilered"":0,""num_whileblue"":1,""num_blue"":1,""num_good_moves"":7}","[295.22232142857143,302.12857142857143,0.3,295.22232142857143,302.12857142857143,102.6,295.22232142857143,302.12857142857143,208.3,295.22232142857143,302.12857142857143,310,295.22232142857143,302.12857142857143,424.4,292.22232142857143,304.12857142857143,526.1,292.22232142857143,304.12857142857143,638.7,286.22232142857143,309.12857142857143,741,283.22232142857143,313.12857142857143,843.9,282.22232142857143,307.12857142857143,944,284.22232142857143,280.12857142857143,1051.7,269.22232142857143,286.12857142857143,1156.4,603.2223214285714,312.12857142857143,1270.6,735.2223214285714,241.12857142857143,1378.6,735.2223214285714,235.12857142857143,1481.1,596.2223214285714,165.12857142857143,1584.1,514.2223214285714,133.12857142857143,1687.2,493.22232142857143,56.128571428571426,1790.3,483.22232142857143,20.128571428571426,1897.7,498.22232142857143,20.128571428571426,1999.7,500.22232142857143,19.128571428571426,2103.6,500.22232142857143,19.128571428571426,2207.7,500.22232142857143,19.128571428571426,2308.2,500.22232142857143,19.128571428571426,2413.1,500.22232142857143,19.128571428571426,2518,613.2223214285714,79.12857142857143,2620.8,613.2223214285714,80.12857142857143,2724.3,613.2223214285714,80.12857142857143,2827.6,613.2223214285714,80.12857142857143,2931,613.2223214285714,80.12857142857143,3034.7,613.2223214285714,80.12857142857143,3140.6,613.2223214285714,80.12857142857143,3249.2,613.2223214285714,80.12857142857143,3349.3,613.2223214285714,80.12857142857143,3458.7,613.2223214285714,80.12857142857143,3562.3,613.2223214285714,80.12857142857143,3670,613.2223214285714,80.12857142857143,3777.2,613.2223214285714,80.12857142857143,3878.3,613.2223214285714,80.12857142857143,3979.2,613.2223214285714,80.12857142857143,4083.8,613.2223214285714,80.12857142857143,4188.7,613.2223214285714,80.12857142857143,4289.7,613.2223214285714,80.12857142857143,4397.9,613.2223214285714,80.12857142857143,4499,613.2223214285714,80.12857142857143,4606.6,613.2223214285714,80.12857142857143,4711.1,613.2223214285714,80.12857142857143,4817,613.2223214285714,80.12857142857143,4919.7]","[1452.3,1452.5,1000,0,452.5,""smooth"",""up"",""up"",""good_move"",4504.9,3051.2,2675,1453.7,376.2,""oops"",""up"",""down"",""bad_move"",7713.8,3207.3,2831.5,4506.5,375.8,""smooth"",""up"",""up"",""good_move"",10571.6,2856.7,2463,7714.9,393.7,""smooth"",""up"",""up"",""good_move"",13485.4,2912.5,2562.6,10572.9,349.9,""oops"",""up"",""up"",""good_move"",17010.6,3524,3194.9,13486.6,329.1,""smooth"",""right"",""right"",""good_move"",20188.9,3176.8,2838.9,17012.1,337.9,""smooth"",""right"",""right"",""good_move"",22421.1,2230.2,1844.2,20190.9,386,""while_blue"",""right"",""right"",""good_move""]","",""
"9185","","<div style=""width:500px;"">
  <p>What determined the result of this run?</p>
  </div>","63","html-slider-response","70","958744","0.0-5.0-1.12","55","1","2025-07-16 08:22:30","1f75c3e559b7213887762d5229550c2b","37.47.116.83","Mozilla/5.0 (Windows NT 10.0; Win64; x64) AppleWebKit/537.36 (KHTML, like Gecko) Chrome/138.0.0.0 Safari/537.36","WebKit","Chrome","138.0.0.0","Windows","10.0","https://app.prolific.com/","pl-PL,pl;q=0.9","5c39ed7a688b59000102a145","686e379bc37a29ffa5cdc956","68776073c6027c7c6fbacac2","1","1","5c39ed7a688b59000102a145","1","1","2025-07-16T08:39:05.297Z","","","","","","","","","","","AttribQ","","50","","","","","","","","","","","","","","","","","","","","","","","","","","","","",""
"4181","","<div style=""width:500px;"">
  <p>How much control did you have over the ball?</p>
  </div>","59","html-slider-response","71","962929","0.0-5.0-2.12","55","1","2025-07-16 08:22:30","1f75c3e559b7213887762d5229550c2b","37.47.116.83","Mozilla/5.0 (Windows NT 10.0; Win64; x64) AppleWebKit/537.36 (KHTML, like Gecko) Chrome/138.0.0.0 Safari/537.36","WebKit","Chrome","138.0.0.0","Windows","10.0","https://app.prolific.com/","pl-PL,pl;q=0.9","5c39ed7a688b59000102a145","686e379bc37a29ffa5cdc956","68776073c6027c7c6fbacac2","1","1","5c39ed7a688b59000102a145","1","1","2025-07-16T08:39:09.482Z","","","","","","","","","","","ControlQ","","50","","","","","","","","","","","","","","","","","","","","","","","","","","","","",""
"2238","","<div style=""width:500px;"">
  <p>How would you describe your current emotional state?</p>
  </div>","99","html-slider-response","72","965171","0.0-5.0-3.12","55","1","2025-07-16 08:22:30","1f75c3e559b7213887762d5229550c2b","37.47.116.83","Mozilla/5.0 (Windows NT 10.0; Win64; x64) AppleWebKit/537.36 (KHTML, like Gecko) Chrome/138.0.0.0 Safari/537.36","WebKit","Chrome","138.0.0.0","Windows","10.0","https://app.prolific.com/","pl-PL,pl;q=0.9","5c39ed7a688b59000102a145","686e379bc37a29ffa5cdc956","68776073c6027c7c6fbacac2","1","1","5c39ed7a688b59000102a145","1","1","2025-07-16T08:39:11.723Z","","","","","","","","","","","StressQ","","50","","","","","","","","","","","","","","","","","","","","","","","","","","","","",""
"1864","","<div style=""width:500px;"">
  <p>What best describes how you currently feel?</p>
  </div>","99","html-slider-response","73","967038","0.0-5.0-4.12","55","1","2025-07-16 08:22:30","1f75c3e559b7213887762d5229550c2b","37.47.116.83","Mozilla/5.0 (Windows NT 10.0; Win64; x64) AppleWebKit/537.36 (KHTML, like Gecko) Chrome/138.0.0.0 Safari/537.36","WebKit","Chrome","138.0.0.0","Windows","10.0","https://app.prolific.com/","pl-PL,pl;q=0.9","5c39ed7a688b59000102a145","686e379bc37a29ffa5cdc956","68776073c6027c7c6fbacac2","1","1","5c39ed7a688b59000102a145","1","1","2025-07-16T08:39:13.590Z","","","","","","","","","","","MotivationQ","","50","","","","","","","","","","","","","","","","","","","","","","","","","","","","",""
"","","","","ctl-task-cpt","74","994324","0.0-5.0-0.13","55","1","2025-07-16 08:22:30","1f75c3e559b7213887762d5229550c2b","37.47.116.83","Mozilla/5.0 (Windows NT 10.0; Win64; x64) AppleWebKit/537.36 (KHTML, like Gecko) Chrome/138.0.0.0 Safari/537.36","WebKit","Chrome","138.0.0.0","Windows","10.0","https://app.prolific.com/","pl-PL,pl;q=0.9","5c39ed7a688b59000102a145","686e379bc37a29ffa5cdc956","68776073c6027c7c6fbacac2","1","1","5c39ed7a688b59000102a145","1","1","2025-07-16T08:39:40.876Z","","","","","","","","","","","","","","win-only","0","g1:NW,g2:SE","0.8","14","0","969920.6","3217.3","8220","24261.6","1","4","8","6","2","8","8","11","3","0.08333333333333333","1379.8","3000","1585","[""down"",""right""]","{""num_key_presses"":6,""num_perfect"":6,""num_errors"":0,""num_randdir"":0,""num_randdir_good_moves"":0,""num_whilered"":0,""num_whileblue"":0,""num_blue"":0,""num_good_moves"":6}","[292.22232142857143,291.12857142857143,0.4,292.22232142857143,291.12857142857143,112.4,292.22232142857143,291.12857142857143,218.6,292.22232142857143,291.12857142857143,329.4,292.22232142857143,291.12857142857143,433.9,292.22232142857143,294.12857142857143,541.7,292.22232142857143,294.12857142857143,644.5,373.22232142857143,448.12857142857143,751.5,514.2223214285714,552.1285714285714,859.2,590.2223214285714,560.1285714285714,965.1,593.2223214285714,562.1285714285714,1070.3,591.2223214285714,562.1285714285714,1182.7,563.2223214285714,552.1285714285714,1294.1,563.2223214285714,552.1285714285714,1405.4,563.2223214285714,552.1285714285714,1521,571.2223214285714,552.1285714285714,1632.5,573.2223214285714,553.1285714285714,1737,573.2223214285714,553.1285714285714,1844.3,573.2223214285714,553.1285714285714,1945.6,573.2223214285714,553.1285714285714,2057.3,573.2223214285714,553.1285714285714,2165.6,573.2223214285714,553.1285714285714,2289.3,573.2223214285714,553.1285714285714,2389.7,573.2223214285714,553.1285714285714,2496.4,573.2223214285714,553.1285714285714,2604.9,573.2223214285714,553.1285714285714,2711.9,573.2223214285714,553.1285714285714,2818.3,573.2223214285714,553.1285714285714,3153.2,573.2223214285714,553.1285714285714,3263.7,573.2223214285714,553.1285714285714,3372.6,573.2223214285714,553.1285714285714,3485.6,573.2223214285714,553.1285714285714,3593.9,573.2223214285714,553.1285714285714,3702,573.2223214285714,553.1285714285714,3812.1,573.2223214285714,553.1285714285714,3921.9,573.2223214285714,553.1285714285714,4030.8,573.2223214285714,553.1285714285714,4139,573.2223214285714,553.1285714285714,4250,573.2223214285714,553.1285714285714,4360.9,573.2223214285714,553.1285714285714,4465.9,573.2223214285714,553.1285714285714,4574.9,573.2223214285714,553.1285714285714,4676.7,573.2223214285714,553.1285714285714,4781.2,573.2223214285714,553.1285714285714,4885.7,573.2223214285714,553.1285714285714,4992.6]","[1447.3,1447.4,1000,0,447.4,""smooth"",""down"",""down"",""good_move"",3930.2,2482.3,2103.2,1447.9,379.1,""smooth"",""down"",""down"",""good_move"",6753.7,2823.2,2404.5,3930.5,418.7,""smooth"",""down"",""down"",""good_move"",9867.7,3113.6,2701.5,6754.1,412.1,""smooth"",""right"",""right"",""good_move"",12741.9,2872.4,2481,9869.6,391.3,""smooth"",""right"",""right"",""good_move"",15843.9,3101.6,2707.8,12742.4,393.7,""smooth"",""right"",""right"",""good_move""]","",""
"6818","","<div style=""width:500px;"">
  <p>What determined the result of this run?</p>
  </div>","84","html-slider-response","75","1001143","0.0-5.0-1.13","55","1","2025-07-16 08:22:30","1f75c3e559b7213887762d5229550c2b","37.47.116.83","Mozilla/5.0 (Windows NT 10.0; Win64; x64) AppleWebKit/537.36 (KHTML, like Gecko) Chrome/138.0.0.0 Safari/537.36","WebKit","Chrome","138.0.0.0","Windows","10.0","https://app.prolific.com/","pl-PL,pl;q=0.9","5c39ed7a688b59000102a145","686e379bc37a29ffa5cdc956","68776073c6027c7c6fbacac2","1","1","5c39ed7a688b59000102a145","1","1","2025-07-16T08:39:47.696Z","","","","","","","","","","","AttribQ","","50","","","","","","","","","","","","","","","","","","","","","","","","","","","","",""
"4605","","<div style=""width:500px;"">
  <p>How much control did you have over the ball?</p>
  </div>","99","html-slider-response","76","1005751","0.0-5.0-2.13","55","1","2025-07-16 08:22:30","1f75c3e559b7213887762d5229550c2b","37.47.116.83","Mozilla/5.0 (Windows NT 10.0; Win64; x64) AppleWebKit/537.36 (KHTML, like Gecko) Chrome/138.0.0.0 Safari/537.36","WebKit","Chrome","138.0.0.0","Windows","10.0","https://app.prolific.com/","pl-PL,pl;q=0.9","5c39ed7a688b59000102a145","686e379bc37a29ffa5cdc956","68776073c6027c7c6fbacac2","1","1","5c39ed7a688b59000102a145","1","1","2025-07-16T08:39:52.304Z","","","","","","","","","","","ControlQ","","50","","","","","","","","","","","","","","","","","","","","","","","","","","","","",""
"2202","","<div style=""width:500px;"">
  <p>How would you describe your current emotional state?</p>
