"rt","response_timestamp","stimulus","response","trial_type","trial_index","time_elapsed","internal_node_id","run_id","condition","recorded_at","source_code_version","ip","user_agent","device","browser","browser_version","platform","platform_version","referer","accept_language","PROLIFIC_PID","STUDY_ID","SESSION_ID","WEEK","BATCH","prolific_id","week","batch","realtime","success","responses","item_order","radio_event_ids","radio_event_times","key_event_times","mouse_event_times","straightlining","zigzagging","honeypot","eventType","view_history","slider_start","which_type","canvas_config","goals_layout","control_level","trial_number","tutorial_trial_number","trial_start_time","phase1_start_time","phase2_start_time","phase3_start_time","goal_1_value","goal_1_distance","goal_2_value","goal_2_distance","goal_selected","outcome","outcome_total","participant_final_score","participant_initial_score","participant_final_score_prop","goal_choice_rt","allocated_time","allocated_time_remaining","goal_direction","counts","mouse_movements","key_presses","question_order","question_id"
"22019","1753260008694","<p style='font-size:40px;line-height:1.25'><strong>Welcome to the experiment!</strong></p><p style='font-size:1.1em;line-height:1.25'>Thank you for participanting in our experiment again! You will be asked to play the Dysfunctional Ball Game again. We will briefly recap the rules before we start.</p><p style='font-size:1.1em;line-height:1.25'>Press <strong>Next</strong> to continue.</p>","0","custom-html-button-response","0","22021","0.0-0.0","196","1","2025-07-23 08:39:45","1f75c3e559b7213887762d5229550c2b","93.39.137.212","Mozilla/5.0 (Windows NT 10.0; Win64; x64) AppleWebKit/537.36 (KHTML, like Gecko) Chrome/138.0.0.0 Safari/537.36","WebKit","Chrome","138.0.0.0","Windows","10.0","https://app.prolific.com/","it-IT,it;q=0.9,en-US;q=0.8,en;q=0.7","5daae19f8a06b60016d1bc32","683db9eb0562dbf637994deb","68809fc3d81a4f1449a23385","2","1","5daae19f8a06b60016d1bc32","2","1","2025-07-23T08:40:08.695Z","","","","","","","","","","","","","","","","","","","","","","","","","","","","","","","","","","","","","","","","","",""
"65719","","","","fullscreen","1","88755","0.0-1.0","196","1","2025-07-23 08:39:45","1f75c3e559b7213887762d5229550c2b","93.39.137.212","Mozilla/5.0 (Windows NT 10.0; Win64; x64) AppleWebKit/537.36 (KHTML, like Gecko) Chrome/138.0.0.0 Safari/537.36","WebKit","Chrome","138.0.0.0","Windows","10.0","https://app.prolific.com/","it-IT,it;q=0.9,en-US;q=0.8,en;q=0.7","5daae19f8a06b60016d1bc32","683db9eb0562dbf637994deb","68809fc3d81a4f1449a23385","2","1","5daae19f8a06b60016d1bc32","2","1","","true","","","","","","","","","","","","","","","","","","","","","","","","","","","","","","","","","","","","","","","","",""
"3877","1753260079307","<p style='font-size:1.1em;line-height:1.25'>In the following, we will ask you a few questions relating to your feelings in the last 24 hours.<br></p><p style='font-size:1.1em;line-height:1.25'>Press the <strong>Next</strong> button to continue.</p>","0","custom-html-button-response","2","92634","0.0-2.0-0.0","196","1","2025-07-23 08:39:45","1f75c3e559b7213887762d5229550c2b","93.39.137.212","Mozilla/5.0 (Windows NT 10.0; Win64; x64) AppleWebKit/537.36 (KHTML, like Gecko) Chrome/138.0.0.0 Safari/537.36","WebKit","Chrome","138.0.0.0","Windows","10.0","https://app.prolific.com/","it-IT,it;q=0.9,en-US;q=0.8,en;q=0.7","5daae19f8a06b60016d1bc32","683db9eb0562dbf637994deb","68809fc3d81a4f1449a23385","2","1","5daae19f8a06b60016d1bc32","2","1","2025-07-23T08:41:19.308Z","","","","","","","","","","","","","","","","","","","","","","","","","","","","","","","","","","","","","","","","","",""
"118311","","","","survey-template","3","210949","0.0-2.0-1.0","196","1","2025-07-23 08:39:45","1f75c3e559b7213887762d5229550c2b","93.39.137.212","Mozilla/5.0 (Windows NT 10.0; Win64; x64) AppleWebKit/537.36 (KHTML, like Gecko) Chrome/138.0.0.0 Safari/537.36","WebKit","Chrome","138.0.0.0","Windows","10.0","https://app.prolific.com/","it-IT,it;q=0.9,en-US;q=0.8,en;q=0.7","5daae19f8a06b60016d1bc32","683db9eb0562dbf637994deb","68809fc3d81a4f1449a23385","2","1","5daae19f8a06b60016d1bc32","2","1","2025-07-23T08:43:17.623Z","","{""Q01"":""1"",""Q02"":""1"",""Q03"":""1"",""Q04"":""1"",""Q05"":""2"",""Q06"":""1"",""Q07"":""2"",""Q08"":""1"",""Q09"":""2"",""Q10"":""0"",""Q11"":""3"",""Q12"":""0"",""Q13"":""5"",""Q14"":""0"",""Q15"":""2"",""Q16"":""0"",""Q17"":""1"",""Q18"":""1"",""Q19"":""2"",""Q20"":""0"",""Q21"":""1"",""Q22"":""1""}","[0,1,2,3,4,5,6,7,8,9,10,11,12,13,14,15,16,17,18,19,20,21]","[""Q01"",""Q02"",""Q03"",""Q04"",""Q05"",""Q06"",""Q07"",""Q08"",""Q09"",""Q10"",""Q11"",""Q12"",""Q13"",""Q14"",""Q15"",""Q15"",""Q16"",""Q17"",""Q18"",""Q18"",""Q19"",""Q20"",""Q20"",""Q21"",""Q22""]","[11649.39999961853,14686.099998474121,16372.39999961853,18300.29999923706,23040.5,25427.79999923706,31428.89999961853,33708.59999847412,37748.59999847412,44686.59999847412,46697.39999961853,51368,53514.69999885559,56049.79999923706,61147.5,67476.5,73343.5,75610.79999923706,91232.59999847412,93961,99662.5,108360.69999885559,110391.59999847412,114688.19999885559,117166.5]","[]","[0.09999847412109375,11649.39999961853,14686.099998474121,16372.39999961853,18300.29999923706,23040.5,25427.79999923706,31428.89999961853,33708.59999847412,37748.59999847412,44686.59999847412,46697.39999961853,51368,53514.69999885559,56049.79999923706,61147.5,67476.5,73343.5,75610.79999923706,91232.59999847412,93961,99662.5,108360.69999885559,110391.59999847412,114688.19999885559,117166.5,118307.29999923706]","0.45454545454545453","0.47619047619047616","0","drsp","","","","","","","","","","","","","","","","","","","","","","","","","","","","","","",""
"26208","","","","survey-template","4","237159","0.0-2.0-2.0","196","1","2025-07-23 08:39:45","1f75c3e559b7213887762d5229550c2b","93.39.137.212","Mozilla/5.0 (Windows NT 10.0; Win64; x64) AppleWebKit/537.36 (KHTML, like Gecko) Chrome/138.0.0.0 Safari/537.36","WebKit","Chrome","138.0.0.0","Windows","10.0","https://app.prolific.com/","it-IT,it;q=0.9,en-US;q=0.8,en;q=0.7","5daae19f8a06b60016d1bc32","683db9eb0562dbf637994deb","68809fc3d81a4f1449a23385","2","1","5daae19f8a06b60016d1bc32","2","1","2025-07-23T08:43:43.833Z","","{""Q01"":""2"",""Q02"":""4"",""Q03"":""2""}","[0,1,2]","[""Q01"",""Q02"",""Q02"",""Q03""]","[15108.5,18625.40000152588,20804.70000076294,24962.40000152588]","[]","[15108.5,18625.40000152588,20804.70000076294,24962.40000152588,26207.30000114441]","0.6666666666666666","1","0","stress","","","","","","","","","","","","","","","","","","","","","","","","","","","","","","",""
"29469","","","","instructions","5","266628","0.0-3.0-0.0","196","1","2025-07-23 08:39:45","1f75c3e559b7213887762d5229550c2b","93.39.137.212","Mozilla/5.0 (Windows NT 10.0; Win64; x64) AppleWebKit/537.36 (KHTML, like Gecko) Chrome/138.0.0.0 Safari/537.36","WebKit","Chrome","138.0.0.0","Windows","10.0","https://app.prolific.com/","it-IT,it;q=0.9,en-US;q=0.8,en;q=0.7","5daae19f8a06b60016d1bc32","683db9eb0562dbf637994deb","68809fc3d81a4f1449a23385","2","1","5daae19f8a06b60016d1bc32","2","1","","","","","","","","","","","","","[{""page_index"":0,""viewing_time"":29468}]","","","","","","","","","","","","","","","","","","","","","","","","","","","","","",""
"9853","","<p>Before you start with this game please answer the following three questions yourself. </p>
  <p>Through this game, we measure several aspects of your cognitive performance, such as reaction times, multi-tasking capabilities </p>
  <p>and the ability to assess the situation you are in.</p>
  <p></p>
  <p><b>How good do you usually are in such tasks?</b></p>","55","html-slider-response","6","276483","0.0-4.0-0.0","196","1","2025-07-23 08:39:45","1f75c3e559b7213887762d5229550c2b","93.39.137.212","Mozilla/5.0 (Windows NT 10.0; Win64; x64) AppleWebKit/537.36 (KHTML, like Gecko) Chrome/138.0.0.0 Safari/537.36","WebKit","Chrome","138.0.0.0","Windows","10.0","https://app.prolific.com/","it-IT,it;q=0.9,en-US;q=0.8,en;q=0.7","5daae19f8a06b60016d1bc32","683db9eb0562dbf637994deb","68809fc3d81a4f1449a23385","2","1","5daae19f8a06b60016d1bc32","2","1","2025-07-23T08:44:23.157Z","","","","","","","","","","","PreSkillQ","","50","","","","","","","","","","","","","","","","","","","","","","","","","","","","",""
"3731","","<div style=""width:500px;"">
  <p>How well do you think you will perform in this task compared to other participants?</p>
  </div>","50","html-slider-response","7","280215","0.0-4.0-1.0","196","1","2025-07-23 08:39:45","1f75c3e559b7213887762d5229550c2b","93.39.137.212","Mozilla/5.0 (Windows NT 10.0; Win64; x64) AppleWebKit/537.36 (KHTML, like Gecko) Chrome/138.0.0.0 Safari/537.36","WebKit","Chrome","138.0.0.0","Windows","10.0","https://app.prolific.com/","it-IT,it;q=0.9,en-US;q=0.8,en;q=0.7","5daae19f8a06b60016d1bc32","683db9eb0562dbf637994deb","68809fc3d81a4f1449a23385","2","1","5daae19f8a06b60016d1bc32","2","1","2025-07-23T08:44:26.889Z","","","","","","","","","","","PrePerfQ","","50","","","","","","","","","","","","","","","","","","","","","","","","","","","","",""
"5090","","<div style=""width:500px;"">
  <p>What best describes how you currently feel?</p>
  </div>","72","html-slider-response","8","285306","0.0-4.0-2.0","196","1","2025-07-23 08:39:45","1f75c3e559b7213887762d5229550c2b","93.39.137.212","Mozilla/5.0 (Windows NT 10.0; Win64; x64) AppleWebKit/537.36 (KHTML, like Gecko) Chrome/138.0.0.0 Safari/537.36","WebKit","Chrome","138.0.0.0","Windows","10.0","https://app.prolific.com/","it-IT,it;q=0.9,en-US;q=0.8,en;q=0.7","5daae19f8a06b60016d1bc32","683db9eb0562dbf637994deb","68809fc3d81a4f1449a23385","2","1","5daae19f8a06b60016d1bc32","2","1","2025-07-23T08:44:31.980Z","","","","","","","","","","","PreMotivationQ","","50","","","","","","","","","","","","","","","","","","","","","","","","","","","","",""
"","","","","ctl-task-cpt","9","314885","0.0-5.0-0.0","196","1","2025-07-23 08:39:45","1f75c3e559b7213887762d5229550c2b","93.39.137.212","Mozilla/5.0 (Windows NT 10.0; Win64; x64) AppleWebKit/537.36 (KHTML, like Gecko) Chrome/138.0.0.0 Safari/537.36","WebKit","Chrome","138.0.0.0","Windows","10.0","https://app.prolific.com/","it-IT,it;q=0.9,en-US;q=0.8,en;q=0.7","5daae19f8a06b60016d1bc32","683db9eb0562dbf637994deb","68809fc3d81a4f1449a23385","2","1","5daae19f8a06b60016d1bc32","2","1","2025-07-23T08:45:01.560Z","","","","","","","","","","","","","","win-only","2","g1:SE,g2:NW","1","1","0","286815.3","1766.1","6769.4","26559.5","1","4","4","6","2","4","4","4","0","0.030303030303030304","1959","3000","1240","[""left"",""up""]","{""num_key_presses"":6,""num_perfect"":6,""num_errors"":0,""num_randdir"":0,""num_randdir_good_moves"":0,""num_whilered"":0,""num_whileblue"":0,""num_blue"":1,""num_good_moves"":6}","[417.57142857142856,414.47767857142856,0.2,417.57142857142856,414.47767857142856,103,417.57142857142856,414.47767857142856,205.7,417.57142857142856,414.47767857142856,306.7,417.57142857142856,414.47767857142856,406.9,417.57142857142856,414.47767857142856,514.3,417.57142857142856,414.47767857142856,614.5,417.57142857142856,414.47767857142856,714.7,417.57142857142856,414.47767857142856,814.7,417.57142857142856,414.47767857142856,922.6,417.57142857142856,414.47767857142856,1023.9,482.57142857142856,458.47767857142856,1125.9,486.57142857142856,443.47767857142856,1230.3,269.57142857142856,335.47767857142856,1332.5,267.57142857142856,335.47767857142856,1437.8,258.57142857142856,322.47767857142856,1537.9,90.57142857142857,102.47767857142857,1638.8,69.57142857142857,66.47767857142857,1740.8,69.57142857142857,59.47767857142857,1843.1,69.57142857142857,59.47767857142857,1945.3,69.57142857142857,59.47767857142857,2048.9,69.57142857142857,59.47767857142857,2157.3,69.57142857142857,59.47767857142857,2259.4,-10.42857142857143,114.47767857142857,2369.6,-158.42857142857144,240.47767857142856,2475,-158.42857142857144,240.47767857142856,2575.5,-158.42857142857144,240.47767857142856,2683.7,-158.42857142857144,240.47767857142856,2784.2,-158.42857142857144,240.47767857142856,2893,-158.42857142857144,240.47767857142856,2998.8,-158.42857142857144,240.47767857142856,3106.7,-158.42857142857144,240.47767857142856,3214.3,-158.42857142857144,240.47767857142856,3322.9,-158.42857142857144,240.47767857142856,3423.7,-158.42857142857144,240.47767857142856,3524.6,-158.42857142857144,240.47767857142856,3624.6,-158.42857142857144,240.47767857142856,3730.5,-158.42857142857144,240.47767857142856,3836,-158.42857142857144,240.47767857142856,3941.6,-158.42857142857144,240.47767857142856,4044.3,-158.42857142857144,240.47767857142856,4149.5,-158.42857142857144,240.47767857142856,4250,-158.42857142857144,240.47767857142856,4350.2,-158.42857142857144,240.47767857142856,4456.1,-158.42857142857144,240.47767857142856,4559.4,-158.42857142857144,240.47767857142856,4659.8,-158.42857142857144,240.47767857142856,4760.6,-158.42857142857144,240.47767857142856,4866.4,-158.42857142857144,240.47767857142856,4972.3]","[1475.8,1475.8,1000,0,475.8,""smooth"",""up"",""up"",""good_move"",8263.3,6787,2741.4,5154.1,367.8,""smooth"",""left"",""left"",""good_move"",11337.2,3073.6,2509.6,8263.8,563.9,""smooth"",""left"",""left"",""good_move"",14013.7,2676.2,2296.2,11337.5,380,""smooth"",""up"",""up"",""good_move"",16740.9,2726.9,2369.7,14014,357.2,""smooth"",""left"",""left"",""good_move"",19666.3,2925.1,2603.2,16741.2,321.9,""smooth"",""up"",""up"",""good_move""]","",""
"4771","","<div style=""width:500px;"">
  <p>What determined the result of this run?</p>
  </div>","100","html-slider-response","10","319658","0.0-5.0-1.0","196","1","2025-07-23 08:39:45","1f75c3e559b7213887762d5229550c2b","93.39.137.212","Mozilla/5.0 (Windows NT 10.0; Win64; x64) AppleWebKit/537.36 (KHTML, like Gecko) Chrome/138.0.0.0 Safari/537.36","WebKit","Chrome","138.0.0.0","Windows","10.0","https://app.prolific.com/","it-IT,it;q=0.9,en-US;q=0.8,en;q=0.7","5daae19f8a06b60016d1bc32","683db9eb0562dbf637994deb","68809fc3d81a4f1449a23385","2","1","5daae19f8a06b60016d1bc32","2","1","2025-07-23T08:45:06.332Z","","","","","","","","","","","AttribQ","","50","","","","","","","","","","","","","","","","","","","","","","","","","","","","",""
"6696","","<div style=""width:500px;"">
  <p>How much control did you have over the ball?</p>
  </div>","100","html-slider-response","11","326355","0.0-5.0-2.0","196","1","2025-07-23 08:39:45","1f75c3e559b7213887762d5229550c2b","93.39.137.212","Mozilla/5.0 (Windows NT 10.0; Win64; x64) AppleWebKit/537.36 (KHTML, like Gecko) Chrome/138.0.0.0 Safari/537.36","WebKit","Chrome","138.0.0.0","Windows","10.0","https://app.prolific.com/","it-IT,it;q=0.9,en-US;q=0.8,en;q=0.7","5daae19f8a06b60016d1bc32","683db9eb0562dbf637994deb","68809fc3d81a4f1449a23385","2","1","5daae19f8a06b60016d1bc32","2","1","2025-07-23T08:45:13.029Z","","","","","","","","","","","ControlQ","","50","","","","","","","","","","","","","","","","","","","","","","","","","","","","",""
"5968","","<div style=""width:500px;"">
  <p>How would you describe your current emotional state?</p>
  </div>","50","html-slider-response","12","332324","0.0-5.0-3.0","196","1","2025-07-23 08:39:45","1f75c3e559b7213887762d5229550c2b","93.39.137.212","Mozilla/5.0 (Windows NT 10.0; Win64; x64) AppleWebKit/537.36 (KHTML, like Gecko) Chrome/138.0.0.0 Safari/537.36","WebKit","Chrome","138.0.0.0","Windows","10.0","https://app.prolific.com/","it-IT,it;q=0.9,en-US;q=0.8,en;q=0.7","5daae19f8a06b60016d1bc32","683db9eb0562dbf637994deb","68809fc3d81a4f1449a23385","2","1","5daae19f8a06b60016d1bc32","2","1","2025-07-23T08:45:18.998Z","","","","","","","","","","","StressQ","","50","","","","","","","","","","","","","","","","","","","","","","","","","","","","",""
"4950","","<div style=""width:500px;"">
  <p>What best describes how you currently feel?</p>
  </div>","91","html-slider-response","13","337275","0.0-5.0-4.0","196","1","2025-07-23 08:39:45","1f75c3e559b7213887762d5229550c2b","93.39.137.212","Mozilla/5.0 (Windows NT 10.0; Win64; x64) AppleWebKit/537.36 (KHTML, like Gecko) Chrome/138.0.0.0 Safari/537.36","WebKit","Chrome","138.0.0.0","Windows","10.0","https://app.prolific.com/","it-IT,it;q=0.9,en-US;q=0.8,en;q=0.7","5daae19f8a06b60016d1bc32","683db9eb0562dbf637994deb","68809fc3d81a4f1449a23385","2","1","5daae19f8a06b60016d1bc32","2","1","2025-07-23T08:45:23.949Z","","","","","","","","","","","MotivationQ","","50","","","","","","","","","","","","","","","","","","","","","","","","","","","","",""
"","","","","ctl-task-cpt","14","370600","0.0-5.0-0.1","196","1","2025-07-23 08:39:45","1f75c3e559b7213887762d5229550c2b","93.39.137.212","Mozilla/5.0 (Windows NT 10.0; Win64; x64) AppleWebKit/537.36 (KHTML, like Gecko) Chrome/138.0.0.0 Safari/537.36","WebKit","Chrome","138.0.0.0","Windows","10.0","https://app.prolific.com/","it-IT,it;q=0.9,en-US;q=0.8,en;q=0.7","5daae19f8a06b60016d1bc32","683db9eb0562dbf637994deb","68809fc3d81a4f1449a23385","2","1","5daae19f8a06b60016d1bc32","2","1","2025-07-23T08:45:57.274Z","","","","","","","","","","","","","","win-only","1","g1:NE,g2:SW","0.9","2","0","338782.7","1390","6391","30311.2","1","4","8","6","2","8","8","12","4","0.09090909090909091","1245","3000","1550","[""down"",""left""]","{""num_key_presses"":6,""num_perfect"":6,""num_errors"":0,""num_randdir"":0,""num_randdir_good_moves"":0,""num_whilered"":0,""num_whileblue"":0,""num_blue"":3,""num_good_moves"":6}","[415.57142857142856,416.47767857142856,0.2,415.57142857142856,416.47767857142856,106.2,415.57142857142856,416.47767857142856,208.7,415.57142857142856,416.47767857142856,312.7,415.57142857142856,416.47767857142856,412.8,415.57142857142856,416.47767857142856,519.5,415.57142857142856,416.47767857142856,624,415.57142857142856,416.47767857142856,734.3,112.57142857142857,737.4776785714286,841.7,61.57142857142857,806.4776785714286,947.8,45.57142857142857,812.4776785714286,1055.1,45.57142857142857,812.4776785714286,1158.1,45.57142857142857,812.4776785714286,1258.4,45.57142857142857,812.4776785714286,1361.6,45.57142857142857,812.4776785714286,1473.3,45.57142857142857,812.4776785714286,1579.4,-23.42857142857143,755.4776785714286,1681.5,-145.42857142857144,635.4776785714286,1787.5,-154.42857142857144,618.4776785714286,1891.5,-154.42857142857144,618.4776785714286,1991.7,-154.42857142857144,618.4776785714286,2101.6,-154.42857142857144,618.4776785714286,2208.5,-154.42857142857144,618.4776785714286,2308.5,-154.42857142857144,618.4776785714286,2415.7,-154.42857142857144,618.4776785714286,2524.7,-154.42857142857144,618.4776785714286,2625.4,-154.42857142857144,618.4776785714286,2725.5,-154.42857142857144,618.4776785714286,2826.6,-154.42857142857144,618.4776785714286,2929,-154.42857142857144,618.4776785714286,3038.5,-154.42857142857144,618.4776785714286,3141.9,-154.42857142857144,618.4776785714286,3242.3,-154.42857142857144,618.4776785714286,3345.3,-154.42857142857144,618.4776785714286,3447.3,-154.42857142857144,618.4776785714286,3555.2,-154.42857142857144,618.4776785714286,3658.5,-154.42857142857144,618.4776785714286,3759.1,-154.42857142857144,618.4776785714286,3859.2,-154.42857142857144,618.4776785714286,3960.8,-154.42857142857144,618.4776785714286,4068.2,-154.42857142857144,618.4776785714286,4175.4,-154.42857142857144,618.4776785714286,4284.7,-154.42857142857144,618.4776785714286,4392.2,-154.42857142857144,618.4776785714286,4492.5,-154.42857142857144,618.4776785714286,4599.5,-154.42857142857144,618.4776785714286,4707.7,-154.42857142857144,618.4776785714286,4807.7,-154.42857142857144,618.4776785714286,4908]","[4302.5,4302.5,2023.8,2009.4,269.3,""smooth"",""down"",""down"",""good_move"",7027,2724.1,2417.2,4303,306.8,""smooth"",""left"",""left"",""good_move"",10120.1,3092.5,2730.3,7027.6,362.3,""smooth"",""down"",""down"",""good_move"",15978.4,5857.8,2524.3,13097.7,356.4,""smooth"",""left"",""left"",""good_move"",21293.2,5314.5,1679.9,19284.1,329.2,""smooth"",""down"",""down"",""good_move"",23803.4,2510.1,2105.6,21293.3,404.5,""smooth"",""left"",""left"",""good_move""]","",""
"2983","","<div style=""width:500px;"">
  <p>What determined the result of this run?</p>
  </div>","100","html-slider-response","15","373584","0.0-5.0-1.1","196","1","2025-07-23 08:39:45","1f75c3e559b7213887762d5229550c2b","93.39.137.212","Mozilla/5.0 (Windows NT 10.0; Win64; x64) AppleWebKit/537.36 (KHTML, like Gecko) Chrome/138.0.0.0 Safari/537.36","WebKit","Chrome","138.0.0.0","Windows","10.0","https://app.prolific.com/","it-IT,it;q=0.9,en-US;q=0.8,en;q=0.7","5daae19f8a06b60016d1bc32","683db9eb0562dbf637994deb","68809fc3d81a4f1449a23385","2","1","5daae19f8a06b60016d1bc32","2","1","2025-07-23T08:46:00.258Z","","","","","","","","","","","AttribQ","","50","","","","","","","","","","","","","","","","","","","","","","","","","","","","",""
"4019","","<div style=""width:500px;"">
  <p>How much control did you have over the ball?</p>
  </div>","100","html-slider-response","16","377604","0.0-5.0-2.1","196","1","2025-07-23 08:39:45","1f75c3e559b7213887762d5229550c2b","93.39.137.212","Mozilla/5.0 (Windows NT 10.0; Win64; x64) AppleWebKit/537.36 (KHTML, like Gecko) Chrome/138.0.0.0 Safari/537.36","WebKit","Chrome","138.0.0.0","Windows","10.0","https://app.prolific.com/","it-IT,it;q=0.9,en-US;q=0.8,en;q=0.7","5daae19f8a06b60016d1bc32","683db9eb0562dbf637994deb","68809fc3d81a4f1449a23385","2","1","5daae19f8a06b60016d1bc32","2","1","2025-07-23T08:46:04.278Z","","","","","","","","","","","ControlQ","","50","","","","","","","","","","","","","","","","","","","","","","","","","","","","",""
"5122","","<div style=""width:500px;"">
  <p>How would you describe your current emotional state?</p>
  </div>","50","html-slider-response","17","382727","0.0-5.0-3.1","196","1","2025-07-23 08:39:45","1f75c3e559b7213887762d5229550c2b","93.39.137.212","Mozilla/5.0 (Windows NT 10.0; Win64; x64) AppleWebKit/537.36 (KHTML, like Gecko) Chrome/138.0.0.0 Safari/537.36","WebKit","Chrome","138.0.0.0","Windows","10.0","https://app.prolific.com/","it-IT,it;q=0.9,en-US;q=0.8,en;q=0.7","5daae19f8a06b60016d1bc32","683db9eb0562dbf637994deb","68809fc3d81a4f1449a23385","2","1","5daae19f8a06b60016d1bc32","2","1","2025-07-23T08:46:09.401Z","","","","","","","","","","","StressQ","","50","","","","","","","","","","","","","","","","","","","","","","","","","","","","",""
"3574","","<div style=""width:500px;"">
  <p>What best describes how you currently feel?</p>
  </div>","100","html-slider-response","18","386302","0.0-5.0-4.1","196","1","2025-07-23 08:39:45","1f75c3e559b7213887762d5229550c2b","93.39.137.212","Mozilla/5.0 (Windows NT 10.0; Win64; x64) AppleWebKit/537.36 (KHTML, like Gecko) Chrome/138.0.0.0 Safari/537.36","WebKit","Chrome","138.0.0.0","Windows","10.0","https://app.prolific.com/","it-IT,it;q=0.9,en-US;q=0.8,en;q=0.7","5daae19f8a06b60016d1bc32","683db9eb0562dbf637994deb","68809fc3d81a4f1449a23385","2","1","5daae19f8a06b60016d1bc32","2","1","2025-07-23T08:46:12.977Z","","","","","","","","","","","MotivationQ","","50","","","","","","","","","","","","","","","","","","","","","","","","","","","","",""
"","","","","ctl-task-cpt","19","416711","0.0-5.0-0.2","196","1","2025-07-23 08:39:45","1f75c3e559b7213887762d5229550c2b","93.39.137.212","Mozilla/5.0 (Windows NT 10.0; Win64; x64) AppleWebKit/537.36 (KHTML, like Gecko) Chrome/138.0.0.0 Safari/537.36","WebKit","Chrome","138.0.0.0","Windows","10.0","https://app.prolific.com/","it-IT,it;q=0.9,en-US;q=0.8,en;q=0.7","5daae19f8a06b60016d1bc32","683db9eb0562dbf637994deb","68809fc3d81a4f1449a23385","2","1","5daae19f8a06b60016d1bc32","2","1","2025-07-23T08:46:43.385Z","","","","","","","","","","","","","","win-only","2","g1:SE,g2:NW","0.8","3","0","387811.3","2114.5","7121.1","27403.5","1","4","4","6","2","4","4","16","12","0.12121212121212122","1417.2","3000","1090","[""left"",""up""]","{""num_key_presses"":8,""num_perfect"":6,""num_errors"":0,""num_randdir"":2,""num_randdir_good_moves"":1,""num_whilered"":0,""num_whileblue"":0,""num_blue"":0,""num_good_moves"":7}","[416.57142857142856,422.47767857142856,0.3,416.57142857142856,422.47767857142856,103.4,416.57142857142856,422.47767857142856,211.4,416.57142857142856,422.47767857142856,311.7,416.57142857142856,422.47767857142856,418.9,416.57142857142856,422.47767857142856,526.5,416.57142857142856,422.47767857142856,627.6,416.57142857142856,422.47767857142856,727.7,396.57142857142856,400.47767857142856,830.8,214.57142857142856,217.47767857142856,932.5,163.57142857142856,147.47767857142856,1038.3,134.57142857142856,106.47767857142857,1145.4,96.57142857142857,90.47767857142857,1245.9,96.57142857142857,88.47767857142857,1350.4,96.57142857142857,88.47767857142857,1464.8,96.57142857142857,88.47767857142857,1570.2,96.57142857142857,88.47767857142857,1676.2,96.57142857142857,88.47767857142857,1776.3,-126.42857142857143,169.47767857142856,1879.3,-154.42857142857144,182.47767857142856,1981.2,-154.42857142857144,182.47767857142856,2088.8,-154.42857142857144,182.47767857142856,2195.4,-154.42857142857144,182.47767857142856,2295.7,-154.42857142857144,182.47767857142856,2395.8,-154.42857142857144,182.47767857142856,2496,-154.42857142857144,182.47767857142856,2598.3,-154.42857142857144,182.47767857142856,2701.6,-154.42857142857144,182.47767857142856,2803,-154.42857142857144,182.47767857142856,2911.2,-154.42857142857144,182.47767857142856,3011.8,-154.42857142857144,182.47767857142856,3119.6,-154.42857142857144,182.47767857142856,3226.5,-154.42857142857144,182.47767857142856,3327.6,-154.42857142857144,182.47767857142856,3429.8,-154.42857142857144,182.47767857142856,3532.9,-154.42857142857144,182.47767857142856,3640.3,-154.42857142857144,182.47767857142856,3743.9,-154.42857142857144,182.47767857142856,3846.5,-154.42857142857144,182.47767857142856,3950.9,-154.42857142857144,182.47767857142856,4053.2,-154.42857142857144,182.47767857142856,4161.3,-154.42857142857144,182.47767857142856,4262.3,-154.42857142857144,182.47767857142856,4362.5,-154.42857142857144,182.47767857142856,4463.7,-154.42857142857144,182.47767857142856,4563.9,-154.42857142857144,182.47767857142856,4664,-154.42857142857144,182.47767857142856,4764.5,-154.42857142857144,182.47767857142856,4873.3,-154.42857142857144,182.47767857142856,4980.3]","[1369.5,1369.5,1000,0,369.5,""smooth"",""left"",""left"",""good_move"",4453.3,3083.3,2751.5,1370,331.8,""smooth"",""up"",""up"",""good_move"",7430.3,2976.5,2645.4,4453.8,331.1,""smooth"",""up"",""up"",""good_move"",10147.3,2716.6,2409.3,7430.7,307.3,""oops"",""left"",""left"",""good_move"",12318.8,2171.2,1815.6,10147.7,355.5,""oops"",""up"",""right"",""bad_move"",15078.9,2759.6,2446.4,12319.3,313.2,""smooth"",""left"",""left"",""good_move"",17822.8,2743.7,2449.5,15079.1,294.3,""smooth"",""left"",""left"",""good_move"",20172.4,2349.1,2058.9,17823.3,290.2,""smooth"",""up"",""up"",""good_move""]","",""
"3844","","<div style=""width:500px;"">
  <p>What determined the result of this run?</p>
  </div>","95","html-slider-response","20","420556","0.0-5.0-1.2","196","1","2025-07-23 08:39:45","1f75c3e559b7213887762d5229550c2b","93.39.137.212","Mozilla/5.0 (Windows NT 10.0; Win64; x64) AppleWebKit/537.36 (KHTML, like Gecko) Chrome/138.0.0.0 Safari/537.36","WebKit","Chrome","138.0.0.0","Windows","10.0","https://app.prolific.com/","it-IT,it;q=0.9,en-US;q=0.8,en;q=0.7","5daae19f8a06b60016d1bc32","683db9eb0562dbf637994deb","68809fc3d81a4f1449a23385","2","1","5daae19f8a06b60016d1bc32","2","1","2025-07-23T08:46:47.230Z","","","","","","","","","","","AttribQ","","50","","","","","","","","","","","","","","","","","","","","","","","","","","","","",""
"3438","","<div style=""width:500px;"">
  <p>How much control did you have over the ball?</p>
  </div>","93","html-slider-response","21","423996","0.0-5.0-2.2","196","1","2025-07-23 08:39:45","1f75c3e559b7213887762d5229550c2b","93.39.137.212","Mozilla/5.0 (Windows NT 10.0; Win64; x64) AppleWebKit/537.36 (KHTML, like Gecko) Chrome/138.0.0.0 Safari/537.36","WebKit","Chrome","138.0.0.0","Windows","10.0","https://app.prolific.com/","it-IT,it;q=0.9,en-US;q=0.8,en;q=0.7","5daae19f8a06b60016d1bc32","683db9eb0562dbf637994deb","68809fc3d81a4f1449a23385","2","1","5daae19f8a06b60016d1bc32","2","1","2025-07-23T08:46:50.670Z","","","","","","","","","","","ControlQ","","50","","","","","","","","","","","","","","","","","","","","","","","","","","","","",""
"6762","","<div style=""width:500px;"">
  <p>How would you describe your current emotional state?</p>
  </div>","50","html-slider-response","22","430759","0.0-5.0-3.2","196","1","2025-07-23 08:39:45","1f75c3e559b7213887762d5229550c2b","93.39.137.212","Mozilla/5.0 (Windows NT 10.0; Win64; x64) AppleWebKit/537.36 (KHTML, like Gecko) Chrome/138.0.0.0 Safari/537.36","WebKit","Chrome","138.0.0.0","Windows","10.0","https://app.prolific.com/","it-IT,it;q=0.9,en-US;q=0.8,en;q=0.7","5daae19f8a06b60016d1bc32","683db9eb0562dbf637994deb","68809fc3d81a4f1449a23385","2","1","5daae19f8a06b60016d1bc32","2","1","2025-07-23T08:46:57.433Z","","","","","","","","","","","StressQ","","50","","","","","","","","","","","","","","","","","","","","","","","","","","","","",""
"2352","","<div style=""width:500px;"">
  <p>What best describes how you currently feel?</p>
  </div>","100","html-slider-response","23","433113","0.0-5.0-4.2","196","1","2025-07-23 08:39:45","1f75c3e559b7213887762d5229550c2b","93.39.137.212","Mozilla/5.0 (Windows NT 10.0; Win64; x64) AppleWebKit/537.36 (KHTML, like Gecko) Chrome/138.0.0.0 Safari/537.36","WebKit","Chrome","138.0.0.0","Windows","10.0","https://app.prolific.com/","it-IT,it;q=0.9,en-US;q=0.8,en;q=0.7","5daae19f8a06b60016d1bc32","683db9eb0562dbf637994deb","68809fc3d81a4f1449a23385","2","1","5daae19f8a06b60016d1bc32","2","1","2025-07-23T08:46:59.787Z","","","","","","","","","","","MotivationQ","","50","","","","","","","","","","","","","","","","","","","","","","","","","","","","",""
"","","","","ctl-task-cpt","24","486576","0.0-5.0-0.3","196","1","2025-07-23 08:39:45","1f75c3e559b7213887762d5229550c2b","93.39.137.212","Mozilla/5.0 (Windows NT 10.0; Win64; x64) AppleWebKit/537.36 (KHTML, like Gecko) Chrome/138.0.0.0 Safari/537.36","WebKit","Chrome","138.0.0.0","Windows","10.0","https://app.prolific.com/","it-IT,it;q=0.9,en-US;q=0.8,en;q=0.7","5daae19f8a06b60016d1bc32","683db9eb0562dbf637994deb","68809fc3d81a4f1449a23385","2","1","5daae19f8a06b60016d1bc32","2","1","2025-07-23T08:47:53.251Z","","","","","","","","","","","","","","win-only","1","g1:NE,g2:SW","0.7","4","0","434622.4","1329.9","6332.7","50451","1","4","8","6","2","8","8","24","16","0.18181818181818182","1053.6","3000","150","[""down"",""left""]","{""num_key_presses"":12,""num_perfect"":9,""num_errors"":0,""num_randdir"":3,""num_randdir_good_moves"":0,""num_whilered"":0,""num_whileblue"":0,""num_blue"":3,""num_good_moves"":9}","[415.57142857142856,416.47767857142856,0.2,415.57142857142856,416.47767857142856,104.6,415.57142857142856,416.47767857142856,204.9,415.57142857142856,416.47767857142856,305.4,415.57142857142856,416.47767857142856,406.6,415.57142857142856,416.47767857142856,507,415.57142857142856,416.47767857142856,607.4,415.57142857142856,416.47767857142856,707.7,94.57142857142857,701.4776785714286,810.5,40.57142857142857,765.4776785714286,911.4,37.57142857142857,769.4776785714286,1018.5,37.57142857142857,769.4776785714286,1124.1,37.57142857142857,769.4776785714286,1226.3,-35.42857142857143,740.4776785714286,1334.5,-59.42857142857143,726.4776785714286,1440.8,-59.42857142857143,726.4776785714286,1540.8,-59.42857142857143,726.4776785714286,1646.8,-59.42857142857143,726.4776785714286,1748.9,-59.42857142857143,726.4776785714286,1856.7,-59.42857142857143,726.4776785714286,1963.8,-59.42857142857143,726.4776785714286,2065.4,-59.42857142857143,726.4776785714286,2174.2,-59.42857142857143,726.4776785714286,2274.2,-59.42857142857143,726.4776785714286,2374.7,-59.42857142857143,726.4776785714286,2475.3,-59.42857142857143,726.4776785714286,2578.4,-59.42857142857143,726.4776785714286,2682.2,-59.42857142857143,726.4776785714286,2783,-59.42857142857143,726.4776785714286,2891.3,-59.42857142857143,726.4776785714286,2997.3,-59.42857142857143,726.4776785714286,3105,-59.42857142857143,726.4776785714286,3207.8,-59.42857142857143,726.4776785714286,3314.9,-59.42857142857143,726.4776785714286,3415.6,-59.42857142857143,726.4776785714286,3516.1,-59.42857142857143,726.4776785714286,3624.8,-59.42857142857143,726.4776785714286,3725.5,-59.42857142857143,726.4776785714286,3828,-59.42857142857143,726.4776785714286,3937.9,-59.42857142857143,726.4776785714286,4042.9,-59.42857142857143,726.4776785714286,4145.6,-59.42857142857143,726.4776785714286,4248.5,-59.42857142857143,726.4776785714286,4355.3,-59.42857142857143,726.4776785714286,4456.3,-59.42857142857143,726.4776785714286,4558.8,-59.42857142857143,726.4776785714286,4659.3,-59.42857142857143,726.4776785714286,4759.9,-59.42857142857143,726.4776785714286,4860,-59.42857142857143,726.4776785714286,4960.8]","[1331.8,1331.9,1000,0,331.9,""smooth"",""down"",""down"",""good_move"",4293.3,2961.1,2641.1,1332.2,320,""smooth"",""left"",""left"",""good_move"",6961,2667.4,2335.2,4293.6,332.2,""smooth"",""left"",""left"",""good_move"",10096,3134.6,2811.2,6961.4,323.4,""oops"",""down"",""right"",""bad_move"",13140.9,3044.5,2707.1,10096.4,337.4,""smooth"",""down"",""down"",""good_move"",16146.2,3005.1,2689.1,13141.1,316,""smooth"",""left"",""left"",""good_move"",22184.2,6037.5,2028.6,19847.6,308,""smooth"",""down"",""down"",""good_move"",24832.4,2647.9,2346.1,22184.5,301.8,""oops"",""left"",""right"",""bad_move"",35986.2,11153.5,3326.9,32309.3,350,""oops"",""left"",""right"",""bad_move"",38885.9,2899.2,2498.1,35986.7,401.1,""smooth"",""left"",""left"",""good_move"",41526.5,2640.1,2331.5,38886.4,308.6,""smooth"",""left"",""left"",""good_move"",43982.1,2455.4,2117.6,41526.7,337.8,""smooth"",""left"",""left"",""good_move""]","",""
"4476","","<div style=""width:500px;"">
  <p>What determined the result of this run?</p>
  </div>","80","html-slider-response","25","491054","0.0-5.0-1.3","196","1","2025-07-23 08:39:45","1f75c3e559b7213887762d5229550c2b","93.39.137.212","Mozilla/5.0 (Windows NT 10.0; Win64; x64) AppleWebKit/537.36 (KHTML, like Gecko) Chrome/138.0.0.0 Safari/537.36","WebKit","Chrome","138.0.0.0","Windows","10.0","https://app.prolific.com/","it-IT,it;q=0.9,en-US;q=0.8,en;q=0.7","5daae19f8a06b60016d1bc32","683db9eb0562dbf637994deb","68809fc3d81a4f1449a23385","2","1","5daae19f8a06b60016d1bc32","2","1","2025-07-23T08:47:57.728Z","","","","","","","","","","","AttribQ","","50","","","","","","","","","","","","","","","","","","","","","","","","","","","","",""
"2148","","<div style=""width:500px;"">
  <p>How much control did you have over the ball?</p>
  </div>","82","html-slider-response","26","493203","0.0-5.0-2.3","196","1","2025-07-23 08:39:45","1f75c3e559b7213887762d5229550c2b","93.39.137.212","Mozilla/5.0 (Windows NT 10.0; Win64; x64) AppleWebKit/537.36 (KHTML, like Gecko) Chrome/138.0.0.0 Safari/537.36","WebKit","Chrome","138.0.0.0","Windows","10.0","https://app.prolific.com/","it-IT,it;q=0.9,en-US;q=0.8,en;q=0.7","5daae19f8a06b60016d1bc32","683db9eb0562dbf637994deb","68809fc3d81a4f1449a23385","2","1","5daae19f8a06b60016d1bc32","2","1","2025-07-23T08:47:59.877Z","","","","","","","","","","","ControlQ","","50","","","","","","","","","","","","","","","","","","","","","","","","","","","","",""
"3836","","<div style=""width:500px;"">
  <p>How would you describe your current emotional state?</p>
  </div>","50","html-slider-response","27","497040","0.0-5.0-3.3","196","1","2025-07-23 08:39:45","1f75c3e559b7213887762d5229550c2b","93.39.137.212","Mozilla/5.0 (Windows NT 10.0; Win64; x64) AppleWebKit/537.36 (KHTML, like Gecko) Chrome/138.0.0.0 Safari/537.36","WebKit","Chrome","138.0.0.0","Windows","10.0","https://app.prolific.com/","it-IT,it;q=0.9,en-US;q=0.8,en;q=0.7","5daae19f8a06b60016d1bc32","683db9eb0562dbf637994deb","68809fc3d81a4f1449a23385","2","1","5daae19f8a06b60016d1bc32","2","1","2025-07-23T08:48:03.714Z","","","","","","","","","","","StressQ","","50","","","","","","","","","","","","","","","","","","","","","","","","","","","","",""
"2823","","<div style=""width:500px;"">
  <p>What best describes how you currently feel?</p>
  </div>","100","html-slider-response","28","499864","0.0-5.0-4.3","196","1","2025-07-23 08:39:45","1f75c3e559b7213887762d5229550c2b","93.39.137.212","Mozilla/5.0 (Windows NT 10.0; Win64; x64) AppleWebKit/537.36 (KHTML, like Gecko) Chrome/138.0.0.0 Safari/537.36","WebKit","Chrome","138.0.0.0","Windows","10.0","https://app.prolific.com/","it-IT,it;q=0.9,en-US;q=0.8,en;q=0.7","5daae19f8a06b60016d1bc32","683db9eb0562dbf637994deb","68809fc3d81a4f1449a23385","2","1","5daae19f8a06b60016d1bc32","2","1","2025-07-23T08:48:06.538Z","","","","","","","","","","","MotivationQ","","50","","","","","","","","","","","","","","","","","","","","","","","","","","","","",""
"","","","","ctl-task-cpt","29","559479","0.0-5.0-0.4","196","1","2025-07-23 08:39:45","1f75c3e559b7213887762d5229550c2b","93.39.137.212","Mozilla/5.0 (Windows NT 10.0; Win64; x64) AppleWebKit/537.36 (KHTML, like Gecko) Chrome/138.0.0.0 Safari/537.36","WebKit","Chrome","138.0.0.0","Windows","10.0","https://app.prolific.com/","it-IT,it;q=0.9,en-US;q=0.8,en;q=0.7","5daae19f8a06b60016d1bc32","683db9eb0562dbf637994deb","68809fc3d81a4f1449a23385","2","1","5daae19f8a06b60016d1bc32","2","1","2025-07-23T08:49:06.154Z","","","","","","","","","","","","","","win-only","2","g1:SE,g2:NW","0.6","5","0","501373.6","1063.6","6070.8","56607","1","4","4","6","2","-4","-5","19","24","0.14393939393939395","1188.8","3000","-2210","[""left"",""up""]","{""num_key_presses"":11,""num_perfect"":6,""num_errors"":1,""num_randdir"":4,""num_randdir_good_moves"":1,""num_whilered"":0,""num_whileblue"":1,""num_blue"":6,""num_good_moves"":7}","[421.57142857142856,420.47767857142856,0.2,421.57142857142856,420.47767857142856,104,421.57142857142856,420.47767857142856,204.2,421.57142857142856,420.47767857142856,309.8,421.57142857142856,420.47767857142856,417.6,421.57142857142856,420.47767857142856,520.5,421.57142857142856,420.47767857142856,624,412.57142857142856,411.47767857142856,731.7,218.57142857142856,222.47767857142856,832.8,158.57142857142856,156.47767857142856,939.5,135.57142857142856,130.47767857142856,1047.6,111.57142857142857,108.47767857142857,1148.4,111.57142857142857,105.47767857142857,1255.2,111.57142857142857,105.47767857142857,1362.7,-100.42857142857143,165.47767857142856,1472.3,-162.42857142857144,188.47767857142856,1579.7,-162.42857142857144,188.47767857142856,1685.2,-162.42857142857144,188.47767857142856,1789.8,-162.42857142857144,188.47767857142856,1892.7,-162.42857142857144,188.47767857142856,1993.1,-162.42857142857144,188.47767857142856,2101.1,-162.42857142857144,188.47767857142856,2204.9,-162.42857142857144,188.47767857142856,2305.2,-162.42857142857144,188.47767857142856,2408.9,-162.42857142857144,188.47767857142856,2518.7,-162.42857142857144,188.47767857142856,2623.1,-162.42857142857144,188.47767857142856,2723.2,-162.42857142857144,188.47767857142856,2833.7,-162.42857142857144,188.47767857142856,2936.6,-162.42857142857144,188.47767857142856,3037.1,-162.42857142857144,188.47767857142856,3139.6,-162.42857142857144,188.47767857142856,3240.1,-162.42857142857144,188.47767857142856,3343,-162.42857142857144,188.47767857142856,3450.9,-162.42857142857144,188.47767857142856,3556,-162.42857142857144,188.47767857142856,3657.5,-162.42857142857144,188.47767857142856,3767.3,-162.42857142857144,188.47767857142856,3868.8,-162.42857142857144,188.47767857142856,3974.3,-162.42857142857144,188.47767857142856,4076.6,-162.42857142857144,188.47767857142856,4183.9,-162.42857142857144,188.47767857142856,4287.6,-162.42857142857144,188.47767857142856,4389.2,-162.42857142857144,188.47767857142856,4494.2,-162.42857142857144,188.47767857142856,4601.9,-162.42857142857144,188.47767857142856,4702.1,-162.42857142857144,188.47767857142856,4806.1,-162.42857142857144,188.47767857142856,4908.3]","[1412.6,1412.6,1000,0,412.6,""smooth"",""left"",""left"",""good_move"",4246.1,2833.1,2491,1413,342.1,""oops"",""up"",""right"",""bad_move"",7532.9,3286.2,2790.7,4246.7,495.5,""oops"",""left"",""up"",""good_move"",13518.8,5985.4,2589.9,10578.9,350,""smooth"",""left"",""left"",""good_move"",20220.7,6701.7,2868.9,16974.8,377,""oops"",""left"",""down"",""bad_move"",23973.1,3752,3314.5,20221.2,437.4,""smooth"",""up"",""up"",""good_move"",27048.2,3074.7,2663.1,23973.5,411.6,""oops"",""up"",""down"",""bad_move"",29440.4,2392,2006.7,27048.4,385.3,""smooth"",""left"",""left"",""good_move"",32033.6,2592.7,2307.7,29440.9,285,""smooth"",""up"",""up"",""good_move"",37702.3,5668.4,2083.7,35316.8,301.8,""while_blue"",""up"",""right"",""bad_move"",40307.8,2604.9,2043.7,37702.9,561.2,""smooth"",""left"",""left"",""good_move""]","",""
"5766","","<div style=""width:500px;"">
  <p>What determined the result of this run?</p>
  </div>","2","html-slider-response","30","565247","0.0-5.0-1.4","196","1","2025-07-23 08:39:45","1f75c3e559b7213887762d5229550c2b","93.39.137.212","Mozilla/5.0 (Windows NT 10.0; Win64; x64) AppleWebKit/537.36 (KHTML, like Gecko) Chrome/138.0.0.0 Safari/537.36","WebKit","Chrome","138.0.0.0","Windows","10.0","https://app.prolific.com/","it-IT,it;q=0.9,en-US;q=0.8,en;q=0.7","5daae19f8a06b60016d1bc32","683db9eb0562dbf637994deb","68809fc3d81a4f1449a23385","2","1","5daae19f8a06b60016d1bc32","2","1","2025-07-23T08:49:11.921Z","","","","","","","","","","","AttribQ","","50","","","","","","","","","","","","","","","","","","","","","","","","","","","","",""
"3094","","<div style=""width:500px;"">
  <p>How much control did you have over the ball?</p>
  </div>","4","html-slider-response","31","568342","0.0-5.0-2.4","196","1","2025-07-23 08:39:45","1f75c3e559b7213887762d5229550c2b","93.39.137.212","Mozilla/5.0 (Windows NT 10.0; Win64; x64) AppleWebKit/537.36 (KHTML, like Gecko) Chrome/138.0.0.0 Safari/537.36","WebKit","Chrome","138.0.0.0","Windows","10.0","https://app.prolific.com/","it-IT,it;q=0.9,en-US;q=0.8,en;q=0.7","5daae19f8a06b60016d1bc32","683db9eb0562dbf637994deb","68809fc3d81a4f1449a23385","2","1","5daae19f8a06b60016d1bc32","2","1","2025-07-23T08:49:15.016Z","","","","","","","","","","","ControlQ","","50","","","","","","","","","","","","","","","","","","","","","","","","","","","","",""
"5687","","<div style=""width:500px;"">
  <p>How would you describe your current emotional state?</p>
  </div>","63","html-slider-response","32","574030","0.0-5.0-3.4","196","1","2025-07-23 08:39:45","1f75c3e559b7213887762d5229550c2b","93.39.137.212","Mozilla/5.0 (Windows NT 10.0; Win64; x64) AppleWebKit/537.36 (KHTML, like Gecko) Chrome/138.0.0.0 Safari/537.36","WebKit","Chrome","138.0.0.0","Windows","10.0","https://app.prolific.com/","it-IT,it;q=0.9,en-US;q=0.8,en;q=0.7","5daae19f8a06b60016d1bc32","683db9eb0562dbf637994deb","68809fc3d81a4f1449a23385","2","1","5daae19f8a06b60016d1bc32","2","1","2025-07-23T08:49:20.705Z","","","","","","","","","","","StressQ","","50","","","","","","","","","","","","","","","","","","","","","","","","","","","","",""
"3232","","<div style=""width:500px;"">
  <p>What best describes how you currently feel?</p>
  </div>","89","html-slider-response","33","577264","0.0-5.0-4.4","196","1","2025-07-23 08:39:45","1f75c3e559b7213887762d5229550c2b","93.39.137.212","Mozilla/5.0 (Windows NT 10.0; Win64; x64) AppleWebKit/537.36 (KHTML, like Gecko) Chrome/138.0.0.0 Safari/537.36","WebKit","Chrome","138.0.0.0","Windows","10.0","https://app.prolific.com/","it-IT,it;q=0.9,en-US;q=0.8,en;q=0.7","5daae19f8a06b60016d1bc32","683db9eb0562dbf637994deb","68809fc3d81a4f1449a23385","2","1","5daae19f8a06b60016d1bc32","2","1","2025-07-23T08:49:23.938Z","","","","","","","","","","","MotivationQ","","50","","","","","","","","","","","","","","","","","","","","","","","","","","","","",""
"","","","","ctl-task-cpt","34","622412","0.0-5.0-0.5","196","1","2025-07-23 08:39:45","1f75c3e559b7213887762d5229550c2b","93.39.137.212","Mozilla/5.0 (Windows NT 10.0; Win64; x64) AppleWebKit/537.36 (KHTML, like Gecko) Chrome/138.0.0.0 Safari/537.36","WebKit","Chrome","138.0.0.0","Windows","10.0","https://app.prolific.com/","it-IT,it;q=0.9,en-US;q=0.8,en;q=0.7","5daae19f8a06b60016d1bc32","683db9eb0562dbf637994deb","68809fc3d81a4f1449a23385","2","1","5daae19f8a06b60016d1bc32","2","1","2025-07-23T08:50:09.086Z","","","","","","","","","","","","","","win-only","2","g1:SE,g2:NW","0.5","6","0","578772.4","1209.4","6210","42136.6","1","4","8","6","2","-8","-9","10","19","0.07575757575757576","1161.3","3000","-2135","[""left"",""up""]","{""num_key_presses"":12,""num_perfect"":6,""num_errors"":1,""num_randdir"":5,""num_randdir_good_moves"":1,""num_whilered"":0,""num_whileblue"":1,""num_blue"":1,""num_good_moves"":7}","[415.57142857142856,411.47767857142856,0.2,415.57142857142856,411.47767857142856,100.8,415.57142857142856,411.47767857142856,208.2,415.57142857142856,411.47767857142856,315,415.57142857142856,411.47767857142856,419.5,415.57142857142856,411.47767857142856,528.3,415.57142857142856,411.47767857142856,631.6,199.57142857142856,201.47767857142856,735.8,117.57142857142857,107.47767857142857,837.4,105.57142857142857,86.47767857142857,937.7,99.57142857142857,80.47767857142857,1042.3,99.57142857142857,80.47767857142857,1145.3,99.57142857142857,80.47767857142857,1248.1,99.57142857142857,80.47767857142857,1348.1,99.57142857142857,80.47767857142857,1454.9,99.57142857142857,80.47767857142857,1556.1,-22.42857142857143,151.47767857142856,1656.4,-120.42857142857143,229.47767857142856,1761.7,-148.42857142857144,262.47767857142856,1864.7,-148.42857142857144,262.47767857142856,1965,-148.42857142857144,262.47767857142856,2068.3,-148.42857142857144,262.47767857142856,2170.3,-148.42857142857144,262.47767857142856,2276.6,-148.42857142857144,262.47767857142856,2377.8,-148.42857142857144,262.47767857142856,2482.3,-148.42857142857144,262.47767857142856,2585.2,-148.42857142857144,262.47767857142856,2686,-148.42857142857144,262.47767857142856,2787.1,-148.42857142857144,262.47767857142856,2889.2,-148.42857142857144,262.47767857142856,2998.2,-148.42857142857144,262.47767857142856,3104,-148.42857142857144,262.47767857142856,3212.6,-148.42857142857144,262.47767857142856,3312.9,-148.42857142857144,262.47767857142856,3415.9,-148.42857142857144,262.47767857142856,3516.1,-148.42857142857144,262.47767857142856,3618.7,-148.42857142857144,262.47767857142856,3726.5,-148.42857142857144,262.47767857142856,3832.2,-148.42857142857144,262.47767857142856,3932.3,-148.42857142857144,262.47767857142856,4034.7,-148.42857142857144,262.47767857142856,4136.4,-148.42857142857144,262.47767857142856,4237.3,-148.42857142857144,262.47767857142856,4337.3,-148.42857142857144,262.47767857142856,4444.7,-148.42857142857144,262.47767857142856,4549,-148.42857142857144,262.47767857142856,4650.9,-148.42857142857144,262.47767857142856,4751.8,-148.42857142857144,262.47767857142856,4852.4,-148.42857142857144,262.47767857142856,4956.1]","[1454.1,1454.1,1000,0,454.1,""smooth"",""left"",""left"",""good_move"",4015.9,2561.5,2156.4,1454.5,405,""smooth"",""up"",""up"",""good_move"",6923.2,2906.9,2599.9,4016.3,307,""oops"",""left"",""down"",""bad_move"",9586.1,2661.9,2339.3,6924.2,322.6,""smooth"",""up"",""up"",""good_move"",12498.2,2911.9,2586.7,9586.3,325.2,""oops"",""up"",""right"",""bad_move"",15129.3,2630.8,2268.8,12498.6,362,""smooth"",""left"",""left"",""good_move"",18149.6,3020.1,2727.6,15129.5,292.5,""oops"",""left"",""up"",""good_move"",20988.4,2838.6,2504.1,18149.8,334.5,""while_blue"",""left"",""down"",""bad_move"",24214.5,3225.6,2872.3,20988.9,353.3,""smooth"",""left"",""left"",""good_move"",27687,3472.4,3120.4,24214.7,351.9,""oops"",""up"",""right"",""bad_move"",30341,2653.4,2252.5,27687.6,400.9,""oops"",""left"",""right"",""bad_move"",33242.5,2901.2,2517.9,30341.3,383.4,""smooth"",""left"",""left"",""good_move""]","",""
"3641","","<div style=""width:500px;"">
  <p>What determined the result of this run?</p>
  </div>","20","html-slider-response","35","626054","0.0-5.0-1.5","196","1","2025-07-23 08:39:45","1f75c3e559b7213887762d5229550c2b","93.39.137.212","Mozilla/5.0 (Windows NT 10.0; Win64; x64) AppleWebKit/537.36 (KHTML, like Gecko) Chrome/138.0.0.0 Safari/537.36","WebKit","Chrome","138.0.0.0","Windows","10.0","https://app.prolific.com/","it-IT,it;q=0.9,en-US;q=0.8,en;q=0.7","5daae19f8a06b60016d1bc32","683db9eb0562dbf637994deb","68809fc3d81a4f1449a23385","2","1","5daae19f8a06b60016d1bc32","2","1","2025-07-23T08:50:12.728Z","","","","","","","","","","","AttribQ","","50","","","","","","","","","","","","","","","","","","","","","","","","","","","","",""
"1683","","<div style=""width:500px;"">
  <p>How much control did you have over the ball?</p>
  </div>","21","html-slider-response","36","627738","0.0-5.0-2.5","196","1","2025-07-23 08:39:45","1f75c3e559b7213887762d5229550c2b","93.39.137.212","Mozilla/5.0 (Windows NT 10.0; Win64; x64) AppleWebKit/537.36 (KHTML, like Gecko) Chrome/138.0.0.0 Safari/537.36","WebKit","Chrome","138.0.0.0","Windows","10.0","https://app.prolific.com/","it-IT,it;q=0.9,en-US;q=0.8,en;q=0.7","5daae19f8a06b60016d1bc32","683db9eb0562dbf637994deb","68809fc3d81a4f1449a23385","2","1","5daae19f8a06b60016d1bc32","2","1","2025-07-23T08:50:14.413Z","","","","","","","","","","","ControlQ","","50","","","","","","","","","","","","","","","","","","","","","","","","","","","","",""
"3226","","<div style=""width:500px;"">
  <p>How would you describe your current emotional state?</p>
  </div>","100","html-slider-response","37","630965","0.0-5.0-3.5","196","1","2025-07-23 08:39:45","1f75c3e559b7213887762d5229550c2b","93.39.137.212","Mozilla/5.0 (Windows NT 10.0; Win64; x64) AppleWebKit/537.36 (KHTML, like Gecko) Chrome/138.0.0.0 Safari/537.36","WebKit","Chrome","138.0.0.0","Windows","10.0","https://app.prolific.com/","it-IT,it;q=0.9,en-US;q=0.8,en;q=0.7","5daae19f8a06b60016d1bc32","683db9eb0562dbf637994deb","68809fc3d81a4f1449a23385","2","1","5daae19f8a06b60016d1bc32","2","1","2025-07-23T08:50:17.640Z","","","","","","","","","","","StressQ","","50","","","","","","","","","","","","","","","","","","","","","","","","","","","","",""
"5096","","<div style=""width:500px;"">
  <p>What best describes how you currently feel?</p>
  </div>","58","html-slider-response","38","636063","0.0-5.0-4.5","196","1","2025-07-23 08:39:45","1f75c3e559b7213887762d5229550c2b","93.39.137.212","Mozilla/5.0 (Windows NT 10.0; Win64; x64) AppleWebKit/537.36 (KHTML, like Gecko) Chrome/138.0.0.0 Safari/537.36","WebKit","Chrome","138.0.0.0","Windows","10.0","https://app.prolific.com/","it-IT,it;q=0.9,en-US;q=0.8,en;q=0.7","5daae19f8a06b60016d1bc32","683db9eb0562dbf637994deb","68809fc3d81a4f1449a23385","2","1","5daae19f8a06b60016d1bc32","2","1","2025-07-23T08:50:22.737Z","","","","","","","","","","","MotivationQ","","50","","","","","","","","","","","","","","","","","","","","","","","","","","","","",""
"","","","","ctl-task-cpt","39","668097","0.0-5.0-0.6","196","1","2025-07-23 08:39:45","1f75c3e559b7213887762d5229550c2b","93.39.137.212","Mozilla/5.0 (Windows NT 10.0; Win64; x64) AppleWebKit/537.36 (KHTML, like Gecko) Chrome/138.0.0.0 Safari/537.36","WebKit","Chrome","138.0.0.0","Windows","10.0","https://app.prolific.com/","it-IT,it;q=0.9,en-US;q=0.8,en;q=0.7","5daae19f8a06b60016d1bc32","683db9eb0562dbf637994deb","68809fc3d81a4f1449a23385","2","1","5daae19f8a06b60016d1bc32","2","1","2025-07-23T08:50:54.772Z","","","","","","","","","","","","","","win-only","0","g1:NW,g2:SE","0.4","7","0","637571.8","1534.5","6536.6","29018.6","1","4","8","6","2","8","8","18","10","0.13636363636363635","1083.9","3000","1030","[""down"",""right""]","{""num_key_presses"":8,""num_perfect"":4,""num_errors"":0,""num_randdir"":4,""num_randdir_good_moves"":3,""num_whilered"":0,""num_whileblue"":0,""num_blue"":0,""num_good_moves"":7}","[420.57142857142856,417.47767857142856,0.2,420.57142857142856,417.47767857142856,101,420.57142857142856,417.47767857142856,207.8,420.57142857142856,417.47767857142856,315.9,420.57142857142856,417.47767857142856,418.6,420.57142857142856,417.47767857142856,522.1,420.57142857142856,417.47767857142856,630.7,673.5714285714286,636.4776785714286,734.5,753.5714285714286,720.4776785714286,836.6,762.5714285714286,728.4776785714286,942.1,764.5714285714286,751.4776785714286,1051.2,763.5714285714286,752.4776785714286,1157.3,763.5714285714286,752.4776785714286,1264.7,825.5714285714286,737.4776785714286,1369.6,1040.5714285714287,659.4776785714286,1471.7,1040.5714285714287,659.4776785714286,1581.8,1040.5714285714287,659.4776785714286,1685.7,1040.5714285714287,659.4776785714286,1790.5,1040.5714285714287,659.4776785714286,1896.6,1040.5714285714287,659.4776785714286,1998.2,1040.5714285714287,659.4776785714286,2101.2,1040.5714285714287,659.4776785714286,2204.1,1040.5714285714287,659.4776785714286,2306.2,1040.5714285714287,659.4776785714286,2410.7,1040.5714285714287,659.4776785714286,2511.6,1040.5714285714287,659.4776785714286,2617.4,1040.5714285714287,659.4776785714286,2722.2,1040.5714285714287,659.4776785714286,2825.4,1040.5714285714287,659.4776785714286,2932.8,1040.5714285714287,659.4776785714286,3033.4,1040.5714285714287,659.4776785714286,3137.2,1040.5714285714287,659.4776785714286,3245.4,1040.5714285714287,659.4776785714286,3347.6,1040.5714285714287,659.4776785714286,3453.2,1040.5714285714287,659.4776785714286,3560.7,1040.5714285714287,659.4776785714286,3670.5,1040.5714285714287,659.4776785714286,3775.9,1040.5714285714287,659.4776785714286,3885,1040.5714285714287,659.4776785714286,3985.8,1040.5714285714287,659.4776785714286,4086.5,1040.5714285714287,659.4776785714286,4192.1,1040.5714285714287,659.4776785714286,4292.7,1040.5714285714287,659.4776785714286,4400.9,1040.5714285714287,659.4776785714286,4507.1,1040.5714285714287,659.4776785714286,4615,1040.5714285714287,659.4776785714286,4720.3,1040.5714285714287,659.4776785714286,4820.9,1040.5714285714287,659.4776785714286,4922.6]","[1386.5,1386.5,1000,0,386.5,""smooth"",""down"",""down"",""good_move"",4177.3,2790.3,2381.9,1387,408.4,""oops"",""down"",""down"",""good_move"",7059.4,2881.6,2524.9,4177.8,356.7,""smooth"",""right"",""right"",""good_move"",9818.4,2758.6,2445,7059.8,313.6,""oops"",""right"",""right"",""good_move"",12977.4,3158.7,2825.4,9818.7,333.3,""oops"",""right"",""up"",""bad_move"",16007.1,3029.2,2748.4,12977.9,280.8,""smooth"",""down"",""down"",""good_move"",19372.9,3365.1,3079.4,16007.8,285.7,""oops"",""down"",""right"",""good_move"",22375,3001.8,2705.8,19373.3,296,""smooth"",""down"",""down"",""good_move""]","",""
"3300","","<div style=""width:500px;"">
  <p>What determined the result of this run?</p>
  </div>","50","html-slider-response","40","671399","0.0-5.0-1.6","196","1","2025-07-23 08:39:45","1f75c3e559b7213887762d5229550c2b","93.39.137.212","Mozilla/5.0 (Windows NT 10.0; Win64; x64) AppleWebKit/537.36 (KHTML, like Gecko) Chrome/138.0.0.0 Safari/537.36","WebKit","Chrome","138.0.0.0","Windows","10.0","https://app.prolific.com/","it-IT,it;q=0.9,en-US;q=0.8,en;q=0.7","5daae19f8a06b60016d1bc32","683db9eb0562dbf637994deb","68809fc3d81a4f1449a23385","2","1","5daae19f8a06b60016d1bc32","2","1","2025-07-23T08:50:58.073Z","","","","","","","","","","","AttribQ","","50","","","","","","","","","","","","","","","","","","","","","","","","","","","","",""
"3631","","<div style=""width:500px;"">
  <p>How much control did you have over the ball?</p>
  </div>","55","html-slider-response","41","675031","0.0-5.0-2.6","196","1","2025-07-23 08:39:45","1f75c3e559b7213887762d5229550c2b","93.39.137.212","Mozilla/5.0 (Windows NT 10.0; Win64; x64) AppleWebKit/537.36 (KHTML, like Gecko) Chrome/138.0.0.0 Safari/537.36","WebKit","Chrome","138.0.0.0","Windows","10.0","https://app.prolific.com/","it-IT,it;q=0.9,en-US;q=0.8,en;q=0.7","5daae19f8a06b60016d1bc32","683db9eb0562dbf637994deb","68809fc3d81a4f1449a23385","2","1","5daae19f8a06b60016d1bc32","2","1","2025-07-23T08:51:01.705Z","","","","","","","","","","","ControlQ","","50","","","","","","","","","","","","","","","","","","","","","","","","","","","","",""
"3679","","<div style=""width:500px;"">
  <p>How would you describe your current emotional state?</p>
  </div>","70","html-slider-response","42","678711","0.0-5.0-3.6","196","1","2025-07-23 08:39:45","1f75c3e559b7213887762d5229550c2b","93.39.137.212","Mozilla/5.0 (Windows NT 10.0; Win64; x64) AppleWebKit/537.36 (KHTML, like Gecko) Chrome/138.0.0.0 Safari/537.36","WebKit","Chrome","138.0.0.0","Windows","10.0","https://app.prolific.com/","it-IT,it;q=0.9,en-US;q=0.8,en;q=0.7","5daae19f8a06b60016d1bc32","683db9eb0562dbf637994deb","68809fc3d81a4f1449a23385","2","1","5daae19f8a06b60016d1bc32","2","1","2025-07-23T08:51:05.385Z","","","","","","","","","","","StressQ","","50","","","","","","","","","","","","","","","","","","","","","","","","","","","","",""
"3181","","<div style=""width:500px;"">
  <p>What best describes how you currently feel?</p>
  </div>","65","html-slider-response","43","681893","0.0-5.0-4.6","196","1","2025-07-23 08:39:45","1f75c3e559b7213887762d5229550c2b","93.39.137.212","Mozilla/5.0 (Windows NT 10.0; Win64; x64) AppleWebKit/537.36 (KHTML, like Gecko) Chrome/138.0.0.0 Safari/537.36","WebKit","Chrome","138.0.0.0","Windows","10.0","https://app.prolific.com/","it-IT,it;q=0.9,en-US;q=0.8,en;q=0.7","5daae19f8a06b60016d1bc32","683db9eb0562dbf637994deb","68809fc3d81a4f1449a23385","2","1","5daae19f8a06b60016d1bc32","2","1","2025-07-23T08:51:08.567Z","","","","","","","","","","","MotivationQ","","50","","","","","","","","","","","","","","","","","","","","","","","","","","","","",""
"","","","","ctl-task-cpt","44","720082","0.0-5.0-0.7","196","1","2025-07-23 08:39:45","1f75c3e559b7213887762d5229550c2b","93.39.137.212","Mozilla/5.0 (Windows NT 10.0; Win64; x64) AppleWebKit/537.36 (KHTML, like Gecko) Chrome/138.0.0.0 Safari/537.36","WebKit","Chrome","138.0.0.0","Windows","10.0","https://app.prolific.com/","it-IT,it;q=0.9,en-US;q=0.8,en;q=0.7","5daae19f8a06b60016d1bc32","683db9eb0562dbf637994deb","68809fc3d81a4f1449a23385","2","1","5daae19f8a06b60016d1bc32","2","1","2025-07-23T08:51:46.756Z","","","","","","","","","","","","","","win-only","1","g1:NE,g2:SW","0.3","8","0","683401.9","1396.5","6404.8","35182.8","1","4","4","6","2","4","3","21","18","0.1590909090909091","1371.1","3000","635","[""down"",""left""]","{""num_key_presses"":10,""num_perfect"":3,""num_errors"":1,""num_randdir"":6,""num_randdir_good_moves"":4,""num_whilered"":0,""num_whileblue"":1,""num_blue"":1,""num_good_moves"":8}","[417.57142857142856,419.47767857142856,0.3,417.57142857142856,419.47767857142856,102.2,417.57142857142856,419.47767857142856,210.7,417.57142857142856,419.47767857142856,314.3,417.57142857142856,419.47767857142856,420.9,417.57142857142856,419.47767857142856,522.4,417.57142857142856,419.47767857142856,631.4,417.57142857142856,419.47767857142856,731.7,302.57142857142856,529.4776785714286,832.4,192.57142857142856,672.4776785714286,935.1,135.57142857142856,738.4776785714286,1035.2,94.57142857142857,757.4776785714286,1135.8,80.57142857142857,760.4776785714286,1239.9,80.57142857142857,760.4776785714286,1348.6,80.57142857142857,760.4776785714286,1449.1,80.57142857142857,760.4776785714286,1554.6,80.57142857142857,760.4776785714286,1663,80.57142857142857,760.4776785714286,1763.2,-53.42857142857143,647.4776785714286,1863.8,-75.42857142857143,608.4776785714286,1964.4,-75.42857142857143,608.4776785714286,2065.8,-75.42857142857143,608.4776785714286,2177.4,-75.42857142857143,608.4776785714286,2281.7,-75.42857142857143,608.4776785714286,2382.4,-75.42857142857143,608.4776785714286,2485.7,-75.42857142857143,608.4776785714286,2593.2,-75.42857142857143,608.4776785714286,2693.4,-75.42857142857143,608.4776785714286,2794.3,-75.42857142857143,608.4776785714286,2895,-75.42857142857143,608.4776785714286,2999.2,-75.42857142857143,608.4776785714286,3100,-75.42857142857143,608.4776785714286,3200.1,-75.42857142857143,608.4776785714286,3301.4,-75.42857142857143,608.4776785714286,3411.5,-75.42857142857143,608.4776785714286,3515.5,-75.42857142857143,608.4776785714286,3615.9,-75.42857142857143,608.4776785714286,3716.6,-75.42857142857143,608.4776785714286,3817.1,-75.42857142857143,608.4776785714286,3919.2,-75.42857142857143,608.4776785714286,4024.5,-75.42857142857143,608.4776785714286,4131.6,-75.42857142857143,608.4776785714286,4237,-75.42857142857143,608.4776785714286,4337.3,-75.42857142857143,608.4776785714286,4445.2,-75.42857142857143,608.4776785714286,4545.2,-75.42857142857143,608.4776785714286,4646.7,-75.42857142857143,608.4776785714286,4747.2,-75.42857142857143,608.4776785714286,4848.6,-75.42857142857143,608.4776785714286,4949.4]","[1377.3,1377.3,1000,0,377.3,""smooth"",""down"",""down"",""good_move"",4145,2767.3,2422.4,1377.7,344.9,""oops"",""left"",""left"",""good_move"",7629.9,3484.2,3236.7,4145.8,247.4,""while_blue"",""left"",""left"",""good_move"",11385.2,3755,3416.5,7630.2,338.5,""smooth"",""down"",""down"",""good_move"",14150.3,2764.6,2393.8,11385.7,370.8,""oops"",""down"",""left"",""good_move"",16758.1,2607.5,2274,14150.6,333.5,""oops"",""down"",""up"",""bad_move"",20605.9,3847.4,3510.4,16758.5,337,""oops"",""down"",""up"",""bad_move"",23301.8,2695.6,2331.5,20606.3,364.1,""smooth"",""down"",""down"",""good_move"",26079.4,2777.1,2452.8,23302.3,324.3,""oops"",""down"",""down"",""good_move"",28641.4,2561.7,2230.1,26079.7,331.6,""oops"",""down"",""down"",""good_move""]","",""
"2820","","<div style=""width:500px;"">
  <p>What determined the result of this run?</p>
  </div>","50","html-slider-response","45","722903","0.0-5.0-1.7","196","1","2025-07-23 08:39:45","1f75c3e559b7213887762d5229550c2b","93.39.137.212","Mozilla/5.0 (Windows NT 10.0; Win64; x64) AppleWebKit/537.36 (KHTML, like Gecko) Chrome/138.0.0.0 Safari/537.36","WebKit","Chrome","138.0.0.0","Windows","10.0","https://app.prolific.com/","it-IT,it;q=0.9,en-US;q=0.8,en;q=0.7","5daae19f8a06b60016d1bc32","683db9eb0562dbf637994deb","68809fc3d81a4f1449a23385","2","1","5daae19f8a06b60016d1bc32","2","1","2025-07-23T08:51:49.577Z","","","","","","","","","","","AttribQ","","50","","","","","","","","","","","","","","","","","","","","","","","","","","","","",""
"4278","","<div style=""width:500px;"">
  <p>How much control did you have over the ball?</p>
  </div>","48","html-slider-response","46","727182","0.0-5.0-2.7","196","1","2025-07-23 08:39:45","1f75c3e559b7213887762d5229550c2b","93.39.137.212","Mozilla/5.0 (Windows NT 10.0; Win64; x64) AppleWebKit/537.36 (KHTML, like Gecko) Chrome/138.0.0.0 Safari/537.36","WebKit","Chrome","138.0.0.0","Windows","10.0","https://app.prolific.com/","it-IT,it;q=0.9,en-US;q=0.8,en;q=0.7","5daae19f8a06b60016d1bc32","683db9eb0562dbf637994deb","68809fc3d81a4f1449a23385","2","1","5daae19f8a06b60016d1bc32","2","1","2025-07-23T08:51:53.856Z","","","","","","","","","","","ControlQ","","50","","","","","","","","","","","","","","","","","","","","","","","","","","","","",""
"3690","","<div style=""width:500px;"">
  <p>How would you describe your current emotional state?</p>
  </div>","84","html-slider-response","47","730874","0.0-5.0-3.7","196","1","2025-07-23 08:39:45","1f75c3e559b7213887762d5229550c2b","93.39.137.212","Mozilla/5.0 (Windows NT 10.0; Win64; x64) AppleWebKit/537.36 (KHTML, like Gecko) Chrome/138.0.0.0 Safari/537.36","WebKit","Chrome","138.0.0.0","Windows","10.0","https://app.prolific.com/","it-IT,it;q=0.9,en-US;q=0.8,en;q=0.7","5daae19f8a06b60016d1bc32","683db9eb0562dbf637994deb","68809fc3d81a4f1449a23385","2","1","5daae19f8a06b60016d1bc32","2","1","2025-07-23T08:51:57.548Z","","","","","","","","","","","StressQ","","50","","","","","","","","","","","","","","","","","","","","","","","","","","","","",""
"2324","","<div style=""width:500px;"">
  <p>What best describes how you currently feel?</p>
  </div>","60","html-slider-response","48","733198","0.0-5.0-4.7","196","1","2025-07-23 08:39:45","1f75c3e559b7213887762d5229550c2b","93.39.137.212","Mozilla/5.0 (Windows NT 10.0; Win64; x64) AppleWebKit/537.36 (KHTML, like Gecko) Chrome/138.0.0.0 Safari/537.36","WebKit","Chrome","138.0.0.0","Windows","10.0","https://app.prolific.com/","it-IT,it;q=0.9,en-US;q=0.8,en;q=0.7","5daae19f8a06b60016d1bc32","683db9eb0562dbf637994deb","68809fc3d81a4f1449a23385","2","1","5daae19f8a06b60016d1bc32","2","1","2025-07-23T08:51:59.872Z","","","","","","","","","","","MotivationQ","","50","","","","","","","","","","","","","","","","","","","","","","","","","","","","",""
"","","","","ctl-task-cpt","49","791923","0.0-5.0-0.8","196","1","2025-07-23 08:39:45","1f75c3e559b7213887762d5229550c2b","93.39.137.212","Mozilla/5.0 (Windows NT 10.0; Win64; x64) AppleWebKit/537.36 (KHTML, like Gecko) Chrome/138.0.0.0 Safari/537.36","WebKit","Chrome","138.0.0.0","Windows","10.0","https://app.prolific.com/","it-IT,it;q=0.9,en-US;q=0.8,en;q=0.7","5daae19f8a06b60016d1bc32","683db9eb0562dbf637994deb","68809fc3d81a4f1449a23385","2","1","5daae19f8a06b60016d1bc32","2","1","2025-07-23T08:52:58.597Z","","","","","","","","","","","","","","win-only","2","g1:SE,g2:NW","0.2","9","0","734707.4","1099.6","6105.3","55705.3","1","4","4","6","2","-4","-4","17","21","0.12878787878787878","1316.8","3000","-2170","[""left"",""up""]","{""num_key_presses"":10,""num_perfect"":2,""num_errors"":0,""num_randdir"":8,""num_randdir_good_moves"":4,""num_whilered"":0,""num_whileblue"":0,""num_blue"":5,""num_good_moves"":6}","[419.57142857142856,414.47767857142856,0.4,419.57142857142856,414.47767857142856,100.9,419.57142857142856,414.47767857142856,201,419.57142857142856,414.47767857142856,308.1,419.57142857142856,414.47767857142856,408.6,424.57142857142856,433.47767857142856,511.2,432.57142857142856,449.47767857142856,616,286.57142857142856,354.47767857142856,716,252.57142857142856,322.47767857142856,822,252.57142857142856,322.47767857142856,929,200.57142857142856,255.47767857142856,1033,130.57142857142856,157.47767857142856,1143.9,102.57142857142857,111.47767857142857,1247.8,98.57142857142857,103.47767857142857,1354,98.57142857142857,103.47767857142857,1457,98.57142857142857,103.47767857142857,1560.3,-64.42857142857143,186.47767857142856,1660.4,-121.42857142857143,228.47767857142856,1766,-121.42857142857143,228.47767857142856,1870.1,-121.42857142857143,228.47767857142856,1979.4,-121.42857142857143,228.47767857142856,2079.7,-121.42857142857143,228.47767857142856,2182,-121.42857142857143,228.47767857142856,2293.9,-121.42857142857143,228.47767857142856,2398.9,-121.42857142857143,228.47767857142856,2499.1,-121.42857142857143,228.47767857142856,2599.2,-121.42857142857143,228.47767857142856,2704,-121.42857142857143,228.47767857142856,2810.5,-121.42857142857143,228.47767857142856,2918.2,-121.42857142857143,228.47767857142856,3027.8,-121.42857142857143,228.47767857142856,3129.6,-121.42857142857143,228.47767857142856,3231,-121.42857142857143,228.47767857142856,3331.3,-121.42857142857143,228.47767857142856,3431.4,-121.42857142857143,228.47767857142856,3531.4,-121.42857142857143,228.47767857142856,3636.7,-121.42857142857143,228.47767857142856,3749,-121.42857142857143,228.47767857142856,3856,-121.42857142857143,228.47767857142856,3962.3,-121.42857142857143,228.47767857142856,4065.8,-121.42857142857143,228.47767857142856,4171.5,-121.42857142857143,228.47767857142856,4271.5,-121.42857142857143,228.47767857142856,4379.1,-121.42857142857143,228.47767857142856,4481.5,-121.42857142857143,228.47767857142856,4581.7,-121.42857142857143,228.47767857142856,4682.4,-121.42857142857143,228.47767857142856,4782.6,-121.42857142857143,228.47767857142856,4887.1,-121.42857142857143,228.47767857142856,4988.2]","[1415.9,1415.9,1000,0,415.9,""smooth"",""left"",""left"",""good_move"",4462.8,3046.5,2699.6,1416.4,346.8,""oops"",""left"",""right"",""bad_move"",7223.6,2760.3,2410.4,4463.3,349.9,""oops"",""up"",""up"",""good_move"",18368.7,11144.7,2820,15185.3,363.4,""oops"",""left"",""down"",""bad_move"",21716.3,3347.1,2960.8,18369.3,386.2,""oops"",""left"",""left"",""good_move"",24773.4,3056.7,2662.9,21716.7,393.8,""smooth"",""left"",""left"",""good_move"",38155.5,13381.8,2203.2,35510.8,441.5,""oops"",""up"",""right"",""bad_move"",41589.4,3433.5,2991.1,38155.9,442.4,""oops"",""up"",""right"",""bad_move"",44926.3,3336.8,2875.1,41589.6,461.7,""oops"",""up"",""up"",""good_move"",47455.4,2528.6,2145.8,44926.8,382.8,""oops"",""left"",""left"",""good_move""]","",""
"4149","","<div style=""width:500px;"">
  <p>What determined the result of this run?</p>
  </div>","5","html-slider-response","50","796074","0.0-5.0-1.8","196","1","2025-07-23 08:39:45","1f75c3e559b7213887762d5229550c2b","93.39.137.212","Mozilla/5.0 (Windows NT 10.0; Win64; x64) AppleWebKit/537.36 (KHTML, like Gecko) Chrome/138.0.0.0 Safari/537.36","WebKit","Chrome","138.0.0.0","Windows","10.0","https://app.prolific.com/","it-IT,it;q=0.9,en-US;q=0.8,en;q=0.7","5daae19f8a06b60016d1bc32","683db9eb0562dbf637994deb","68809fc3d81a4f1449a23385","2","1","5daae19f8a06b60016d1bc32","2","1","2025-07-23T08:53:02.748Z","","","","","","","","","","","AttribQ","","50","","","","","","","","","","","","","","","","","","","","","","","","","","","","",""
"2225","","<div style=""width:500px;"">
  <p>How much control did you have over the ball?</p>
  </div>","4","html-slider-response","51","798300","0.0-5.0-2.8","196","1","2025-07-23 08:39:45","1f75c3e559b7213887762d5229550c2b","93.39.137.212","Mozilla/5.0 (Windows NT 10.0; Win64; x64) AppleWebKit/537.36 (KHTML, like Gecko) Chrome/138.0.0.0 Safari/537.36","WebKit","Chrome","138.0.0.0","Windows","10.0","https://app.prolific.com/","it-IT,it;q=0.9,en-US;q=0.8,en;q=0.7","5daae19f8a06b60016d1bc32","683db9eb0562dbf637994deb","68809fc3d81a4f1449a23385","2","1","5daae19f8a06b60016d1bc32","2","1","2025-07-23T08:53:04.974Z","","","","","","","","","","","ControlQ","","50","","","","","","","","","","","","","","","","","","","","","","","","","","","","",""
"2780","","<div style=""width:500px;"">
  <p>How would you describe your current emotional state?</p>
  </div>","100","html-slider-response","52","801081","0.0-5.0-3.8","196","1","2025-07-23 08:39:45","1f75c3e559b7213887762d5229550c2b","93.39.137.212","Mozilla/5.0 (Windows NT 10.0; Win64; x64) AppleWebKit/537.36 (KHTML, like Gecko) Chrome/138.0.0.0 Safari/537.36","WebKit","Chrome","138.0.0.0","Windows","10.0","https://app.prolific.com/","it-IT,it;q=0.9,en-US;q=0.8,en;q=0.7","5daae19f8a06b60016d1bc32","683db9eb0562dbf637994deb","68809fc3d81a4f1449a23385","2","1","5daae19f8a06b60016d1bc32","2","1","2025-07-23T08:53:07.756Z","","","","","","","","","","","StressQ","","50","","","","","","","","","","","","","","","","","","","","","","","","","","","","",""
"3170","","<div style=""width:500px;"">
  <p>What best describes how you currently feel?</p>
  </div>","44","html-slider-response","53","804252","0.0-5.0-4.8","196","1","2025-07-23 08:39:45","1f75c3e559b7213887762d5229550c2b","93.39.137.212","Mozilla/5.0 (Windows NT 10.0; Win64; x64) AppleWebKit/537.36 (KHTML, like Gecko) Chrome/138.0.0.0 Safari/537.36","WebKit","Chrome","138.0.0.0","Windows","10.0","https://app.prolific.com/","it-IT,it;q=0.9,en-US;q=0.8,en;q=0.7","5daae19f8a06b60016d1bc32","683db9eb0562dbf637994deb","68809fc3d81a4f1449a23385","2","1","5daae19f8a06b60016d1bc32","2","1","2025-07-23T08:53:10.927Z","","","","","","","","","","","MotivationQ","","50","","","","","","","","","","","","","","","","","","","","","","","","","","","","",""
"","","","","ctl-task-cpt","54","844525","0.0-5.0-0.9","196","1","2025-07-23 08:39:45","1f75c3e559b7213887762d5229550c2b","93.39.137.212","Mozilla/5.0 (Windows NT 10.0; Win64; x64) AppleWebKit/537.36 (KHTML, like Gecko) Chrome/138.0.0.0 Safari/537.36","WebKit","Chrome","138.0.0.0","Windows","10.0","https://app.prolific.com/","it-IT,it;q=0.9,en-US;q=0.8,en;q=0.7","5daae19f8a06b60016d1bc32","683db9eb0562dbf637994deb","68809fc3d81a4f1449a23385","2","1","5daae19f8a06b60016d1bc32","2","1","2025-07-23T08:53:51.200Z","","","","","","","","","","","","","","win-only","0","g1:NW,g2:SE","0.4","10","0","805761.8","931.3","5934.7","37260.6","1","4","8","6","2","-8","-8","9","17","0.06818181818181818","1014.3","3000","-2400","[""down"",""right""]","{""num_key_presses"":11,""num_perfect"":5,""num_errors"":0,""num_randdir"":6,""num_randdir_good_moves"":1,""num_whilered"":0,""num_whileblue"":0,""num_blue"":0,""num_good_moves"":6}","[418.57142857142856,411.47767857142856,0.1,418.57142857142856,411.47767857142856,112.8,418.57142857142856,411.47767857142856,213.3,418.57142857142856,411.47767857142856,316.6,418.57142857142856,411.47767857142856,424.1,418.57142857142856,411.47767857142856,528.3,552.5714285714286,528.4776785714286,629.6,690.5714285714286,667.4776785714286,736.9,729.5714285714286,713.4776785714286,844,746.5714285714286,737.4776785714286,944.6,756.5714285714286,744.4776785714286,1045.3,756.5714285714286,744.4776785714286,1146.1,756.5714285714286,744.4776785714286,1252.4,1035.5714285714287,648.4776785714286,1358.3,1110.5714285714287,621.4776785714286,1460.2,1110.5714285714287,621.4776785714286,1562.8,1110.5714285714287,621.4776785714286,1664.2,1110.5714285714287,621.4776785714286,1767.9,1110.5714285714287,621.4776785714286,1870,1110.5714285714287,621.4776785714286,1977.4,1110.5714285714287,621.4776785714286,2078.9,1110.5714285714287,621.4776785714286,2185.1,1110.5714285714287,621.4776785714286,2292.8,1110.5714285714287,621.4776785714286,2393.1,1110.5714285714287,621.4776785714286,2493.4,1110.5714285714287,621.4776785714286,2594.9,1110.5714285714287,621.4776785714286,2695.7,1110.5714285714287,621.4776785714286,2803.9,1110.5714285714287,621.4776785714286,2904.1,1110.5714285714287,621.4776785714286,3011,1110.5714285714287,621.4776785714286,3117.2,1110.5714285714287,621.4776785714286,3225.8,1110.5714285714287,621.4776785714286,3330.9,1110.5714285714287,621.4776785714286,3438.7,1110.5714285714287,621.4776785714286,3540.1,1110.5714285714287,621.4776785714286,3643,1110.5714285714287,621.4776785714286,3744.1,1110.5714285714287,621.4776785714286,3844.9,1110.5714285714287,621.4776785714286,3952.4,1110.5714285714287,621.4776785714286,4059.8,1110.5714285714287,621.4776785714286,4162.9,1110.5714285714287,621.4776785714286,4264.4,1110.5714285714287,621.4776785714286,4364.4,1110.5714285714287,621.4776785714286,4466.9,1110.5714285714287,621.4776785714286,4570.2,1110.5714285714287,621.4776785714286,4680.5,1110.5714285714287,621.4776785714286,4784.2,1110.5714285714287,621.4776785714286,4893.2,1110.5714285714287,621.4776785714286,4994.9]","[1352.1,1352.1,1000,0,352.1,""smooth"",""down"",""down"",""good_move"",4306.8,2954.2,2578.4,1352.6,375.9,""oops"",""right"",""up"",""bad_move"",7460.7,3153.3,2731.2,4307.4,422.1,""oops"",""right"",""left"",""bad_move"",10156.9,2695.7,2318.2,7461.2,377.5,""smooth"",""down"",""down"",""good_move"",13886,3728.7,3357.5,10157.3,371.2,""smooth"",""right"",""right"",""good_move"",17227.6,3341.1,3002,13886.5,339.1,""smooth"",""right"",""right"",""good_move"",19545.3,2317.6,1978.4,17227.8,339.2,""oops"",""right"",""up"",""bad_move"",21286.5,1740.8,1374.6,19545.8,366.2,""oops"",""down"",""left"",""bad_move"",23399.5,2112.3,1810.1,21287.2,302.2,""oops"",""right"",""down"",""good_move"",25797.4,2397.4,2087.4,23400,310,""oops"",""right"",""left"",""bad_move"",28440.5,2642.7,2321.4,25797.8,321.3,""smooth"",""right"",""right"",""good_move""]","",""
"3333","","<div style=""width:500px;"">
  <p>What determined the result of this run?</p>
  </div>","2","html-slider-response","55","847859","0.0-5.0-1.9","196","1","2025-07-23 08:39:45","1f75c3e559b7213887762d5229550c2b","93.39.137.212","Mozilla/5.0 (Windows NT 10.0; Win64; x64) AppleWebKit/537.36 (KHTML, like Gecko) Chrome/138.0.0.0 Safari/537.36","WebKit","Chrome","138.0.0.0","Windows","10.0","https://app.prolific.com/","it-IT,it;q=0.9,en-US;q=0.8,en;q=0.7","5daae19f8a06b60016d1bc32","683db9eb0562dbf637994deb","68809fc3d81a4f1449a23385","2","1","5daae19f8a06b60016d1bc32","2","1","2025-07-23T08:53:54.533Z","","","","","","","","","","","AttribQ","","50","","","","","","","","","","","","","","","","","","","","","","","","","","","","",""
"2299","","<div style=""width:500px;"">
  <p>How much control did you have over the ball?</p>
  </div>","7","html-slider-response","56","850158","0.0-5.0-2.9","196","1","2025-07-23 08:39:45","1f75c3e559b7213887762d5229550c2b","93.39.137.212","Mozilla/5.0 (Windows NT 10.0; Win64; x64) AppleWebKit/537.36 (KHTML, like Gecko) Chrome/138.0.0.0 Safari/537.36","WebKit","Chrome","138.0.0.0","Windows","10.0","https://app.prolific.com/","it-IT,it;q=0.9,en-US;q=0.8,en;q=0.7","5daae19f8a06b60016d1bc32","683db9eb0562dbf637994deb","68809fc3d81a4f1449a23385","2","1","5daae19f8a06b60016d1bc32","2","1","2025-07-23T08:53:56.833Z","","","","","","","","","","","ControlQ","","50","","","","","","","","","","","","","","","","","","","","","","","","","","","","",""
"2192","","<div style=""width:500px;"">
  <p>How would you describe your current emotional state?</p>
  </div>","100","html-slider-response","57","852351","0.0-5.0-3.9","196","1","2025-07-23 08:39:45","1f75c3e559b7213887762d5229550c2b","93.39.137.212","Mozilla/5.0 (Windows NT 10.0; Win64; x64) AppleWebKit/537.36 (KHTML, like Gecko) Chrome/138.0.0.0 Safari/537.36","WebKit","Chrome","138.0.0.0","Windows","10.0","https://app.prolific.com/","it-IT,it;q=0.9,en-US;q=0.8,en;q=0.7","5daae19f8a06b60016d1bc32","683db9eb0562dbf637994deb","68809fc3d81a4f1449a23385","2","1","5daae19f8a06b60016d1bc32","2","1","2025-07-23T08:53:59.026Z","","","","","","","","","","","StressQ","","50","","","","","","","","","","","","","","","","","","","","","","","","","","","","",""
"2636","","<div style=""width:500px;"">
  <p>What best describes how you currently feel?</p>
  </div>","0","html-slider-response","58","854988","0.0-5.0-4.9","196","1","2025-07-23 08:39:45","1f75c3e559b7213887762d5229550c2b","93.39.137.212","Mozilla/5.0 (Windows NT 10.0; Win64; x64) AppleWebKit/537.36 (KHTML, like Gecko) Chrome/138.0.0.0 Safari/537.36","WebKit","Chrome","138.0.0.0","Windows","10.0","https://app.prolific.com/","it-IT,it;q=0.9,en-US;q=0.8,en;q=0.7","5daae19f8a06b60016d1bc32","683db9eb0562dbf637994deb","68809fc3d81a4f1449a23385","2","1","5daae19f8a06b60016d1bc32","2","1","2025-07-23T08:54:01.663Z","","","","","","","","","","","MotivationQ","","50","","","","","","","","","","","","","","","","","","","","","","","","","","","","",""
"","","","","ctl-task-cpt","59","905160","0.0-5.0-0.10","196","1","2025-07-23 08:39:45","1f75c3e559b7213887762d5229550c2b","93.39.137.212","Mozilla/5.0 (Windows NT 10.0; Win64; x64) AppleWebKit/537.36 (KHTML, like Gecko) Chrome/138.0.0.0 Safari/537.36","WebKit","Chrome","138.0.0.0","Windows","10.0","https://app.prolific.com/","it-IT,it;q=0.9,en-US;q=0.8,en;q=0.7","5daae19f8a06b60016d1bc32","683db9eb0562dbf637994deb","68809fc3d81a4f1449a23385","2","1","5daae19f8a06b60016d1bc32","2","1","2025-07-23T08:54:51.834Z","","","","","","","","","","","","","","win-only","1","g1:NE,g2:SW","0.5","11","0","856497.6","1248","6252.1","47159.2","1","4","4","6","2","-4","-4","5","9","0.03787878787878788","1035.7","3000","-2320","[""down"",""left""]","{""num_key_presses"":11,""num_perfect"":6,""num_errors"":0,""num_randdir"":5,""num_randdir_good_moves"":2,""num_whilered"":0,""num_whileblue"":0,""num_blue"":2,""num_good_moves"":8}","[420.57142857142856,410.47767857142856,0.3,420.57142857142856,410.47767857142856,107.9,420.57142857142856,410.47767857142856,209.3,420.57142857142856,410.47767857142856,316.5,420.57142857142856,410.47767857142856,418.3,420.57142857142856,410.47767857142856,518.7,420.57142857142856,410.47767857142856,622.6,209.57142857142856,637.4776785714286,733.1,100.57142857142857,745.4776785714286,836.3,76.57142857142857,751.4776785714286,936.3,71.57142857142857,754.4776785714286,1038,71.57142857142857,754.4776785714286,1142.4,71.57142857142857,754.4776785714286,1244.3,-80.42857142857143,713.4776785714286,1352,-133.42857142857144,698.4776785714286,1461.7,-133.42857142857144,698.4776785714286,1568.5,-133.42857142857144,698.4776785714286,1669,-133.42857142857144,698.4776785714286,1769.2,-133.42857142857144,698.4776785714286,1872.8,-133.42857142857144,698.4776785714286,1976,-133.42857142857144,698.4776785714286,2077,-133.42857142857144,698.4776785714286,2177.7,-133.42857142857144,698.4776785714286,2287,-133.42857142857144,698.4776785714286,2388.2,-133.42857142857144,698.4776785714286,2488.2,-133.42857142857144,698.4776785714286,2588.8,-133.42857142857144,698.4776785714286,2689.3,-133.42857142857144,698.4776785714286,2792.5,-133.42857142857144,698.4776785714286,2901.3,-133.42857142857144,698.4776785714286,3001.8,-133.42857142857144,698.4776785714286,3103.6,-133.42857142857144,698.4776785714286,3208,-133.42857142857144,698.4776785714286,3310.3,-133.42857142857144,698.4776785714286,3414.2,-133.42857142857144,698.4776785714286,3521,-133.42857142857144,698.4776785714286,3628.3,-133.42857142857144,698.4776785714286,3734,-133.42857142857144,698.4776785714286,3841.4,-133.42857142857144,698.4776785714286,3943.8,-133.42857142857144,698.4776785714286,4052.3,-133.42857142857144,698.4776785714286,4153.9,-133.42857142857144,698.4776785714286,4259.2,-133.42857142857144,698.4776785714286,4366.2,-133.42857142857144,698.4776785714286,4470.4,-133.42857142857144,698.4776785714286,4577.6,-133.42857142857144,698.4776785714286,4684.9,-133.42857142857144,698.4776785714286,4787.7,-133.42857142857144,698.4776785714286,4895.1,-133.42857142857144,698.4776785714286,4995.4]","[1345.5,1345.5,1000,0,345.5,""smooth"",""down"",""down"",""good_move"",4724.6,3378.7,3028.6,1345.9,350.1,""smooth"",""left"",""left"",""good_move"",8189.8,3464.7,3118.6,4725.1,346.1,""smooth"",""down"",""down"",""good_move"",11390.2,3200,2827.4,8190.3,372.5,""oops"",""down"",""down"",""good_move"",14159.9,2769.4,2398.4,11390.5,371,""oops"",""left"",""right"",""bad_move"",16976.1,2815.9,2462.8,14160.3,353,""smooth"",""left"",""left"",""good_move"",20337.2,3360.7,3010.3,16976.5,350.4,""smooth"",""left"",""left"",""good_move"",23544.5,3207,2910.3,20337.6,296.6,""oops"",""left"",""right"",""bad_move"",25943.3,2398.4,2068.6,23544.9,329.8,""oops"",""left"",""right"",""bad_move"",28676.3,2732.8,2450.8,25943.5,282,""oops"",""left"",""left"",""good_move"",38271.2,9594.5,2189.9,35730.3,351,""smooth"",""left"",""left"",""good_move""]","",""
"2984","","<div style=""width:500px;"">
  <p>What determined the result of this run?</p>
  </div>","1","html-slider-response","60","908146","0.0-5.0-1.10","196","1","2025-07-23 08:39:45","1f75c3e559b7213887762d5229550c2b","93.39.137.212","Mozilla/5.0 (Windows NT 10.0; Win64; x64) AppleWebKit/537.36 (KHTML, like Gecko) Chrome/138.0.0.0 Safari/537.36","WebKit","Chrome","138.0.0.0","Windows","10.0","https://app.prolific.com/","it-IT,it;q=0.9,en-US;q=0.8,en;q=0.7","5daae19f8a06b60016d1bc32","683db9eb0562dbf637994deb","68809fc3d81a4f1449a23385","2","1","5daae19f8a06b60016d1bc32","2","1","2025-07-23T08:54:54.820Z","","","","","","","","","","","AttribQ","","50","","","","","","","","","","","","","","","","","","","","","","","","","","","","",""
"2277","","<div style=""width:500px;"">
  <p>How much control did you have over the ball?</p>
  </div>","7","html-slider-response","61","910423","0.0-5.0-2.10","196","1","2025-07-23 08:39:45","1f75c3e559b7213887762d5229550c2b","93.39.137.212","Mozilla/5.0 (Windows NT 10.0; Win64; x64) AppleWebKit/537.36 (KHTML, like Gecko) Chrome/138.0.0.0 Safari/537.36","WebKit","Chrome","138.0.0.0","Windows","10.0","https://app.prolific.com/","it-IT,it;q=0.9,en-US;q=0.8,en;q=0.7","5daae19f8a06b60016d1bc32","683db9eb0562dbf637994deb","68809fc3d81a4f1449a23385","2","1","5daae19f8a06b60016d1bc32","2","1","2025-07-23T08:54:57.098Z","","","","","","","","","","","ControlQ","","50","","","","","","","","","","","","","","","","","","","","","","","","","","","","",""
"2155","","<div style=""width:500px;"">
  <p>How would you describe your current emotional state?</p>
  </div>","100","html-slider-response","62","912579","0.0-5.0-3.10","196","1","2025-07-23 08:39:45","1f75c3e559b7213887762d5229550c2b","93.39.137.212","Mozilla/5.0 (Windows NT 10.0; Win64; x64) AppleWebKit/537.36 (KHTML, like Gecko) Chrome/138.0.0.0 Safari/537.36","WebKit","Chrome","138.0.0.0","Windows","10.0","https://app.prolific.com/","it-IT,it;q=0.9,en-US;q=0.8,en;q=0.7","5daae19f8a06b60016d1bc32","683db9eb0562dbf637994deb","68809fc3d81a4f1449a23385","2","1","5daae19f8a06b60016d1bc32","2","1","2025-07-23T08:54:59.253Z","","","","","","","","","","","StressQ","","50","","","","","","","","","","","","","","","","","","","","","","","","","","","","",""
"2325","","<div style=""width:500px;"">
  <p>What best describes how you currently feel?</p>
  </div>","0","html-slider-response","63","914905","0.0-5.0-4.10","196","1","2025-07-23 08:39:45","1f75c3e559b7213887762d5229550c2b","93.39.137.212","Mozilla/5.0 (Windows NT 10.0; Win64; x64) AppleWebKit/537.36 (KHTML, like Gecko) Chrome/138.0.0.0 Safari/537.36","WebKit","Chrome","138.0.0.0","Windows","10.0","https://app.prolific.com/","it-IT,it;q=0.9,en-US;q=0.8,en;q=0.7","5daae19f8a06b60016d1bc32","683db9eb0562dbf637994deb","68809fc3d81a4f1449a23385","2","1","5daae19f8a06b60016d1bc32","2","1","2025-07-23T08:55:01.580Z","","","","","","","","","","","MotivationQ","","50","","","","","","","","","","","","","","","","","","","","","","","","","","","","",""
"","","","","ctl-task-cpt","64","946743","0.0-5.0-0.11","196","1","2025-07-23 08:39:45","1f75c3e559b7213887762d5229550c2b","93.39.137.212","Mozilla/5.0 (Windows NT 10.0; Win64; x64) AppleWebKit/537.36 (KHTML, like Gecko) Chrome/138.0.0.0 Safari/537.36","WebKit","Chrome","138.0.0.0","Windows","10.0","https://app.prolific.com/","it-IT,it;q=0.9,en-US;q=0.8,en;q=0.7","5daae19f8a06b60016d1bc32","683db9eb0562dbf637994deb","68809fc3d81a4f1449a23385","2","1","5daae19f8a06b60016d1bc32","2","1","2025-07-23T08:55:33.418Z","","","","","","","","","","","","","","win-only","2","g1:SE,g2:NW","0.6","12","0","916414.1","960.5","5965.4","28833.6","1","4","8","6","2","8","8","13","5","0.09848484848484848","1004.9","3000","1365","[""left"",""up""]","{""num_key_presses"":6,""num_perfect"":5,""num_errors"":0,""num_randdir"":1,""num_randdir_good_moves"":1,""num_whilered"":0,""num_whileblue"":0,""num_blue"":2,""num_good_moves"":6}","[417.57142857142856,414.47767857142856,0.1,417.57142857142856,414.47767857142856,100.3,417.57142857142856,414.47767857142856,200.4,417.57142857142856,414.47767857142856,306.9,417.57142857142856,414.47767857142856,407.2,417.57142857142856,414.47767857142856,509.2,417.57142857142856,414.47767857142856,614.2,180.57142857142856,221.47767857142856,717.3,59.57142857142857,83.47767857142857,821.5,54.57142857142857,74.47767857142857,929.5,54.57142857142857,73.47767857142857,1035.8,54.57142857142857,73.47767857142857,1135.8,54.57142857142857,73.47767857142857,1238.5,-144.42857142857144,167.47767857142856,1339.7,-164.42857142857144,182.47767857142856,1442.2,-164.42857142857144,182.47767857142856,1547,-164.42857142857144,182.47767857142856,1647.9,-164.42857142857144,182.47767857142856,1750.3,-164.42857142857144,182.47767857142856,1850.5,-164.42857142857144,182.47767857142856,1950.8,-164.42857142857144,182.47767857142856,2051,-164.42857142857144,182.47767857142856,2156.8,-164.42857142857144,182.47767857142856,2257.5,-164.42857142857144,182.47767857142856,2358.5,-164.42857142857144,182.47767857142856,2461.1,-164.42857142857144,182.47767857142856,2569.8,-164.42857142857144,182.47767857142856,2671.3,-164.42857142857144,182.47767857142856,2774.8,-164.42857142857144,182.47767857142856,2877.2,-164.42857142857144,182.47767857142856,2984.2,-164.42857142857144,182.47767857142856,3087,-164.42857142857144,182.47767857142856,3192.9,-164.42857142857144,182.47767857142856,3294.5,-164.42857142857144,182.47767857142856,3394.7,-164.42857142857144,182.47767857142856,3500.2,-164.42857142857144,182.47767857142856,3602.1,-164.42857142857144,182.47767857142856,3707,-164.42857142857144,182.47767857142856,3811.5,-164.42857142857144,182.47767857142856,3919.2,-164.42857142857144,182.47767857142856,4019.8,-164.42857142857144,182.47767857142856,4120.4,-164.42857142857144,182.47767857142856,4221.2,-164.42857142857144,182.47767857142856,4325.1,-164.42857142857144,182.47767857142856,4429.3,-164.42857142857144,182.47767857142856,4533,-164.42857142857144,182.47767857142856,4637.2,-164.42857142857144,182.47767857142856,4744.3,-164.42857142857144,182.47767857142856,4852.2,-164.42857142857144,182.47767857142856,4958.1]","[1307.1,1307.1,1000,0,307.1,""smooth"",""left"",""left"",""good_move"",4505.1,3197.4,2831.2,1307.7,366.2,""smooth"",""up"",""up"",""good_move"",10311.9,5806.4,2515.1,7419.5,377.3,""smooth"",""up"",""up"",""good_move"",13242.3,2929.9,2584.1,10312.4,345.8,""smooth"",""left"",""left"",""good_move"",16367.1,3124.3,2755.2,13242.8,369.1,""oops"",""left"",""up"",""good_move"",22756.8,6389.2,2123.4,20271,362.4,""smooth"",""left"",""left"",""good_move""]","",""
"2851","","<div style=""width:500px;"">
  <p>What determined the result of this run?</p>
  </div>","75","html-slider-response","65","949596","0.0-5.0-1.11","196","1","2025-07-23 08:39:45","1f75c3e559b7213887762d5229550c2b","93.39.137.212","Mozilla/5.0 (Windows NT 10.0; Win64; x64) AppleWebKit/537.36 (KHTML, like Gecko) Chrome/138.0.0.0 Safari/537.36","WebKit","Chrome","138.0.0.0","Windows","10.0","https://app.prolific.com/","it-IT,it;q=0.9,en-US;q=0.8,en;q=0.7","5daae19f8a06b60016d1bc32","683db9eb0562dbf637994deb","68809fc3d81a4f1449a23385","2","1","5daae19f8a06b60016d1bc32","2","1","2025-07-23T08:55:36.270Z","","","","","","","","","","","AttribQ","","50","","","","","","","","","","","","","","","","","","","","","","","","","","","","",""
"2195","","<div style=""width:500px;"">
  <p>How much control did you have over the ball?</p>
  </div>","77","html-slider-response","66","951792","0.0-5.0-2.11","196","1","2025-07-23 08:39:45","1f75c3e559b7213887762d5229550c2b","93.39.137.212","Mozilla/5.0 (Windows NT 10.0; Win64; x64) AppleWebKit/537.36 (KHTML, like Gecko) Chrome/138.0.0.0 Safari/537.36","WebKit","Chrome","138.0.0.0","Windows","10.0","https://app.prolific.com/","it-IT,it;q=0.9,en-US;q=0.8,en;q=0.7","5daae19f8a06b60016d1bc32","683db9eb0562dbf637994deb","68809fc3d81a4f1449a23385","2","1","5daae19f8a06b60016d1bc32","2","1","2025-07-23T08:55:38.466Z","","","","","","","","","","","ControlQ","","50","","","","","","","","","","","","","","","","","","","","","","","","","","","","",""
"2973","","<div style=""width:500px;"">
  <p>How would you describe your current emotional state?</p>
  </div>","100","html-slider-response","67","954765","0.0-5.0-3.11","196","1","2025-07-23 08:39:45","1f75c3e559b7213887762d5229550c2b","93.39.137.212","Mozilla/5.0 (Windows NT 10.0; Win64; x64) AppleWebKit/537.36 (KHTML, like Gecko) Chrome/138.0.0.0 Safari/537.36","WebKit","Chrome","138.0.0.0","Windows","10.0","https://app.prolific.com/","it-IT,it;q=0.9,en-US;q=0.8,en;q=0.7","5daae19f8a06b60016d1bc32","683db9eb0562dbf637994deb","68809fc3d81a4f1449a23385","2","1","5daae19f8a06b60016d1bc32","2","1","2025-07-23T08:55:41.439Z","","","","","","","","","","","StressQ","","50","","","","","","","","","","","","","","","","","","","","","","","","","","","","",""
"2540","","<div style=""width:500px;"">
  <p>What best describes how you currently feel?</p>
  </div>","0","html-slider-response","68","957306","0.0-5.0-4.11","196","1","2025-07-23 08:39:45","1f75c3e559b7213887762d5229550c2b","93.39.137.212","Mozilla/5.0 (Windows NT 10.0; Win64; x64) AppleWebKit/537.36 (KHTML, like Gecko) Chrome/138.0.0.0 Safari/537.36","WebKit","Chrome","138.0.0.0","Windows","10.0","https://app.prolific.com/","it-IT,it;q=0.9,en-US;q=0.8,en;q=0.7","5daae19f8a06b60016d1bc32","683db9eb0562dbf637994deb","68809fc3d81a4f1449a23385","2","1","5daae19f8a06b60016d1bc32","2","1","2025-07-23T08:55:43.981Z","","","","","","","","","","","MotivationQ","","50","","","","","","","","","","","","","","","","","","","","","","","","","","","","",""
"","","","","ctl-task-cpt","69","1004783","0.0-5.0-0.12","196","1","2025-07-23 08:39:45","1f75c3e559b7213887762d5229550c2b","93.39.137.212","Mozilla/5.0 (Windows NT 10.0; Win64; x64) AppleWebKit/537.36 (KHTML, like Gecko) Chrome/138.0.0.0 Safari/537.36","WebKit","Chrome","138.0.0.0","Windows","10.0","https://app.prolific.com/","it-IT,it;q=0.9,en-US;q=0.8,en;q=0.7","5daae19f8a06b60016d1bc32","683db9eb0562dbf637994deb","68809fc3d81a4f1449a23385","2","1","5daae19f8a06b60016d1bc32","2","1","2025-07-23T08:56:31.457Z","","","","","","","","","","","","","","win-only","0","g1:NW,g2:SE","0.7","13","0","958816.3","1307","6313","44456","1","4","8","6","2","-8","-9","4","13","0.030303030303030304","1002.9","3000","-2495","[""down"",""right""]","{""num_key_presses"":11,""num_perfect"":7,""num_errors"":1,""num_randdir"":3,""num_randdir_good_moves"":1,""num_whilered"":0,""num_whileblue"":1,""num_blue"":2,""num_good_moves"":8}","[416.57142857142856,420.47767857142856,0.2,416.57142857142856,420.47767857142856,102.9,416.57142857142856,420.47767857142856,204.8,416.57142857142856,420.47767857142856,311.7,416.57142857142856,420.47767857142856,414.5,416.57142857142856,420.47767857142856,521.4,416.57142857142856,420.47767857142856,626.7,676.5714285714286,657.4776785714286,736.5,784.5714285714286,785.4776785714286,838.6,805.5714285714286,796.4776785714286,940.5,806.5714285714286,796.4776785714286,1040.6,806.5714285714286,796.4776785714286,1145,806.5714285714286,796.4776785714286,1245.2,985.5714285714286,484.47767857142856,1353.1,1015.5714285714286,449.47767857142856,1456.6,1015.5714285714286,449.47767857142856,1559.7,1041.5714285714287,460.47767857142856,1669.7,1068.5714285714287,495.47767857142856,1772.5,1068.5714285714287,495.47767857142856,1874.2,1068.5714285714287,495.47767857142856,1978.4,1068.5714285714287,495.47767857142856,2080.7,1068.5714285714287,495.47767857142856,2188.5,1068.5714285714287,495.47767857142856,2289.9,1068.5714285714287,495.47767857142856,2401.1,1068.5714285714287,495.47767857142856,2506.4,1068.5714285714287,495.47767857142856,2608.2,1068.5714285714287,495.47767857142856,2712.4,1068.5714285714287,495.47767857142856,2819.4,1068.5714285714287,495.47767857142856,2923.5,1068.5714285714287,495.47767857142856,3024,1068.5714285714287,495.47767857142856,3124.4,1068.5714285714287,495.47767857142856,3229.1,1068.5714285714287,495.47767857142856,3333.7,1068.5714285714287,495.47767857142856,3436.4,1068.5714285714287,495.47767857142856,3538.9,1068.5714285714287,495.47767857142856,3639.2,1068.5714285714287,495.47767857142856,3745.8,1068.5714285714287,495.47767857142856,3847.4,1068.5714285714287,495.47767857142856,3948.7,1068.5714285714287,495.47767857142856,4052.8,1068.5714285714287,495.47767857142856,4154.7,1068.5714285714287,495.47767857142856,4263.8,1068.5714285714287,495.47767857142856,4365.7,1068.5714285714287,495.47767857142856,4470.6,1068.5714285714287,495.47767857142856,4572.9,1068.5714285714287,495.47767857142856,4672.9,1068.5714285714287,495.47767857142856,4776.1,1068.5714285714287,495.47767857142856,4876.9,1068.5714285714287,495.47767857142856,4981.3]","[1371.3,1371.3,1000,0,371.3,""smooth"",""down"",""down"",""good_move"",5011.6,3639.8,3322,1371.8,317.8,""smooth"",""right"",""right"",""good_move"",8734.8,3722.7,3421.4,5012.2,301.3,""smooth"",""down"",""down"",""good_move"",11707.7,2972.2,2638.4,8735.5,333.8,""while_blue"",""right"",""up"",""bad_move"",15083.7,3375.5,3043.3,11708.2,332.2,""oops"",""down"",""left"",""bad_move"",17879.3,2795.3,2462.9,15084,332.4,""smooth"",""down"",""down"",""good_move"",20707.9,2828.2,2529.2,17879.7,299,""oops"",""right"",""up"",""bad_move"",23914.5,3206.5,2860.7,20708.1,345.8,""smooth"",""right"",""right"",""good_move"",30514.8,6599.8,2154.1,27974.1,386.6,""smooth"",""down"",""down"",""good_move"",33071.9,2556.6,2244.5,30515.3,312.2,""oops"",""right"",""down"",""good_move"",35005.9,1933.8,1544.5,33072.2,389.3,""smooth"",""right"",""right"",""good_move""]","",""
"2651","","<div style=""width:500px;"">
  <p>What determined the result of this run?</p>
  </div>","0","html-slider-response","70","1007435","0.0-5.0-1.12","196","1","2025-07-23 08:39:45","1f75c3e559b7213887762d5229550c2b","93.39.137.212","Mozilla/5.0 (Windows NT 10.0; Win64; x64) AppleWebKit/537.36 (KHTML, like Gecko) Chrome/138.0.0.0 Safari/537.36","WebKit","Chrome","138.0.0.0","Windows","10.0","https://app.prolific.com/","it-IT,it;q=0.9,en-US;q=0.8,en;q=0.7","5daae19f8a06b60016d1bc32","683db9eb0562dbf637994deb","68809fc3d81a4f1449a23385","2","1","5daae19f8a06b60016d1bc32","2","1","2025-07-23T08:56:34.109Z","","","","","","","","","","","AttribQ","","50","","","","","","","","","","","","","","","","","","","","","","","","","","","","",""
"1987","","<div style=""width:500px;"">
  <p>How much control did you have over the ball?</p>
  </div>","7","html-slider-response","71","1009423","0.0-5.0-2.12","196","1","2025-07-23 08:39:45","1f75c3e559b7213887762d5229550c2b","93.39.137.212","Mozilla/5.0 (Windows NT 10.0; Win64; x64) AppleWebKit/537.36 (KHTML, like Gecko) Chrome/138.0.0.0 Safari/537.36","WebKit","Chrome","138.0.0.0","Windows","10.0","https://app.prolific.com/","it-IT,it;q=0.9,en-US;q=0.8,en;q=0.7","5daae19f8a06b60016d1bc32","683db9eb0562dbf637994deb","68809fc3d81a4f1449a23385","2","1","5daae19f8a06b60016d1bc32","2","1","2025-07-23T08:56:36.097Z","","","","","","","","","","","ControlQ","","50","","","","","","","","","","","","","","","","","","","","","","","","","","","","",""
"3059","","<div style=""width:500px;"">
  <p>How would you describe your current emotional state?</p>
  </div>","100","html-slider-response","72","1012484","0.0-5.0-3.12","196","1","2025-07-23 08:39:45","1f75c3e559b7213887762d5229550c2b","93.39.137.212","Mozilla/5.0 (Windows NT 10.0; Win64; x64) AppleWebKit/537.36 (KHTML, like Gecko) Chrome/138.0.0.0 Safari/537.36","WebKit","Chrome","138.0.0.0","Windows","10.0","https://app.prolific.com/","it-IT,it;q=0.9,en-US;q=0.8,en;q=0.7","5daae19f8a06b60016d1bc32","683db9eb0562dbf637994deb","68809fc3d81a4f1449a23385","2","1","5daae19f8a06b60016d1bc32","2","1","2025-07-23T08:56:39.158Z","","","","","","","","","","","StressQ","","50","","","","","","","","","","","","","","","","","","","","","","","","","","","","",""
"1993","","<div style=""width:500px;"">
  <p>What best describes how you currently feel?</p>
  </div>","0","html-slider-response","73","1014478","0.0-5.0-4.12","196","1","2025-07-23 08:39:45","1f75c3e559b7213887762d5229550c2b","93.39.137.212","Mozilla/5.0 (Windows NT 10.0; Win64; x64) AppleWebKit/537.36 (KHTML, like Gecko) Chrome/138.0.0.0 Safari/537.36","WebKit","Chrome","138.0.0.0","Windows","10.0","https://app.prolific.com/","it-IT,it;q=0.9,en-US;q=0.8,en;q=0.7","5daae19f8a06b60016d1bc32","683db9eb0562dbf637994deb","68809fc3d81a4f1449a23385","2","1","5daae19f8a06b60016d1bc32","2","1","2025-07-23T08:56:41.152Z","","","","","","","","","","","MotivationQ","","50","","","","","","","","","","","","","","","","","","","","","","","","","","","","",""
