"rt","response_timestamp","stimulus","response","trial_type","trial_index","time_elapsed","internal_node_id","run_id","condition","recorded_at","source_code_version","ip","user_agent","device","browser","browser_version","platform","platform_version","referer","accept_language","PROLIFIC_PID","STUDY_ID","SESSION_ID","WEEK","BATCH","prolific_id","week","batch","realtime","success","responses","item_order","radio_event_ids","radio_event_times","key_event_times","mouse_event_times","straightlining","zigzagging","honeypot","eventType","view_history","slider_start","which_type","canvas_config","goals_layout","control_level","trial_number","tutorial_trial_number","trial_start_time","phase1_start_time","phase2_start_time","phase3_start_time","goal_1_value","goal_1_distance","goal_2_value","goal_2_distance","goal_selected","outcome","outcome_total","participant_final_score","participant_initial_score","participant_final_score_prop","goal_choice_rt","allocated_time","allocated_time_remaining","goal_direction","counts","mouse_movements","key_presses","question_order","question_id"
"5843","1753881296573","<p style='font-size:40px;line-height:1.25'><strong>Welcome to the experiment!</strong></p><p style='font-size:1.1em;line-height:1.25'>Thank you for participanting in our experiment again! You will be asked to play the Dysfunctional Ball Game again. We will briefly recap the rules before we start.</p><p style='font-size:1.1em;line-height:1.25'>Press <strong>Next</strong> to continue.</p>","0","custom-html-button-response","0","5847","0.0-0.0","291","1","2025-07-30 13:14:49","1f75c3e559b7213887762d5229550c2b","148.252.147.68","Mozilla/5.0 (Windows NT 10.0; Win64; x64) AppleWebKit/537.36 (KHTML, like Gecko) Chrome/138.0.0.0 Safari/537.36 Edg/138.0.0.0","WebKit","Edge","138.0.0.0","Windows","10.0","https://app.prolific.com/","en-US,en;q=0.9,en-GB;q=0.8,ar;q=0.7,sq;q=0.6","676578b520552faa04a8ef83","6877631c9844ddd5501205fc","688a1abed6a5f721e1ccc87c","3","1","676578b520552faa04a8ef83","3","1","2025-07-30T13:14:56.575Z","","","","","","","","","","","","","","","","","","","","","","","","","","","","","","","","","","","","","","","","","",""
"1300","","","","fullscreen","1","8166","0.0-1.0","291","1","2025-07-30 13:14:49","1f75c3e559b7213887762d5229550c2b","148.252.147.68","Mozilla/5.0 (Windows NT 10.0; Win64; x64) AppleWebKit/537.36 (KHTML, like Gecko) Chrome/138.0.0.0 Safari/537.36 Edg/138.0.0.0","WebKit","Edge","138.0.0.0","Windows","10.0","https://app.prolific.com/","en-US,en;q=0.9,en-GB;q=0.8,ar;q=0.7,sq;q=0.6","676578b520552faa04a8ef83","6877631c9844ddd5501205fc","688a1abed6a5f721e1ccc87c","3","1","676578b520552faa04a8ef83","3","1","","true","","","","","","","","","","","","","","","","","","","","","","","","","","","","","","","","","","","","","","","","",""
"1665","1753881300558","<p style='font-size:1.1em;line-height:1.25'>In the following, we will ask you a few questions relating to your feelings in the last 24 hours.<br></p><p style='font-size:1.1em;line-height:1.25'>Press the <strong>Next</strong> button to continue.</p>","0","custom-html-button-response","2","9832","0.0-2.0-0.0","291","1","2025-07-30 13:14:49","1f75c3e559b7213887762d5229550c2b","148.252.147.68","Mozilla/5.0 (Windows NT 10.0; Win64; x64) AppleWebKit/537.36 (KHTML, like Gecko) Chrome/138.0.0.0 Safari/537.36 Edg/138.0.0.0","WebKit","Edge","138.0.0.0","Windows","10.0","https://app.prolific.com/","en-US,en;q=0.9,en-GB;q=0.8,ar;q=0.7,sq;q=0.6","676578b520552faa04a8ef83","6877631c9844ddd5501205fc","688a1abed6a5f721e1ccc87c","3","1","676578b520552faa04a8ef83","3","1","2025-07-30T13:15:00.559Z","","","","","","","","","","","","","","","","","","","","","","","","","","","","","","","","","","","","","","","","","",""
"76137.5","","","","survey-template","3","85974","0.0-2.0-1.0","291","1","2025-07-30 13:14:49","1f75c3e559b7213887762d5229550c2b","148.252.147.68","Mozilla/5.0 (Windows NT 10.0; Win64; x64) AppleWebKit/537.36 (KHTML, like Gecko) Chrome/138.0.0.0 Safari/537.36 Edg/138.0.0.0","WebKit","Edge","138.0.0.0","Windows","10.0","https://app.prolific.com/","en-US,en;q=0.9,en-GB;q=0.8,ar;q=0.7,sq;q=0.6","676578b520552faa04a8ef83","6877631c9844ddd5501205fc","688a1abed6a5f721e1ccc87c","3","1","676578b520552faa04a8ef83","3","1","2025-07-30T13:16:16.702Z","","{""Q01"":""5"",""Q02"":""4"",""Q03"":""4"",""Q04"":""5"",""Q05"":""5"",""Q06"":""5"",""Q07"":""5"",""Q08"":""5"",""Q09"":""5"",""Q10"":""5"",""Q11"":""5"",""Q12"":""0"",""Q13"":""5"",""Q14"":""0"",""Q15"":""5"",""Q16"":""5"",""Q17"":""5"",""Q18"":""2"",""Q19"":""4"",""Q20"":""5"",""Q21"":""5"",""Q22"":""5""}","[0,1,2,3,4,5,6,7,8,9,10,11,12,13,14,15,16,17,18,19,20,21]","[""Q01"",""Q02"",""Q03"",""Q04"",""Q05"",""Q06"",""Q07"",""Q08"",""Q09"",""Q10"",""Q11"",""Q12"",""Q13"",""Q14"",""Q15"",""Q16"",""Q17"",""Q18"",""Q19"",""Q19"",""Q20"",""Q21"",""Q22""]","[6146.20000000298,7292.70000000298,9406.79999999702,12041.20000000298,16510.29999999702,19504.20000000298,21302.20000000298,23105,27207,29388.20000000298,30840.79999999702,35634.70000000298,37957.29999999702,40136.20000000298,43437.70000000298,45873.39999999106,48338.79999999702,50819.59999999404,64383.59999999404,65666,69178.39999999106,72418,75183.89999999106]","[]","[0.20000000298023224,5072.5,6146.20000000298,7292.70000000298,9406.79999999702,11084.09999999404,12041.20000000298,16510.29999999702,19504.20000000298,21302.20000000298,23105,27207,29388.20000000298,30840.79999999702,34390.09999999404,35634.70000000298,37957.29999999702,40136.20000000298,43437.70000000298,45873.39999999106,48338.79999999702,50819.59999999404,64383.59999999404,65666,69178.39999999106,71635.89999999106,72418,75183.89999999106,76134]","0.7272727272727273","0.3333333333333333","0","drsp","","","","","","","","","","","","","","","","","","","","","","","","","","","","","","",""
"13240.40000000596","","","","survey-template","4","99218","0.0-2.0-2.0","291","1","2025-07-30 13:14:49","1f75c3e559b7213887762d5229550c2b","148.252.147.68","Mozilla/5.0 (Windows NT 10.0; Win64; x64) AppleWebKit/537.36 (KHTML, like Gecko) Chrome/138.0.0.0 Safari/537.36 Edg/138.0.0.0","WebKit","Edge","138.0.0.0","Windows","10.0","https://app.prolific.com/","en-US,en;q=0.9,en-GB;q=0.8,ar;q=0.7,sq;q=0.6","676578b520552faa04a8ef83","6877631c9844ddd5501205fc","688a1abed6a5f721e1ccc87c","3","1","676578b520552faa04a8ef83","3","1","2025-07-30T13:16:29.945Z","","{""Q01"":""5"",""Q02"":""5"",""Q03"":""3""}","[0,1,2]","[""Q01"",""Q02"",""Q03""]","[4134.4000000059605,7926.800000011921,12274.5]","[]","[4134.4000000059605,7926.800000011921,11621,12274.5,13239.5]","0.3333333333333333","0.5","0","stress","","","","","","","","","","","","","","","","","","","","","","","","","","","","","","",""
"3231","","","","instructions","5","102451","0.0-3.0-0.0","291","1","2025-07-30 13:14:49","1f75c3e559b7213887762d5229550c2b","148.252.147.68","Mozilla/5.0 (Windows NT 10.0; Win64; x64) AppleWebKit/537.36 (KHTML, like Gecko) Chrome/138.0.0.0 Safari/537.36 Edg/138.0.0.0","WebKit","Edge","138.0.0.0","Windows","10.0","https://app.prolific.com/","en-US,en;q=0.9,en-GB;q=0.8,ar;q=0.7,sq;q=0.6","676578b520552faa04a8ef83","6877631c9844ddd5501205fc","688a1abed6a5f721e1ccc87c","3","1","676578b520552faa04a8ef83","3","1","","","","","","","","","","","","","[{""page_index"":0,""viewing_time"":3230}]","","","","","","","","","","","","","","","","","","","","","","","","","","","","","",""
"3630","","<p>Before you start with this game please answer the following three questions yourself. </p>
  <p>Through this game, we measure several aspects of your cognitive performance, such as reaction times, multi-tasking capabilities </p>
  <p>and the ability to assess the situation you are in.</p>
  <p></p>
  <p><b>How good do you usually are in such tasks?</b></p>","14","html-slider-response","6","106083","0.0-4.0-0.0","291","1","2025-07-30 13:14:49","1f75c3e559b7213887762d5229550c2b","148.252.147.68","Mozilla/5.0 (Windows NT 10.0; Win64; x64) AppleWebKit/537.36 (KHTML, like Gecko) Chrome/138.0.0.0 Safari/537.36 Edg/138.0.0.0","WebKit","Edge","138.0.0.0","Windows","10.0","https://app.prolific.com/","en-US,en;q=0.9,en-GB;q=0.8,ar;q=0.7,sq;q=0.6","676578b520552faa04a8ef83","6877631c9844ddd5501205fc","688a1abed6a5f721e1ccc87c","3","1","676578b520552faa04a8ef83","3","1","2025-07-30T13:16:36.810Z","","","","","","","","","","","PreSkillQ","","50","","","","","","","","","","","","","","","","","","","","","","","","","","","","",""
"2847","","<div style=""width:500px;"">
  <p>How well do you think you will perform in this task compared to other participants?</p>
  </div>","14","html-slider-response","7","108932","0.0-4.0-1.0","291","1","2025-07-30 13:14:49","1f75c3e559b7213887762d5229550c2b","148.252.147.68","Mozilla/5.0 (Windows NT 10.0; Win64; x64) AppleWebKit/537.36 (KHTML, like Gecko) Chrome/138.0.0.0 Safari/537.36 Edg/138.0.0.0","WebKit","Edge","138.0.0.0","Windows","10.0","https://app.prolific.com/","en-US,en;q=0.9,en-GB;q=0.8,ar;q=0.7,sq;q=0.6","676578b520552faa04a8ef83","6877631c9844ddd5501205fc","688a1abed6a5f721e1ccc87c","3","1","676578b520552faa04a8ef83","3","1","2025-07-30T13:16:39.659Z","","","","","","","","","","","PrePerfQ","","50","","","","","","","","","","","","","","","","","","","","","","","","","","","","",""
"4115","","<div style=""width:500px;"">
  <p>What best describes how you currently feel?</p>
  </div>","8","html-slider-response","8","113048","0.0-4.0-2.0","291","1","2025-07-30 13:14:49","1f75c3e559b7213887762d5229550c2b","148.252.147.68","Mozilla/5.0 (Windows NT 10.0; Win64; x64) AppleWebKit/537.36 (KHTML, like Gecko) Chrome/138.0.0.0 Safari/537.36 Edg/138.0.0.0","WebKit","Edge","138.0.0.0","Windows","10.0","https://app.prolific.com/","en-US,en;q=0.9,en-GB;q=0.8,ar;q=0.7,sq;q=0.6","676578b520552faa04a8ef83","6877631c9844ddd5501205fc","688a1abed6a5f721e1ccc87c","3","1","676578b520552faa04a8ef83","3","1","2025-07-30T13:16:43.775Z","","","","","","","","","","","PreMotivationQ","","50","","","","","","","","","","","","","","","","","","","","","","","","","","","","",""
"","","","","ctl-task-cpt","9","151596","0.0-5.0-0.0","291","1","2025-07-30 13:14:49","1f75c3e559b7213887762d5229550c2b","148.252.147.68","Mozilla/5.0 (Windows NT 10.0; Win64; x64) AppleWebKit/537.36 (KHTML, like Gecko) Chrome/138.0.0.0 Safari/537.36 Edg/138.0.0.0","WebKit","Edge","138.0.0.0","Windows","10.0","https://app.prolific.com/","en-US,en;q=0.9,en-GB;q=0.8,ar;q=0.7,sq;q=0.6","676578b520552faa04a8ef83","6877631c9844ddd5501205fc","688a1abed6a5f721e1ccc87c","3","1","676578b520552faa04a8ef83","3","1","2025-07-30T13:17:22.324Z","","","","","","","","","","","","","","win-only","1","g1:NE,g2:SW","1","1","0","120675.8","2584.5","7587.3","35535.4","1","4","4","6","2","4","2","2","0","0.015151515151515152","1975.3","3000","610","[""down"",""left""]","{""num_key_presses"":10,""num_perfect"":8,""num_errors"":2,""num_randdir"":0,""num_randdir_good_moves"":0,""num_whilered"":0,""num_whileblue"":2,""num_blue"":2,""num_good_moves"":8}","[415.07142857142856,414.6808016640799,0.1,415.07142857142856,414.6808016640799,102.7,415.07142857142856,414.6808016640799,202.8,415.07142857142856,414.6808016640799,302.9,415.07142857142856,414.6808016640799,409.9,415.07142857142856,414.6808016640799,509.9,415.07142857142856,414.6808016640799,616.3,415.07142857142856,414.6808016640799,724.3,415.07142857142856,414.6808016640799,824.8,415.07142857142856,414.6808016640799,924.8,415.07142857142856,414.6808016640799,1032.9,415.07142857142856,414.6808016640799,1136.8,328.07142857142856,543.6808016640799,1243.4,131.57142857142856,704.1808016640799,1349.1,109.07142857142857,680.1808016640799,1453.5,127.07142857142857,668.1808016640799,1561.5,109.07142857142857,707.1808016640799,1670.2,67.07142857142857,741.6808016640799,1771.9,65.57142857142857,749.1808016640799,1872.7,65.57142857142857,749.1808016640799,2011.6,65.57142857142857,749.1808016640799,2116,65.57142857142857,749.1808016640799,2216.9,65.57142857142857,749.1808016640799,2323.1,65.57142857142857,749.1808016640799,2429.5,65.57142857142857,749.1808016640799,2537.1,65.57142857142857,749.1808016640799,2645.9,65.57142857142857,749.1808016640799,2746,65.57142857142857,749.1808016640799,2852.4,65.57142857142857,749.1808016640799,2960.9,65.57142857142857,749.1808016640799,3067.5,65.57142857142857,749.1808016640799,3169.2,65.57142857142857,749.1808016640799,3271.1,65.57142857142857,749.1808016640799,3376.8,65.57142857142857,749.1808016640799,3484.3,65.57142857142857,749.1808016640799,3584.6,65.57142857142857,749.1808016640799,3692.6,65.57142857142857,749.1808016640799,3793.1,65.57142857142857,749.1808016640799,3896.9,65.57142857142857,749.1808016640799,4000.9,65.57142857142857,749.1808016640799,4103,65.57142857142857,749.1808016640799,4203.6,65.57142857142857,749.1808016640799,4307.6,65.57142857142857,749.1808016640799,4414.2,65.57142857142857,749.1808016640799,4515.8,65.57142857142857,749.1808016640799,4615.9,65.57142857142857,749.1808016640799,4722.6,65.57142857142857,749.1808016640799,4830.6,65.57142857142857,749.1808016640799,4931.8]","[1465.4,1465.4,1000,0,465.4,""smooth"",""down"",""down"",""good_move"",4405.1,2939.2,2589.3,1466,349.8,""smooth"",""down"",""down"",""good_move"",7387.2,2981.6,2652.2,4405.6,329.4,""while_blue"",""down"",""right"",""bad_move"",10419.6,3032,2648.6,7387.6,383.4,""smooth"",""down"",""down"",""good_move"",12937.8,2518,2163,10419.8,355,""while_blue"",""left"",""right"",""bad_move"",15989.8,3051.9,2712.1,12938,339.8,""smooth"",""left"",""left"",""good_move"",18701.1,2710.8,2336.6,15990.3,374.2,""smooth"",""left"",""left"",""good_move"",21336.4,2635,2061.1,18701.4,574,""smooth"",""left"",""left"",""good_move"",25048.2,3711.5,3198.8,21336.8,512.6,""smooth"",""left"",""left"",""good_move"",27826.2,2777.6,2384.9,25048.6,392.7,""smooth"",""left"",""left"",""good_move""]","",""
"5820","","<div style=""width:500px;"">
  <p>What determined the result of this run?</p>
  </div>","27","html-slider-response","10","157418","0.0-5.0-1.0","291","1","2025-07-30 13:14:49","1f75c3e559b7213887762d5229550c2b","148.252.147.68","Mozilla/5.0 (Windows NT 10.0; Win64; x64) AppleWebKit/537.36 (KHTML, like Gecko) Chrome/138.0.0.0 Safari/537.36 Edg/138.0.0.0","WebKit","Edge","138.0.0.0","Windows","10.0","https://app.prolific.com/","en-US,en;q=0.9,en-GB;q=0.8,ar;q=0.7,sq;q=0.6","676578b520552faa04a8ef83","6877631c9844ddd5501205fc","688a1abed6a5f721e1ccc87c","3","1","676578b520552faa04a8ef83","3","1","2025-07-30T13:17:28.145Z","","","","","","","","","","","AttribQ","","50","","","","","","","","","","","","","","","","","","","","","","","","","","","","",""
"5943","","<div style=""width:500px;"">
  <p>How much control did you have over the ball?</p>
  </div>","100","html-slider-response","11","163362","0.0-5.0-2.0","291","1","2025-07-30 13:14:49","1f75c3e559b7213887762d5229550c2b","148.252.147.68","Mozilla/5.0 (Windows NT 10.0; Win64; x64) AppleWebKit/537.36 (KHTML, like Gecko) Chrome/138.0.0.0 Safari/537.36 Edg/138.0.0.0","WebKit","Edge","138.0.0.0","Windows","10.0","https://app.prolific.com/","en-US,en;q=0.9,en-GB;q=0.8,ar;q=0.7,sq;q=0.6","676578b520552faa04a8ef83","6877631c9844ddd5501205fc","688a1abed6a5f721e1ccc87c","3","1","676578b520552faa04a8ef83","3","1","2025-07-30T13:17:34.089Z","","","","","","","","","","","ControlQ","","50","","","","","","","","","","","","","","","","","","","","","","","","","","","","",""
"4532","","<div style=""width:500px;"">
  <p>How would you describe your current emotional state?</p>
  </div>","100","html-slider-response","12","167896","0.0-5.0-3.0","291","1","2025-07-30 13:14:49","1f75c3e559b7213887762d5229550c2b","148.252.147.68","Mozilla/5.0 (Windows NT 10.0; Win64; x64) AppleWebKit/537.36 (KHTML, like Gecko) Chrome/138.0.0.0 Safari/537.36 Edg/138.0.0.0","WebKit","Edge","138.0.0.0","Windows","10.0","https://app.prolific.com/","en-US,en;q=0.9,en-GB;q=0.8,ar;q=0.7,sq;q=0.6","676578b520552faa04a8ef83","6877631c9844ddd5501205fc","688a1abed6a5f721e1ccc87c","3","1","676578b520552faa04a8ef83","3","1","2025-07-30T13:17:38.623Z","","","","","","","","","","","StressQ","","50","","","","","","","","","","","","","","","","","","","","","","","","","","","","",""
"3097","","<div style=""width:500px;"">
  <p>What best describes how you currently feel?</p>
  </div>","0","html-slider-response","13","170995","0.0-5.0-4.0","291","1","2025-07-30 13:14:49","1f75c3e559b7213887762d5229550c2b","148.252.147.68","Mozilla/5.0 (Windows NT 10.0; Win64; x64) AppleWebKit/537.36 (KHTML, like Gecko) Chrome/138.0.0.0 Safari/537.36 Edg/138.0.0.0","WebKit","Edge","138.0.0.0","Windows","10.0","https://app.prolific.com/","en-US,en;q=0.9,en-GB;q=0.8,ar;q=0.7,sq;q=0.6","676578b520552faa04a8ef83","6877631c9844ddd5501205fc","688a1abed6a5f721e1ccc87c","3","1","676578b520552faa04a8ef83","3","1","2025-07-30T13:17:41.722Z","","","","","","","","","","","MotivationQ","","50","","","","","","","","","","","","","","","","","","","","","","","","","","","","",""
"","","","","ctl-task-cpt","14","190662","0.0-5.0-0.1","291","1","2025-07-30 13:14:49","1f75c3e559b7213887762d5229550c2b","148.252.147.68","Mozilla/5.0 (Windows NT 10.0; Win64; x64) AppleWebKit/537.36 (KHTML, like Gecko) Chrome/138.0.0.0 Safari/537.36 Edg/138.0.0.0","WebKit","Edge","138.0.0.0","Windows","10.0","https://app.prolific.com/","en-US,en;q=0.9,en-GB;q=0.8,ar;q=0.7,sq;q=0.6","676578b520552faa04a8ef83","6877631c9844ddd5501205fc","688a1abed6a5f721e1ccc87c","3","1","676578b520552faa04a8ef83","3","1","2025-07-30T13:18:01.389Z","","","","","","","","","","","","","","win-only","1","g1:NE,g2:SW","0.9","2","0","178621","1605.6","6607.1","16660.8","1","4","8","6","1","1","1","3","2","0.022727272727272728","1720.5","3000","1690","[""up"",""right""]","{""num_key_presses"":4,""num_perfect"":4,""num_errors"":0,""num_randdir"":0,""num_randdir_good_moves"":0,""num_whilered"":0,""num_whileblue"":0,""num_blue"":0,""num_good_moves"":4}","[413.57142857142856,422.1808016640799,0.4,413.57142857142856,422.1808016640799,104.6,413.57142857142856,422.1808016640799,213,413.57142857142856,422.1808016640799,321.4,413.57142857142856,422.1808016640799,428.5,413.57142857142856,422.1808016640799,534.5,413.57142857142856,422.1808016640799,639.3,413.57142857142856,422.1808016640799,742.1,413.57142857142856,422.1808016640799,846,407.57142857142856,422.1808016640799,946.2,574.0714285714286,231.68080166407992,1048.5,623.5714285714286,206.18080166407992,1151,626.5714285714286,206.18080166407992,1254.8,674.5714285714286,146.18080166407992,1361.9,721.0714285714286,102.68080166407994,1463.3,721.0714285714286,102.68080166407994,1570.8,721.0714285714286,102.68080166407994,1679.7,721.0714285714286,102.68080166407994,1781.2,721.0714285714286,102.68080166407994,1889.6,721.0714285714286,102.68080166407994,1997.9,721.0714285714286,102.68080166407994,2098.7,721.0714285714286,102.68080166407994,2204.2,721.0714285714286,102.68080166407994,2312.8,721.0714285714286,102.68080166407994,2415.9,721.0714285714286,102.68080166407994,2526.8,721.0714285714286,102.68080166407994,2632.5,721.0714285714286,102.68080166407994,2740.5,721.0714285714286,102.68080166407994,2846.1,721.0714285714286,102.68080166407994,2954,721.0714285714286,102.68080166407994,3062.6,721.0714285714286,102.68080166407994,3169,721.0714285714286,102.68080166407994,3271.2,721.0714285714286,102.68080166407994,3372.2,721.0714285714286,102.68080166407994,3476.2,721.0714285714286,102.68080166407994,3580.1,721.0714285714286,102.68080166407994,3680.5,721.0714285714286,102.68080166407994,3791.1,721.0714285714286,102.68080166407994,3897.5,721.0714285714286,102.68080166407994,4001,721.0714285714286,102.68080166407994,4104.4,721.0714285714286,102.68080166407994,4206.3,721.0714285714286,102.68080166407994,4307.9,721.0714285714286,102.68080166407994,4413.4,721.0714285714286,102.68080166407994,4516.9,721.0714285714286,102.68080166407994,4624.3,721.0714285714286,102.68080166407994,4726.8,721.0714285714286,102.68080166407994,4834.2,721.0714285714286,102.68080166407994,4940.8]","[1589.2,1589.2,1000,0,589.2,""smooth"",""up"",""up"",""good_move"",4903.2,3313.5,2800.1,1589.7,513.4,""smooth"",""up"",""up"",""good_move"",7592.7,2689.2,2345.6,4903.5,343.6,""smooth"",""right"",""right"",""good_move"",9925.4,2332.2,1964,7593.2,368.2,""smooth"",""right"",""right"",""good_move""]","",""
"3414","","<div style=""width:500px;"">
  <p>What determined the result of this run?</p>
  </div>","26","html-slider-response","15","194077","0.0-5.0-1.1","291","1","2025-07-30 13:14:49","1f75c3e559b7213887762d5229550c2b","148.252.147.68","Mozilla/5.0 (Windows NT 10.0; Win64; x64) AppleWebKit/537.36 (KHTML, like Gecko) Chrome/138.0.0.0 Safari/537.36 Edg/138.0.0.0","WebKit","Edge","138.0.0.0","Windows","10.0","https://app.prolific.com/","en-US,en;q=0.9,en-GB;q=0.8,ar;q=0.7,sq;q=0.6","676578b520552faa04a8ef83","6877631c9844ddd5501205fc","688a1abed6a5f721e1ccc87c","3","1","676578b520552faa04a8ef83","3","1","2025-07-30T13:18:04.804Z","","","","","","","","","","","AttribQ","","50","","","","","","","","","","","","","","","","","","","","","","","","","","","","",""
"6272","","<div style=""width:500px;"">
  <p>How much control did you have over the ball?</p>
  </div>","100","html-slider-response","16","200353","0.0-5.0-2.1","291","1","2025-07-30 13:14:49","1f75c3e559b7213887762d5229550c2b","148.252.147.68","Mozilla/5.0 (Windows NT 10.0; Win64; x64) AppleWebKit/537.36 (KHTML, like Gecko) Chrome/138.0.0.0 Safari/537.36 Edg/138.0.0.0","WebKit","Edge","138.0.0.0","Windows","10.0","https://app.prolific.com/","en-US,en;q=0.9,en-GB;q=0.8,ar;q=0.7,sq;q=0.6","676578b520552faa04a8ef83","6877631c9844ddd5501205fc","688a1abed6a5f721e1ccc87c","3","1","676578b520552faa04a8ef83","3","1","2025-07-30T13:18:11.080Z","","","","","","","","","","","ControlQ","","50","","","","","","","","","","","","","","","","","","","","","","","","","","","","",""
"4900","","<div style=""width:500px;"">
  <p>How would you describe your current emotional state?</p>
  </div>","100","html-slider-response","17","205254","0.0-5.0-3.1","291","1","2025-07-30 13:14:49","1f75c3e559b7213887762d5229550c2b","148.252.147.68","Mozilla/5.0 (Windows NT 10.0; Win64; x64) AppleWebKit/537.36 (KHTML, like Gecko) Chrome/138.0.0.0 Safari/537.36 Edg/138.0.0.0","WebKit","Edge","138.0.0.0","Windows","10.0","https://app.prolific.com/","en-US,en;q=0.9,en-GB;q=0.8,ar;q=0.7,sq;q=0.6","676578b520552faa04a8ef83","6877631c9844ddd5501205fc","688a1abed6a5f721e1ccc87c","3","1","676578b520552faa04a8ef83","3","1","2025-07-30T13:18:15.982Z","","","","","","","","","","","StressQ","","50","","","","","","","","","","","","","","","","","","","","","","","","","","","","",""
"3622","","<div style=""width:500px;"">
  <p>What best describes how you currently feel?</p>
  </div>","0","html-slider-response","18","208879","0.0-5.0-4.1","291","1","2025-07-30 13:14:49","1f75c3e559b7213887762d5229550c2b","148.252.147.68","Mozilla/5.0 (Windows NT 10.0; Win64; x64) AppleWebKit/537.36 (KHTML, like Gecko) Chrome/138.0.0.0 Safari/537.36 Edg/138.0.0.0","WebKit","Edge","138.0.0.0","Windows","10.0","https://app.prolific.com/","en-US,en;q=0.9,en-GB;q=0.8,ar;q=0.7,sq;q=0.6","676578b520552faa04a8ef83","6877631c9844ddd5501205fc","688a1abed6a5f721e1ccc87c","3","1","676578b520552faa04a8ef83","3","1","2025-07-30T13:18:19.606Z","","","","","","","","","","","MotivationQ","","50","","","","","","","","","","","","","","","","","","","","","","","","","","","","",""
"","","","","ctl-task-cpt","19","242813","0.0-5.0-0.2","291","1","2025-07-30 13:14:49","1f75c3e559b7213887762d5229550c2b","148.252.147.68","Mozilla/5.0 (Windows NT 10.0; Win64; x64) AppleWebKit/537.36 (KHTML, like Gecko) Chrome/138.0.0.0 Safari/537.36 Edg/138.0.0.0","WebKit","Edge","138.0.0.0","Windows","10.0","https://app.prolific.com/","en-US,en;q=0.9,en-GB;q=0.8,ar;q=0.7,sq;q=0.6","676578b520552faa04a8ef83","6877631c9844ddd5501205fc","688a1abed6a5f721e1ccc87c","3","1","676578b520552faa04a8ef83","3","1","2025-07-30T13:18:53.540Z","","","","","","","","","","","","","","win-only","3","g1:SW,g2:NE","0.8","3","0","216506","1836.5","6842.6","30924.1","1","4","4","6","1","1","0","3","3","0.022727272727272728","2035.2","3000","800","[""down"",""left""]","{""num_key_presses"":8,""num_perfect"":6,""num_errors"":1,""num_randdir"":1,""num_randdir_good_moves"":0,""num_whilered"":0,""num_whileblue"":1,""num_blue"":1,""num_good_moves"":6}","[415.07142857142856,419.1808016640799,0.3,415.07142857142856,419.1808016640799,107.8,415.07142857142856,419.1808016640799,214.3,415.07142857142856,419.1808016640799,319.5,415.07142857142856,419.1808016640799,421.1,415.07142857142856,419.1808016640799,525.2,415.07142857142856,419.1808016640799,630.3,415.07142857142856,419.1808016640799,734.6,415.07142857142856,419.1808016640799,838.7,415.07142857142856,419.1808016640799,946.4,415.07142857142856,419.1808016640799,1047.4,415.07142857142856,419.1808016640799,1154.5,415.07142857142856,419.1808016640799,1259.5,415.07142857142856,419.1808016640799,1360.2,317.57142857142856,467.1808016640799,1470.5,167.57142857142856,579.6808016640799,1577.6,77.57142857142857,638.1808016640799,1684.8,70.07142857142857,678.6808016640799,1791.7,55.07142857142857,749.1808016640799,1900.2,55.07142857142857,749.1808016640799,2008.3,55.07142857142857,749.1808016640799,2113.7,55.07142857142857,749.1808016640799,2214.3,55.07142857142857,749.1808016640799,2314.7,55.07142857142857,749.1808016640799,2421.7,55.07142857142857,749.1808016640799,2523.2,55.07142857142857,749.1808016640799,2625.1,55.07142857142857,749.1808016640799,2731.7,55.07142857142857,749.1808016640799,2834.9,55.07142857142857,749.1808016640799,2942.3,55.07142857142857,749.1808016640799,3043.1,55.07142857142857,749.1808016640799,3149.4,55.07142857142857,749.1808016640799,3250.5,55.07142857142857,749.1808016640799,3354.1,55.07142857142857,749.1808016640799,3457.8,55.07142857142857,749.1808016640799,3558.4,55.07142857142857,749.1808016640799,3660.1,55.07142857142857,749.1808016640799,3760.8,55.07142857142857,749.1808016640799,3871.9,55.07142857142857,749.1808016640799,3972,55.07142857142857,749.1808016640799,4079.1,55.07142857142857,749.1808016640799,4186.1,55.07142857142857,749.1808016640799,4288,55.07142857142857,749.1808016640799,4390.6,55.07142857142857,749.1808016640799,4490.9,55.07142857142857,749.1808016640799,4592.5,55.07142857142857,749.1808016640799,4699.3,55.07142857142857,749.1808016640799,4800.4,55.07142857142857,749.1808016640799,4906.8]","[1638.2,1638.2,1000,0,638.2,""smooth"",""down"",""down"",""good_move"",5010.7,3372,2949.9,1638.8,422.1,""smooth"",""down"",""down"",""good_move"",7662.4,2651,2309,5011.4,342,""oops"",""left"",""up"",""bad_move"",11126.3,3463.3,2999.2,7663,464.1,""smooth"",""left"",""left"",""good_move"",14156.9,3029.9,2619.8,11127,410.1,""smooth"",""left"",""left"",""good_move"",17810.1,3652.9,3292,14157.2,360.9,""while_blue"",""down"",""up"",""bad_move"",20849.5,3039,2511.5,17810.5,527.5,""smooth"",""down"",""down"",""good_move"",23948.7,3098.9,2751.4,20849.8,347.5,""smooth"",""down"",""down"",""good_move""]","",""
"3610","","<div style=""width:500px;"">
  <p>What determined the result of this run?</p>
  </div>","12","html-slider-response","20","246424","0.0-5.0-1.2","291","1","2025-07-30 13:14:49","1f75c3e559b7213887762d5229550c2b","148.252.147.68","Mozilla/5.0 (Windows NT 10.0; Win64; x64) AppleWebKit/537.36 (KHTML, like Gecko) Chrome/138.0.0.0 Safari/537.36 Edg/138.0.0.0","WebKit","Edge","138.0.0.0","Windows","10.0","https://app.prolific.com/","en-US,en;q=0.9,en-GB;q=0.8,ar;q=0.7,sq;q=0.6","676578b520552faa04a8ef83","6877631c9844ddd5501205fc","688a1abed6a5f721e1ccc87c","3","1","676578b520552faa04a8ef83","3","1","2025-07-30T13:18:57.151Z","","","","","","","","","","","AttribQ","","50","","","","","","","","","","","","","","","","","","","","","","","","","","","","",""
"4116","","<div style=""width:500px;"">
  <p>How much control did you have over the ball?</p>
  </div>","91","html-slider-response","21","250542","0.0-5.0-2.2","291","1","2025-07-30 13:14:49","1f75c3e559b7213887762d5229550c2b","148.252.147.68","Mozilla/5.0 (Windows NT 10.0; Win64; x64) AppleWebKit/537.36 (KHTML, like Gecko) Chrome/138.0.0.0 Safari/537.36 Edg/138.0.0.0","WebKit","Edge","138.0.0.0","Windows","10.0","https://app.prolific.com/","en-US,en;q=0.9,en-GB;q=0.8,ar;q=0.7,sq;q=0.6","676578b520552faa04a8ef83","6877631c9844ddd5501205fc","688a1abed6a5f721e1ccc87c","3","1","676578b520552faa04a8ef83","3","1","2025-07-30T13:19:01.269Z","","","","","","","","","","","ControlQ","","50","","","","","","","","","","","","","","","","","","","","","","","","","","","","",""
"3425","","<div style=""width:500px;"">
  <p>How would you describe your current emotional state?</p>
  </div>","98","html-slider-response","22","253968","0.0-5.0-3.2","291","1","2025-07-30 13:14:49","1f75c3e559b7213887762d5229550c2b","148.252.147.68","Mozilla/5.0 (Windows NT 10.0; Win64; x64) AppleWebKit/537.36 (KHTML, like Gecko) Chrome/138.0.0.0 Safari/537.36 Edg/138.0.0.0","WebKit","Edge","138.0.0.0","Windows","10.0","https://app.prolific.com/","en-US,en;q=0.9,en-GB;q=0.8,ar;q=0.7,sq;q=0.6","676578b520552faa04a8ef83","6877631c9844ddd5501205fc","688a1abed6a5f721e1ccc87c","3","1","676578b520552faa04a8ef83","3","1","2025-07-30T13:19:04.695Z","","","","","","","","","","","StressQ","","50","","","","","","","","","","","","","","","","","","","","","","","","","","","","",""
"2845","","<div style=""width:500px;"">
  <p>What best describes how you currently feel?</p>
  </div>","1","html-slider-response","23","256815","0.0-5.0-4.2","291","1","2025-07-30 13:14:49","1f75c3e559b7213887762d5229550c2b","148.252.147.68","Mozilla/5.0 (Windows NT 10.0; Win64; x64) AppleWebKit/537.36 (KHTML, like Gecko) Chrome/138.0.0.0 Safari/537.36 Edg/138.0.0.0","WebKit","Edge","138.0.0.0","Windows","10.0","https://app.prolific.com/","en-US,en;q=0.9,en-GB;q=0.8,ar;q=0.7,sq;q=0.6","676578b520552faa04a8ef83","6877631c9844ddd5501205fc","688a1abed6a5f721e1ccc87c","3","1","676578b520552faa04a8ef83","3","1","2025-07-30T13:19:07.542Z","","","","","","","","","","","MotivationQ","","50","","","","","","","","","","","","","","","","","","","","","","","","","","","","",""
"","","","","ctl-task-cpt","24","278344","0.0-5.0-0.3","291","1","2025-07-30 13:14:49","1f75c3e559b7213887762d5229550c2b","148.252.147.68","Mozilla/5.0 (Windows NT 10.0; Win64; x64) AppleWebKit/537.36 (KHTML, like Gecko) Chrome/138.0.0.0 Safari/537.36 Edg/138.0.0.0","WebKit","Edge","138.0.0.0","Windows","10.0","https://app.prolific.com/","en-US,en;q=0.9,en-GB;q=0.8,ar;q=0.7,sq;q=0.6","676578b520552faa04a8ef83","6877631c9844ddd5501205fc","688a1abed6a5f721e1ccc87c","3","1","676578b520552faa04a8ef83","3","1","2025-07-30T13:19:29.071Z","","","","","","","","","","","","","","win-only","0","g1:NW,g2:SE","0.7","4","0","264442.5","3127.8","8135","18521.9","1","4","8","6","1","1","1","4","3","0.030303030303030304","2046.6","3000","1850","[""left"",""up""]","{""num_key_presses"":4,""num_perfect"":3,""num_errors"":0,""num_randdir"":1,""num_randdir_good_moves"":1,""num_whilered"":0,""num_whileblue"":0,""num_blue"":0,""num_good_moves"":4}","[422.57142857142856,419.1808016640799,0.3,422.57142857142856,419.1808016640799,107.6,422.57142857142856,419.1808016640799,213.5,422.57142857142856,419.1808016640799,323.2,422.57142857142856,419.1808016640799,432.5,422.57142857142856,419.1808016640799,533.6,422.57142857142856,419.1808016640799,638.3,422.57142857142856,419.1808016640799,746.8,422.57142857142856,419.1808016640799,854,422.57142857142856,419.1808016640799,959.1,422.57142857142856,419.1808016640799,1064.6,422.57142857142856,419.1808016640799,1174.9,539.5714285714286,483.6808016640799,1282.3,541.0714285714286,462.6808016640799,1384.8,314.57142857142856,206.18080166407992,1488.7,118.07142857142857,26.180801664079937,1594.3,95.57142857142857,11.180801664079937,1697.4,76.07142857142857,8.180801664079937,1797.6,67.07142857142857,32.18080166407994,1897.6,67.07142857142857,32.18080166407994,1998.4,67.07142857142857,32.18080166407994,2106.6,67.07142857142857,32.18080166407994,2207.6,67.07142857142857,32.18080166407994,2307.8,67.07142857142857,32.18080166407994,2411.2,67.07142857142857,32.18080166407994,2514.1,67.07142857142857,32.18080166407994,2616.1,67.07142857142857,32.18080166407994,2722.9,67.07142857142857,32.18080166407994,2823.1,67.07142857142857,32.18080166407994,2924.4,67.07142857142857,32.18080166407994,3030.5,67.07142857142857,32.18080166407994,3137.6,67.07142857142857,32.18080166407994,3240,67.07142857142857,32.18080166407994,3347.2,67.07142857142857,32.18080166407994,3452.7,67.07142857142857,32.18080166407994,3562,67.07142857142857,32.18080166407994,3670.6,67.07142857142857,32.18080166407994,3771.8,67.07142857142857,32.18080166407994,3874.7,67.07142857142857,32.18080166407994,3976.3,67.07142857142857,32.18080166407994,4076.6,67.07142857142857,32.18080166407994,4182.4,67.07142857142857,32.18080166407994,4285.8,67.07142857142857,32.18080166407994,4389,67.07142857142857,32.18080166407994,4497.4,67.07142857142857,32.18080166407994,4598.7,67.07142857142857,32.18080166407994,4700.9,67.07142857142857,32.18080166407994,4801,67.07142857142857,32.18080166407994,4907.3]","[1393.9,1393.9,1000,0,393.9,""oops"",""up"",""up"",""good_move"",4057.7,2663.4,2263.1,1394.3,400.3,""smooth"",""up"",""up"",""good_move"",7639.7,3581.5,3189.7,4058.2,391.8,""smooth"",""left"",""left"",""good_move"",10217.5,2577.4,2221.4,7640.1,356,""smooth"",""left"",""left"",""good_move""]","",""
"3202","","<div style=""width:500px;"">
  <p>What determined the result of this run?</p>
  </div>","5","html-slider-response","25","281547","0.0-5.0-1.3","291","1","2025-07-30 13:14:49","1f75c3e559b7213887762d5229550c2b","148.252.147.68","Mozilla/5.0 (Windows NT 10.0; Win64; x64) AppleWebKit/537.36 (KHTML, like Gecko) Chrome/138.0.0.0 Safari/537.36 Edg/138.0.0.0","WebKit","Edge","138.0.0.0","Windows","10.0","https://app.prolific.com/","en-US,en;q=0.9,en-GB;q=0.8,ar;q=0.7,sq;q=0.6","676578b520552faa04a8ef83","6877631c9844ddd5501205fc","688a1abed6a5f721e1ccc87c","3","1","676578b520552faa04a8ef83","3","1","2025-07-30T13:19:32.274Z","","","","","","","","","","","AttribQ","","50","","","","","","","","","","","","","","","","","","","","","","","","","","","","",""
"4966","","<div style=""width:500px;"">
  <p>How much control did you have over the ball?</p>
  </div>","93","html-slider-response","26","286516","0.0-5.0-2.3","291","1","2025-07-30 13:14:49","1f75c3e559b7213887762d5229550c2b","148.252.147.68","Mozilla/5.0 (Windows NT 10.0; Win64; x64) AppleWebKit/537.36 (KHTML, like Gecko) Chrome/138.0.0.0 Safari/537.36 Edg/138.0.0.0","WebKit","Edge","138.0.0.0","Windows","10.0","https://app.prolific.com/","en-US,en;q=0.9,en-GB;q=0.8,ar;q=0.7,sq;q=0.6","676578b520552faa04a8ef83","6877631c9844ddd5501205fc","688a1abed6a5f721e1ccc87c","3","1","676578b520552faa04a8ef83","3","1","2025-07-30T13:19:37.243Z","","","","","","","","","","","ControlQ","","50","","","","","","","","","","","","","","","","","","","","","","","","","","","","",""
"2962","","<div style=""width:500px;"">
  <p>How would you describe your current emotional state?</p>
  </div>","94","html-slider-response","27","289481","0.0-5.0-3.3","291","1","2025-07-30 13:14:49","1f75c3e559b7213887762d5229550c2b","148.252.147.68","Mozilla/5.0 (Windows NT 10.0; Win64; x64) AppleWebKit/537.36 (KHTML, like Gecko) Chrome/138.0.0.0 Safari/537.36 Edg/138.0.0.0","WebKit","Edge","138.0.0.0","Windows","10.0","https://app.prolific.com/","en-US,en;q=0.9,en-GB;q=0.8,ar;q=0.7,sq;q=0.6","676578b520552faa04a8ef83","6877631c9844ddd5501205fc","688a1abed6a5f721e1ccc87c","3","1","676578b520552faa04a8ef83","3","1","2025-07-30T13:19:40.208Z","","","","","","","","","","","StressQ","","50","","","","","","","","","","","","","","","","","","","","","","","","","","","","",""
"2007","","<div style=""width:500px;"">
  <p>What best describes how you currently feel?</p>
  </div>","5","html-slider-response","28","291490","0.0-5.0-4.3","291","1","2025-07-30 13:14:49","1f75c3e559b7213887762d5229550c2b","148.252.147.68","Mozilla/5.0 (Windows NT 10.0; Win64; x64) AppleWebKit/537.36 (KHTML, like Gecko) Chrome/138.0.0.0 Safari/537.36 Edg/138.0.0.0","WebKit","Edge","138.0.0.0","Windows","10.0","https://app.prolific.com/","en-US,en;q=0.9,en-GB;q=0.8,ar;q=0.7,sq;q=0.6","676578b520552faa04a8ef83","6877631c9844ddd5501205fc","688a1abed6a5f721e1ccc87c","3","1","676578b520552faa04a8ef83","3","1","2025-07-30T13:19:42.217Z","","","","","","","","","","","MotivationQ","","50","","","","","","","","","","","","","","","","","","","","","","","","","","","","",""
"","","","","ctl-task-cpt","29","329968","0.0-5.0-0.4","291","1","2025-07-30 13:14:49","1f75c3e559b7213887762d5229550c2b","148.252.147.68","Mozilla/5.0 (Windows NT 10.0; Win64; x64) AppleWebKit/537.36 (KHTML, like Gecko) Chrome/138.0.0.0 Safari/537.36 Edg/138.0.0.0","WebKit","Edge","138.0.0.0","Windows","10.0","https://app.prolific.com/","en-US,en;q=0.9,en-GB;q=0.8,ar;q=0.7,sq;q=0.6","676578b520552faa04a8ef83","6877631c9844ddd5501205fc","688a1abed6a5f721e1ccc87c","3","1","676578b520552faa04a8ef83","3","1","2025-07-30T13:20:20.696Z","","","","","","","","","","","","","","win-only","2","g1:SE,g2:NW","0.6","5","0","299117.4","1134.5","6139.4","35468.9","1","4","4","6","1","1","0","4","4","0.030303030303030304","1783","3000","1000","[""down"",""right""]","{""num_key_presses"":8,""num_perfect"":5,""num_errors"":1,""num_randdir"":2,""num_randdir_good_moves"":1,""num_whilered"":0,""num_whileblue"":1,""num_blue"":3,""num_good_moves"":6}","[419.57142857142856,407.1808016640799,0.2,419.57142857142856,407.1808016640799,103.9,419.57142857142856,407.1808016640799,210.8,419.57142857142856,407.1808016640799,312,419.57142857142856,407.1808016640799,419.5,419.57142857142856,407.1808016640799,520.9,419.57142857142856,407.1808016640799,628,419.57142857142856,407.1808016640799,728.6,419.57142857142856,407.1808016640799,831.9,419.57142857142856,407.1808016640799,934.8,419.57142857142856,407.1808016640799,1035.7,469.07142857142856,470.1808016640799,1144,719.5714285714286,843.6808016640799,1244.8,758.5714285714286,866.1808016640799,1345.2,773.5714285714286,866.1808016640799,1451,797.5714285714286,773.1808016640799,1552.6,797.5714285714286,770.1808016640799,1655.8,797.5714285714286,770.1808016640799,1760.5,797.5714285714286,770.1808016640799,1865.8,797.5714285714286,770.1808016640799,1968.4,797.5714285714286,770.1808016640799,2075.1,797.5714285714286,770.1808016640799,2181.2,797.5714285714286,770.1808016640799,2289.5,797.5714285714286,770.1808016640799,2395.6,797.5714285714286,770.1808016640799,2495.8,797.5714285714286,770.1808016640799,2595.8,797.5714285714286,770.1808016640799,2701.4,797.5714285714286,770.1808016640799,2804.1,797.5714285714286,770.1808016640799,2905.7,797.5714285714286,770.1808016640799,3013.1,797.5714285714286,770.1808016640799,3113.8,797.5714285714286,770.1808016640799,3217.9,797.5714285714286,770.1808016640799,3318,797.5714285714286,770.1808016640799,3421.2,797.5714285714286,770.1808016640799,3521.2,797.5714285714286,770.1808016640799,3622.2,797.5714285714286,770.1808016640799,3733.2,797.5714285714286,770.1808016640799,3840.4,797.5714285714286,770.1808016640799,3943.3,797.5714285714286,770.1808016640799,4046.6,797.5714285714286,770.1808016640799,4150.1,797.5714285714286,770.1808016640799,4251.4,797.5714285714286,770.1808016640799,4359.4,797.5714285714286,770.1808016640799,4462.8,797.5714285714286,770.1808016640799,4563.2,797.5714285714286,770.1808016640799,4670.1,797.5714285714286,770.1808016640799,4770.8,797.5714285714286,770.1808016640799,4874.7,797.5714285714286,770.1808016640799,4978.8]","[1523.8,1523.8,1000,0,523.8,""smooth"",""down"",""down"",""good_move"",4055.5,2531.1,2099.3,1524.4,431.8,""smooth"",""down"",""down"",""good_move"",7104,3048.2,2701.9,4055.8,346.3,""oops"",""right"",""right"",""good_move"",10206.1,3101.7,2734.9,7104.4,366.8,""oops"",""right"",""up"",""bad_move"",13494.1,3287.4,2904.3,10206.7,383.1,""while_blue"",""right"",""left"",""bad_move"",20075.2,6580.8,2907.7,16802.9,364.6,""smooth"",""right"",""right"",""good_move"",23478.2,3402.8,2968.2,20075.4,434.6,""smooth"",""right"",""right"",""good_move"",29189.5,5711.1,1788.3,27003,398.2,""smooth"",""down"",""down"",""good_move""]","",""
"7030","","<div style=""width:500px;"">
  <p>What determined the result of this run?</p>
  </div>","13","html-slider-response","30","337000","0.0-5.0-1.4","291","1","2025-07-30 13:14:49","1f75c3e559b7213887762d5229550c2b","148.252.147.68","Mozilla/5.0 (Windows NT 10.0; Win64; x64) AppleWebKit/537.36 (KHTML, like Gecko) Chrome/138.0.0.0 Safari/537.36 Edg/138.0.0.0","WebKit","Edge","138.0.0.0","Windows","10.0","https://app.prolific.com/","en-US,en;q=0.9,en-GB;q=0.8,ar;q=0.7,sq;q=0.6","676578b520552faa04a8ef83","6877631c9844ddd5501205fc","688a1abed6a5f721e1ccc87c","3","1","676578b520552faa04a8ef83","3","1","2025-07-30T13:20:27.728Z","","","","","","","","","","","AttribQ","","50","","","","","","","","","","","","","","","","","","","","","","","","","","","","",""
"5401","","<div style=""width:500px;"">
  <p>How much control did you have over the ball?</p>
  </div>","26","html-slider-response","31","342403","0.0-5.0-2.4","291","1","2025-07-30 13:14:49","1f75c3e559b7213887762d5229550c2b","148.252.147.68","Mozilla/5.0 (Windows NT 10.0; Win64; x64) AppleWebKit/537.36 (KHTML, like Gecko) Chrome/138.0.0.0 Safari/537.36 Edg/138.0.0.0","WebKit","Edge","138.0.0.0","Windows","10.0","https://app.prolific.com/","en-US,en;q=0.9,en-GB;q=0.8,ar;q=0.7,sq;q=0.6","676578b520552faa04a8ef83","6877631c9844ddd5501205fc","688a1abed6a5f721e1ccc87c","3","1","676578b520552faa04a8ef83","3","1","2025-07-30T13:20:33.130Z","","","","","","","","","","","ControlQ","","50","","","","","","","","","","","","","","","","","","","","","","","","","","","","",""
"2929","","<div style=""width:500px;"">
  <p>How would you describe your current emotional state?</p>
  </div>","94","html-slider-response","32","345334","0.0-5.0-3.4","291","1","2025-07-30 13:14:49","1f75c3e559b7213887762d5229550c2b","148.252.147.68","Mozilla/5.0 (Windows NT 10.0; Win64; x64) AppleWebKit/537.36 (KHTML, like Gecko) Chrome/138.0.0.0 Safari/537.36 Edg/138.0.0.0","WebKit","Edge","138.0.0.0","Windows","10.0","https://app.prolific.com/","en-US,en;q=0.9,en-GB;q=0.8,ar;q=0.7,sq;q=0.6","676578b520552faa04a8ef83","6877631c9844ddd5501205fc","688a1abed6a5f721e1ccc87c","3","1","676578b520552faa04a8ef83","3","1","2025-07-30T13:20:36.061Z","","","","","","","","","","","StressQ","","50","","","","","","","","","","","","","","","","","","","","","","","","","","","","",""
"4265","","<div style=""width:500px;"">
  <p>What best describes how you currently feel?</p>
  </div>","4","html-slider-response","33","349600","0.0-5.0-4.4","291","1","2025-07-30 13:14:49","1f75c3e559b7213887762d5229550c2b","148.252.147.68","Mozilla/5.0 (Windows NT 10.0; Win64; x64) AppleWebKit/537.36 (KHTML, like Gecko) Chrome/138.0.0.0 Safari/537.36 Edg/138.0.0.0","WebKit","Edge","138.0.0.0","Windows","10.0","https://app.prolific.com/","en-US,en;q=0.9,en-GB;q=0.8,ar;q=0.7,sq;q=0.6","676578b520552faa04a8ef83","6877631c9844ddd5501205fc","688a1abed6a5f721e1ccc87c","3","1","676578b520552faa04a8ef83","3","1","2025-07-30T13:20:40.327Z","","","","","","","","","","","MotivationQ","","50","","","","","","","","","","","","","","","","","","","","","","","","","","","","",""
"","","","","ctl-task-cpt","34","385327","0.0-5.0-0.5","291","1","2025-07-30 13:14:49","1f75c3e559b7213887762d5229550c2b","148.252.147.68","Mozilla/5.0 (Windows NT 10.0; Win64; x64) AppleWebKit/537.36 (KHTML, like Gecko) Chrome/138.0.0.0 Safari/537.36 Edg/138.0.0.0","WebKit","Edge","138.0.0.0","Windows","10.0","https://app.prolific.com/","en-US,en;q=0.9,en-GB;q=0.8,ar;q=0.7,sq;q=0.6","676578b520552faa04a8ef83","6877631c9844ddd5501205fc","688a1abed6a5f721e1ccc87c","3","1","676578b520552faa04a8ef83","3","1","2025-07-30T13:21:16.055Z","","","","","","","","","","","","","","win-only","2","g1:SE,g2:NW","0.5","6","0","357227.3","1608.5","6618.3","32707.2","1","4","8","6","1","1","1","5","4","0.03787878787878788","1294.9","3000","1110","[""down"",""right""]","{""num_key_presses"":6,""num_perfect"":2,""num_errors"":0,""num_randdir"":4,""num_randdir_good_moves"":3,""num_whilered"":0,""num_whileblue"":0,""num_blue"":2,""num_good_moves"":5}","[319.5,320.60937309265137,0.3,319.5,320.60937309265137,106.8,319.5,320.60937309265137,216.1,319.5,320.60937309265137,320.5,319.5,320.60937309265137,426.1,319.5,320.60937309265137,527.2,319.5,320.60937309265137,631.9,345,359.60937309265137,742.5,474,506.60937309265137,842.9,493.5,521.6093730926514,949.6,538.5,557.6093730926514,1052,564,574.1093730926514,1156.6,564,574.1093730926514,1264.6,564,574.1093730926514,1366.2,564,574.1093730926514,1469.7,564,574.1093730926514,1570.3,564,574.1093730926514,1671.4,564,574.1093730926514,1777.8,564,574.1093730926514,1879.1,519,551.6093730926514,1984.7,507,482.60937309265137,2090.7,514.5,469.10937309265137,2192.5,514.5,469.10937309265137,2301.1,514.5,469.10937309265137,2407,514.5,469.10937309265137,2513.8,514.5,469.10937309265137,2621.2,514.5,469.10937309265137,2727.2,514.5,469.10937309265137,2834.4,514.5,469.10937309265137,2937.9,514.5,469.10937309265137,3043.4,514.5,469.10937309265137,3151.6,514.5,469.10937309265137,3254.8,514.5,469.10937309265137,3362.1,514.5,469.10937309265137,3462.3,514.5,469.10937309265137,3563.2,514.5,469.10937309265137,3667.1,514.5,469.10937309265137,3768.3,514.5,469.10937309265137,3870.1,514.5,469.10937309265137,3970.2,514.5,469.10937309265137,4077.5,514.5,469.10937309265137,4177.9,514.5,469.10937309265137,4278,514.5,469.10937309265137,4378.5,514.5,469.10937309265137,4478.5,514.5,469.10937309265137,4587.4,514.5,469.10937309265137,4689.8,514.5,469.10937309265137,4797.7,514.5,469.10937309265137,4906.4]","[1451.2,1451.2,1000,0,451.2,""oops"",""down"",""right"",""good_move"",4818.2,3366.5,2953.1,1451.7,413.4,""oops"",""down"",""down"",""good_move"",12324.1,7504.9,2678.3,9191.9,453.9,""smooth"",""down"",""down"",""good_move"",16023.1,3698.8,3319.8,12324.3,379,""oops"",""right"",""up"",""bad_move"",19099.3,3075.6,2619.2,16023.7,456.4,""oops"",""right"",""right"",""good_move"",25941,6841.3,2644.1,22725.8,571.1,""smooth"",""down"",""down"",""good_move""]","",""
"5794","","<div style=""width:500px;"">
  <p>What determined the result of this run?</p>
  </div>","19","html-slider-response","35","391123","0.0-5.0-1.5","291","1","2025-07-30 13:14:49","1f75c3e559b7213887762d5229550c2b","148.252.147.68","Mozilla/5.0 (Windows NT 10.0; Win64; x64) AppleWebKit/537.36 (KHTML, like Gecko) Chrome/138.0.0.0 Safari/537.36 Edg/138.0.0.0","WebKit","Edge","138.0.0.0","Windows","10.0","https://app.prolific.com/","en-US,en;q=0.9,en-GB;q=0.8,ar;q=0.7,sq;q=0.6","676578b520552faa04a8ef83","6877631c9844ddd5501205fc","688a1abed6a5f721e1ccc87c","3","1","676578b520552faa04a8ef83","3","1","2025-07-30T13:21:21.850Z","","","","","","","","","","","AttribQ","","50","","","","","","","","","","","","","","","","","","","","","","","","","","","","",""
"4188","","<div style=""width:500px;"">
  <p>How much control did you have over the ball?</p>
  </div>","24","html-slider-response","36","395313","0.0-5.0-2.5","291","1","2025-07-30 13:14:49","1f75c3e559b7213887762d5229550c2b","148.252.147.68","Mozilla/5.0 (Windows NT 10.0; Win64; x64) AppleWebKit/537.36 (KHTML, like Gecko) Chrome/138.0.0.0 Safari/537.36 Edg/138.0.0.0","WebKit","Edge","138.0.0.0","Windows","10.0","https://app.prolific.com/","en-US,en;q=0.9,en-GB;q=0.8,ar;q=0.7,sq;q=0.6","676578b520552faa04a8ef83","6877631c9844ddd5501205fc","688a1abed6a5f721e1ccc87c","3","1","676578b520552faa04a8ef83","3","1","2025-07-30T13:21:26.040Z","","","","","","","","","","","ControlQ","","50","","","","","","","","","","","","","","","","","","","","","","","","","","","","",""
"3521","","<div style=""width:500px;"">
  <p>How would you describe your current emotional state?</p>
  </div>","100","html-slider-response","37","398835","0.0-5.0-3.5","291","1","2025-07-30 13:14:49","1f75c3e559b7213887762d5229550c2b","148.252.147.68","Mozilla/5.0 (Windows NT 10.0; Win64; x64) AppleWebKit/537.36 (KHTML, like Gecko) Chrome/138.0.0.0 Safari/537.36 Edg/138.0.0.0","WebKit","Edge","138.0.0.0","Windows","10.0","https://app.prolific.com/","en-US,en;q=0.9,en-GB;q=0.8,ar;q=0.7,sq;q=0.6","676578b520552faa04a8ef83","6877631c9844ddd5501205fc","688a1abed6a5f721e1ccc87c","3","1","676578b520552faa04a8ef83","3","1","2025-07-30T13:21:29.562Z","","","","","","","","","","","StressQ","","50","","","","","","","","","","","","","","","","","","","","","","","","","","","","",""
"2995","","<div style=""width:500px;"">
  <p>What best describes how you currently feel?</p>
  </div>","2","html-slider-response","38","401832","0.0-5.0-4.5","291","1","2025-07-30 13:14:49","1f75c3e559b7213887762d5229550c2b","148.252.147.68","Mozilla/5.0 (Windows NT 10.0; Win64; x64) AppleWebKit/537.36 (KHTML, like Gecko) Chrome/138.0.0.0 Safari/537.36 Edg/138.0.0.0","WebKit","Edge","138.0.0.0","Windows","10.0","https://app.prolific.com/","en-US,en;q=0.9,en-GB;q=0.8,ar;q=0.7,sq;q=0.6","676578b520552faa04a8ef83","6877631c9844ddd5501205fc","688a1abed6a5f721e1ccc87c","3","1","676578b520552faa04a8ef83","3","1","2025-07-30T13:21:32.559Z","","","","","","","","","","","MotivationQ","","50","","","","","","","","","","","","","","","","","","","","","","","","","","","","",""
"","","","","ctl-task-cpt","39","441460","0.0-5.0-0.6","291","1","2025-07-30 13:14:49","1f75c3e559b7213887762d5229550c2b","148.252.147.68","Mozilla/5.0 (Windows NT 10.0; Win64; x64) AppleWebKit/537.36 (KHTML, like Gecko) Chrome/138.0.0.0 Safari/537.36 Edg/138.0.0.0","WebKit","Edge","138.0.0.0","Windows","10.0","https://app.prolific.com/","en-US,en;q=0.9,en-GB;q=0.8,ar;q=0.7,sq;q=0.6","676578b520552faa04a8ef83","6877631c9844ddd5501205fc","688a1abed6a5f721e1ccc87c","3","1","676578b520552faa04a8ef83","3","1","2025-07-30T13:22:12.187Z","","","","","","","","","","","","","","win-only","2","g1:SE,g2:NW","0.4","7","0","409458.6","1323.5","6324.6","36597.8","1","4","8","6","1","-1","-1","4","5","0.030303030303030304","2038.3","3000","-2055","[""down"",""right""]","{""num_key_presses"":9,""num_perfect"":4,""num_errors"":0,""num_randdir"":5,""num_randdir_good_moves"":1,""num_whilered"":0,""num_whileblue"":0,""num_blue"":1,""num_good_moves"":5}","[316.5,326.60937309265137,0.6,316.5,326.60937309265137,100.5,316.5,326.60937309265137,200.5,316.5,326.60937309265137,303.1,316.5,326.60937309265137,404,316.5,326.60937309265137,507.2,316.5,326.60937309265137,612.4,316.5,326.60937309265137,720.5,316.5,326.60937309265137,821.3,316.5,326.60937309265137,921.7,316.5,326.60937309265137,1025.1,316.5,326.60937309265137,1127.9,316.5,326.60937309265137,1236.8,316.5,326.60937309265137,1341.9,453,455.60937309265137,1442,513,491.60937309265137,1542.4,540,538.1093730926514,1647.7,558,578.6093730926514,1748.4,582,617.6093730926514,1851.4,585,620.6093730926514,1963.1,585,620.6093730926514,2067,585,620.6093730926514,2169.8,585,620.6093730926514,2273.2,585,620.6093730926514,2374.3,585,620.6093730926514,2479.7,585,620.6093730926514,2582.7,585,620.6093730926514,2683.9,585,620.6093730926514,2791.3,585,620.6093730926514,2892.7,585,620.6093730926514,3000.2,585,620.6093730926514,3103.4,585,620.6093730926514,3208,585,620.6093730926514,3316.5,585,620.6093730926514,3420.7,585,620.6093730926514,3523.6,585,620.6093730926514,3635.8,585,620.6093730926514,3743.4,585,620.6093730926514,3844.9,585,620.6093730926514,3951.7,585,620.6093730926514,4052.7,585,620.6093730926514,4153.2,585,620.6093730926514,4260.7,585,620.6093730926514,4364.1,585,620.6093730926514,4474.1,585,620.6093730926514,4575.9,585,620.6093730926514,4680.9,585,620.6093730926514,4789.9,585,620.6093730926514,4890.2,585,620.6093730926514,4992.8]","[1418,1418,1000,0,418,""smooth"",""down"",""down"",""good_move"",4305.7,2887.2,2323.6,1418.5,563.6,""oops"",""down"",""up"",""bad_move"",7088.9,2782.7,2422.1,4306.2,360.6,""oops"",""down"",""down"",""good_move"",10257.3,3168.1,2779.8,7089.2,388.3,""oops"",""down"",""left"",""bad_move"",13313.3,3055.6,2155.2,10257.8,900.4,""smooth"",""down"",""down"",""good_move"",15772.7,2459,2002,13313.7,457,""smooth"",""right"",""right"",""good_move"",18895.8,3122.1,2762.3,15773.7,359.8,""smooth"",""right"",""right"",""good_move"",21295.9,2399.5,1985.6,18896.5,413.8,""oops"",""right"",""up"",""bad_move"",24120.7,2824.3,2443.6,21296.4,380.7,""oops"",""right"",""up"",""bad_move""]","",""
"2822","","<div style=""width:500px;"">
  <p>What determined the result of this run?</p>
  </div>","12","html-slider-response","40","444284","0.0-5.0-1.6","291","1","2025-07-30 13:14:49","1f75c3e559b7213887762d5229550c2b","148.252.147.68","Mozilla/5.0 (Windows NT 10.0; Win64; x64) AppleWebKit/537.36 (KHTML, like Gecko) Chrome/138.0.0.0 Safari/537.36 Edg/138.0.0.0","WebKit","Edge","138.0.0.0","Windows","10.0","https://app.prolific.com/","en-US,en;q=0.9,en-GB;q=0.8,ar;q=0.7,sq;q=0.6","676578b520552faa04a8ef83","6877631c9844ddd5501205fc","688a1abed6a5f721e1ccc87c","3","1","676578b520552faa04a8ef83","3","1","2025-07-30T13:22:15.011Z","","","","","","","","","","","AttribQ","","50","","","","","","","","","","","","","","","","","","","","","","","","","","","","",""
"4515","","<div style=""width:500px;"">
  <p>How much control did you have over the ball?</p>
  </div>","73","html-slider-response","41","448802","0.0-5.0-2.6","291","1","2025-07-30 13:14:49","1f75c3e559b7213887762d5229550c2b","148.252.147.68","Mozilla/5.0 (Windows NT 10.0; Win64; x64) AppleWebKit/537.36 (KHTML, like Gecko) Chrome/138.0.0.0 Safari/537.36 Edg/138.0.0.0","WebKit","Edge","138.0.0.0","Windows","10.0","https://app.prolific.com/","en-US,en;q=0.9,en-GB;q=0.8,ar;q=0.7,sq;q=0.6","676578b520552faa04a8ef83","6877631c9844ddd5501205fc","688a1abed6a5f721e1ccc87c","3","1","676578b520552faa04a8ef83","3","1","2025-07-30T13:22:19.529Z","","","","","","","","","","","ControlQ","","50","","","","","","","","","","","","","","","","","","","","","","","","","","","","",""
"3399","","<div style=""width:500px;"">
  <p>How would you describe your current emotional state?</p>
  </div>","94","html-slider-response","42","452202","0.0-5.0-3.6","291","1","2025-07-30 13:14:49","1f75c3e559b7213887762d5229550c2b","148.252.147.68","Mozilla/5.0 (Windows NT 10.0; Win64; x64) AppleWebKit/537.36 (KHTML, like Gecko) Chrome/138.0.0.0 Safari/537.36 Edg/138.0.0.0","WebKit","Edge","138.0.0.0","Windows","10.0","https://app.prolific.com/","en-US,en;q=0.9,en-GB;q=0.8,ar;q=0.7,sq;q=0.6","676578b520552faa04a8ef83","6877631c9844ddd5501205fc","688a1abed6a5f721e1ccc87c","3","1","676578b520552faa04a8ef83","3","1","2025-07-30T13:22:22.930Z","","","","","","","","","","","StressQ","","50","","","","","","","","","","","","","","","","","","","","","","","","","","","","",""
"2568","","<div style=""width:500px;"">
  <p>What best describes how you currently feel?</p>
  </div>","5","html-slider-response","43","454773","0.0-5.0-4.6","291","1","2025-07-30 13:14:49","1f75c3e559b7213887762d5229550c2b","148.252.147.68","Mozilla/5.0 (Windows NT 10.0; Win64; x64) AppleWebKit/537.36 (KHTML, like Gecko) Chrome/138.0.0.0 Safari/537.36 Edg/138.0.0.0","WebKit","Edge","138.0.0.0","Windows","10.0","https://app.prolific.com/","en-US,en;q=0.9,en-GB;q=0.8,ar;q=0.7,sq;q=0.6","676578b520552faa04a8ef83","6877631c9844ddd5501205fc","688a1abed6a5f721e1ccc87c","3","1","676578b520552faa04a8ef83","3","1","2025-07-30T13:22:25.500Z","","","","","","","","","","","MotivationQ","","50","","","","","","","","","","","","","","","","","","","","","","","","","","","","",""
"","","","","ctl-task-cpt","44","478357","0.0-5.0-0.7","291","1","2025-07-30 13:14:49","1f75c3e559b7213887762d5229550c2b","148.252.147.68","Mozilla/5.0 (Windows NT 10.0; Win64; x64) AppleWebKit/537.36 (KHTML, like Gecko) Chrome/138.0.0.0 Safari/537.36 Edg/138.0.0.0","WebKit","Edge","138.0.0.0","Windows","10.0","https://app.prolific.com/","en-US,en;q=0.9,en-GB;q=0.8,ar;q=0.7,sq;q=0.6","676578b520552faa04a8ef83","6877631c9844ddd5501205fc","688a1abed6a5f721e1ccc87c","3","1","676578b520552faa04a8ef83","3","1","2025-07-30T13:22:49.084Z","","","","","","","","","","","","","","win-only","1","g1:NE,g2:SW","0.3","8","0","462400.5","1778.3","6779.5","20575.5","1","4","4","6","2","-4","-6","0","4","0","1760.6","3000","-2200","[""down"",""left""]","{""num_key_presses"":5,""num_perfect"":1,""num_errors"":2,""num_randdir"":1,""num_randdir_good_moves"":0,""num_whilered"":1,""num_whileblue"":0,""num_blue"":0,""num_good_moves"":1}","[325.5,326.60937309265137,0.3,325.5,326.60937309265137,108.6,325.5,326.60937309265137,211.3,325.5,326.60937309265137,312.1,325.5,326.60937309265137,415.7,325.5,326.60937309265137,518.1,325.5,326.60937309265137,620.5,325.5,326.60937309265137,727.2,325.5,326.60937309265137,827.9,402,265.10937309265137,931,375,302.60937309265137,1031.8,216,461.60937309265137,1133.5,93,565.1093730926514,1237.8,69,575.6093730926514,1344.7,54,580.1093730926514,1446,54,580.1093730926514,1551.4,54,580.1093730926514,1658.7,54,580.1093730926514,1771.5,54,580.1093730926514,1872.4,54,580.1093730926514,1978.6,54,580.1093730926514,2085.3,54,580.1093730926514,2189.4,54,580.1093730926514,2296.7,54,580.1093730926514,2397.5,54,580.1093730926514,2499.9,54,580.1093730926514,2602.2,54,580.1093730926514,2703.2,54,580.1093730926514,2811.4,54,580.1093730926514,2915.4,54,580.1093730926514,3018.9,54,580.1093730926514,3125.1,54,580.1093730926514,3226.7,54,580.1093730926514,3328.1,54,580.1093730926514,3436.8,54,580.1093730926514,3536.9,54,580.1093730926514,3637.6,54,580.1093730926514,3744.8,54,580.1093730926514,3855.3,54,580.1093730926514,3957.2,54,580.1093730926514,4057.8,54,580.1093730926514,4162.3,54,580.1093730926514,4262.5,54,580.1093730926514,4370.3,54,580.1093730926514,4477.7,54,580.1093730926514,4584.4,54,580.1093730926514,4693.3,54,580.1093730926514,4801.5,54,580.1093730926514,4902.1]","[2003.6,2003.6,1000,0,1003.6,""smooth"",""down"",""down"",""good_move"",5710.8,3706.6,2764.7,2004.2,941.9,""oops"",""down"",""right"",""bad_move"",6446.1,734.9,2243.2,5711.2,-1508.3,""error"",""-"",""-"",""no_move"",7365.8,919.3,2243.2,5711.2,-588.6,""while_red"",""-"",""-"",""no_move"",7864.8,1418.3,2307.4,7450.7,-1893.3,""error"",""-"",""-"",""no_move""]","",""
"9247","","<div style=""width:500px;"">
  <p>What determined the result of this run?</p>
  </div>","21","html-slider-response","45","487605","0.0-5.0-1.7","291","1","2025-07-30 13:14:49","1f75c3e559b7213887762d5229550c2b","148.252.147.68","Mozilla/5.0 (Windows NT 10.0; Win64; x64) AppleWebKit/537.36 (KHTML, like Gecko) Chrome/138.0.0.0 Safari/537.36 Edg/138.0.0.0","WebKit","Edge","138.0.0.0","Windows","10.0","https://app.prolific.com/","en-US,en;q=0.9,en-GB;q=0.8,ar;q=0.7,sq;q=0.6","676578b520552faa04a8ef83","6877631c9844ddd5501205fc","688a1abed6a5f721e1ccc87c","3","1","676578b520552faa04a8ef83","3","1","2025-07-30T13:22:58.333Z","","","","","","","","","","","AttribQ","","50","","","","","","","","","","","","","","","","","","","","","","","","","","","","",""
"3605","","<div style=""width:500px;"">
  <p>How much control did you have over the ball?</p>
  </div>","25","html-slider-response","46","491212","0.0-5.0-2.7","291","1","2025-07-30 13:14:49","1f75c3e559b7213887762d5229550c2b","148.252.147.68","Mozilla/5.0 (Windows NT 10.0; Win64; x64) AppleWebKit/537.36 (KHTML, like Gecko) Chrome/138.0.0.0 Safari/537.36 Edg/138.0.0.0","WebKit","Edge","138.0.0.0","Windows","10.0","https://app.prolific.com/","en-US,en;q=0.9,en-GB;q=0.8,ar;q=0.7,sq;q=0.6","676578b520552faa04a8ef83","6877631c9844ddd5501205fc","688a1abed6a5f721e1ccc87c","3","1","676578b520552faa04a8ef83","3","1","2025-07-30T13:23:01.939Z","","","","","","","","","","","ControlQ","","50","","","","","","","","","","","","","","","","","","","","","","","","","","","","",""
"3574","","<div style=""width:500px;"">
  <p>How would you describe your current emotional state?</p>
  </div>","100","html-slider-response","47","494788","0.0-5.0-3.7","291","1","2025-07-30 13:14:49","1f75c3e559b7213887762d5229550c2b","148.252.147.68","Mozilla/5.0 (Windows NT 10.0; Win64; x64) AppleWebKit/537.36 (KHTML, like Gecko) Chrome/138.0.0.0 Safari/537.36 Edg/138.0.0.0","WebKit","Edge","138.0.0.0","Windows","10.0","https://app.prolific.com/","en-US,en;q=0.9,en-GB;q=0.8,ar;q=0.7,sq;q=0.6","676578b520552faa04a8ef83","6877631c9844ddd5501205fc","688a1abed6a5f721e1ccc87c","3","1","676578b520552faa04a8ef83","3","1","2025-07-30T13:23:05.515Z","","","","","","","","","","","StressQ","","50","","","","","","","","","","","","","","","","","","","","","","","","","","","","",""
"2445","","<div style=""width:500px;"">
  <p>What best describes how you currently feel?</p>
  </div>","0","html-slider-response","48","497237","0.0-5.0-4.7","291","1","2025-07-30 13:14:49","1f75c3e559b7213887762d5229550c2b","148.252.147.68","Mozilla/5.0 (Windows NT 10.0; Win64; x64) AppleWebKit/537.36 (KHTML, like Gecko) Chrome/138.0.0.0 Safari/537.36 Edg/138.0.0.0","WebKit","Edge","138.0.0.0","Windows","10.0","https://app.prolific.com/","en-US,en;q=0.9,en-GB;q=0.8,ar;q=0.7,sq;q=0.6","676578b520552faa04a8ef83","6877631c9844ddd5501205fc","688a1abed6a5f721e1ccc87c","3","1","676578b520552faa04a8ef83","3","1","2025-07-30T13:23:07.964Z","","","","","","","","","","","MotivationQ","","50","","","","","","","","","","","","","","","","","","","","","","","","","","","","",""
"","","","","ctl-task-cpt","49","532491","0.0-5.0-0.8","291","1","2025-07-30 13:14:49","1f75c3e559b7213887762d5229550c2b","148.252.147.68","Mozilla/5.0 (Windows NT 10.0; Win64; x64) AppleWebKit/537.36 (KHTML, like Gecko) Chrome/138.0.0.0 Safari/537.36 Edg/138.0.0.0","WebKit","Edge","138.0.0.0","Windows","10.0","https://app.prolific.com/","en-US,en;q=0.9,en-GB;q=0.8,ar;q=0.7,sq;q=0.6","676578b520552faa04a8ef83","6877631c9844ddd5501205fc","688a1abed6a5f721e1ccc87c","3","1","676578b520552faa04a8ef83","3","1","2025-07-30T13:23:43.218Z","","","","","","","","","","","","","","win-only","2","g1:SE,g2:NW","0.2","9","0","504866.4","4179.5","9189.4","32230.9","1","4","4","6","1","1","1","1","0","0.007575757575757576","1897.3","3000","245","[""down"",""right""]","{""num_key_presses"":8,""num_perfect"":2,""num_errors"":0,""num_randdir"":6,""num_randdir_good_moves"":4,""num_whilered"":0,""num_whileblue"":0,""num_blue"":0,""num_good_moves"":6}","[327,319.10937309265137,0.7,327,319.10937309265137,115.7,327,319.10937309265137,231.3,327,319.10937309265137,338.6,327,319.10937309265137,441.4,327,319.10937309265137,550.2,327,319.10937309265137,655.3,327,319.10937309265137,765,327,319.10937309265137,866.1,327,319.10937309265137,966.4,327,319.10937309265137,1073.5,327,319.10937309265137,1182,433.5,373.10937309265137,1289.7,469.5,407.60937309265137,1390.9,513,488.60937309265137,1504,561,578.6093730926514,1606.9,579,602.6093730926514,1707.2,579,602.6093730926514,1811.9,579,602.6093730926514,1912.3,579,602.6093730926514,2013.2,579,602.6093730926514,2114.1,579,602.6093730926514,2223.1,579,602.6093730926514,2323.3,579,602.6093730926514,2424.4,579,602.6093730926514,2531.5,579,602.6093730926514,2631.8,579,602.6093730926514,2738,579,602.6093730926514,2842.7,579,602.6093730926514,2946.5,579,602.6093730926514,3050.8,579,602.6093730926514,3156.1,579,602.6093730926514,3256.9,579,602.6093730926514,3362.9,579,602.6093730926514,3473,579,602.6093730926514,3573.5,579,602.6093730926514,3680.1,579,602.6093730926514,3785.4,579,602.6093730926514,3890.2,579,602.6093730926514,4000.9,579,602.6093730926514,4106.8,579,602.6093730926514,4209,579,602.6093730926514,4312.1,579,602.6093730926514,4413.3,579,602.6093730926514,4514.8,579,602.6093730926514,4620.8,579,602.6093730926514,4721.2,579,602.6093730926514,4832.2,579,602.6093730926514,4940.9]","[2016.2,2016.2,1000,0,1016.2,""smooth"",""down"",""down"",""good_move"",4431.2,2414.6,1866.1,2016.6,548.5,""oops"",""down"",""up"",""bad_move"",7762.5,3331,2994.9,4431.6,336.1,""oops"",""down"",""right"",""good_move"",11528.3,3765.2,3425.3,7763.1,339.9,""smooth"",""right"",""right"",""good_move"",14442.5,2914,2573.9,11528.7,339.9,""oops"",""down"",""down"",""good_move"",17571.2,3128.3,2778.5,14442.9,349.8,""oops"",""down"",""up"",""bad_move"",19942.3,2370.6,1500.6,17571.7,870,""oops"",""down"",""down"",""good_move"",22915.9,2973.3,2614.6,19942.6,358.7,""oops"",""down"",""down"",""good_move""]","",""
"3238","","<div style=""width:500px;"">
  <p>What determined the result of this run?</p>
  </div>","18","html-slider-response","50","535731","0.0-5.0-1.8","291","1","2025-07-30 13:14:49","1f75c3e559b7213887762d5229550c2b","148.252.147.68","Mozilla/5.0 (Windows NT 10.0; Win64; x64) AppleWebKit/537.36 (KHTML, like Gecko) Chrome/138.0.0.0 Safari/537.36 Edg/138.0.0.0","WebKit","Edge","138.0.0.0","Windows","10.0","https://app.prolific.com/","en-US,en;q=0.9,en-GB;q=0.8,ar;q=0.7,sq;q=0.6","676578b520552faa04a8ef83","6877631c9844ddd5501205fc","688a1abed6a5f721e1ccc87c","3","1","676578b520552faa04a8ef83","3","1","2025-07-30T13:23:46.458Z","","","","","","","","","","","AttribQ","","50","","","","","","","","","","","","","","","","","","","","","","","","","","","","",""
"6814","","<div style=""width:500px;"">
  <p>How much control did you have over the ball?</p>
  </div>","68","html-slider-response","51","542547","0.0-5.0-2.8","291","1","2025-07-30 13:14:49","1f75c3e559b7213887762d5229550c2b","148.252.147.68","Mozilla/5.0 (Windows NT 10.0; Win64; x64) AppleWebKit/537.36 (KHTML, like Gecko) Chrome/138.0.0.0 Safari/537.36 Edg/138.0.0.0","WebKit","Edge","138.0.0.0","Windows","10.0","https://app.prolific.com/","en-US,en;q=0.9,en-GB;q=0.8,ar;q=0.7,sq;q=0.6","676578b520552faa04a8ef83","6877631c9844ddd5501205fc","688a1abed6a5f721e1ccc87c","3","1","676578b520552faa04a8ef83","3","1","2025-07-30T13:23:53.275Z","","","","","","","","","","","ControlQ","","50","","","","","","","","","","","","","","","","","","","","","","","","","","","","",""
"3993","","<div style=""width:500px;"">
  <p>How would you describe your current emotional state?</p>
  </div>","100","html-slider-response","52","546542","0.0-5.0-3.8","291","1","2025-07-30 13:14:49","1f75c3e559b7213887762d5229550c2b","148.252.147.68","Mozilla/5.0 (Windows NT 10.0; Win64; x64) AppleWebKit/537.36 (KHTML, like Gecko) Chrome/138.0.0.0 Safari/537.36 Edg/138.0.0.0","WebKit","Edge","138.0.0.0","Windows","10.0","https://app.prolific.com/","en-US,en;q=0.9,en-GB;q=0.8,ar;q=0.7,sq;q=0.6","676578b520552faa04a8ef83","6877631c9844ddd5501205fc","688a1abed6a5f721e1ccc87c","3","1","676578b520552faa04a8ef83","3","1","2025-07-30T13:23:57.269Z","","","","","","","","","","","StressQ","","50","","","","","","","","","","","","","","","","","","","","","","","","","","","","",""
"2459","","<div style=""width:500px;"">
  <p>What best describes how you currently feel?</p>
  </div>","0","html-slider-response","53","549003","0.0-5.0-4.8","291","1","2025-07-30 13:14:49","1f75c3e559b7213887762d5229550c2b","148.252.147.68","Mozilla/5.0 (Windows NT 10.0; Win64; x64) AppleWebKit/537.36 (KHTML, like Gecko) Chrome/138.0.0.0 Safari/537.36 Edg/138.0.0.0","WebKit","Edge","138.0.0.0","Windows","10.0","https://app.prolific.com/","en-US,en;q=0.9,en-GB;q=0.8,ar;q=0.7,sq;q=0.6","676578b520552faa04a8ef83","6877631c9844ddd5501205fc","688a1abed6a5f721e1ccc87c","3","1","676578b520552faa04a8ef83","3","1","2025-07-30T13:23:59.730Z","","","","","","","","","","","MotivationQ","","50","","","","","","","","","","","","","","","","","","","","","","","","","","","","",""
"","","","","ctl-task-cpt","54","582041","0.0-5.0-0.9","291","1","2025-07-30 13:14:49","1f75c3e559b7213887762d5229550c2b","148.252.147.68","Mozilla/5.0 (Windows NT 10.0; Win64; x64) AppleWebKit/537.36 (KHTML, like Gecko) Chrome/138.0.0.0 Safari/537.36 Edg/138.0.0.0","WebKit","Edge","138.0.0.0","Windows","10.0","https://app.prolific.com/","en-US,en;q=0.9,en-GB;q=0.8,ar;q=0.7,sq;q=0.6","676578b520552faa04a8ef83","6877631c9844ddd5501205fc","688a1abed6a5f721e1ccc87c","3","1","676578b520552faa04a8ef83","3","1","2025-07-30T13:24:32.768Z","","","","","","","","","","","","","","win-only","2","g1:SE,g2:NW","0.4","10","0","556629.6","1502.8","6504.5","30018.5","1","4","8","6","1","1","1","2","1","0.015151515151515152","1637.8","3000","1160","[""down"",""right""]","{""num_key_presses"":6,""num_perfect"":3,""num_errors"":0,""num_randdir"":3,""num_randdir_good_moves"":2,""num_whilered"":0,""num_whileblue"":0,""num_blue"":2,""num_good_moves"":5}","[324,316.10937309265137,0.2,324,316.10937309265137,106.3,324,316.10937309265137,216.8,324,316.10937309265137,322.9,324,316.10937309265137,425.4,324,316.10937309265137,536.6,324,316.10937309265137,638,324,316.10937309265137,747.7,324,316.10937309265137,861.3,324,316.10937309265137,961.4,324,316.10937309265137,1065.3,471,541.1093730926514,1182.8,489,571.1093730926514,1287,549,577.1093730926514,1393,598.5,599.6093730926514,1500.4,598.5,599.6093730926514,1607.2,598.5,599.6093730926514,1710.4,598.5,599.6093730926514,1820,598.5,599.6093730926514,1923.2,598.5,599.6093730926514,2029.5,598.5,599.6093730926514,2133,598.5,599.6093730926514,2234.3,598.5,599.6093730926514,2337.4,598.5,599.6093730926514,2439.8,598.5,599.6093730926514,2544.9,598.5,599.6093730926514,2645.8,598.5,599.6093730926514,2745.8,598.5,599.6093730926514,2847.9,598.5,599.6093730926514,2949.2,598.5,599.6093730926514,3052.9,598.5,599.6093730926514,3152.9,598.5,599.6093730926514,3261.7,598.5,599.6093730926514,3364.7,598.5,599.6093730926514,3470.5,598.5,599.6093730926514,3570.7,598.5,599.6093730926514,3672.7,598.5,599.6093730926514,3776.1,598.5,599.6093730926514,3879.6,598.5,599.6093730926514,3982.9,598.5,599.6093730926514,4085.1,598.5,599.6093730926514,4190.3,598.5,599.6093730926514,4292,598.5,599.6093730926514,4393.6,598.5,599.6093730926514,4498.9,598.5,599.6093730926514,4603.1,598.5,599.6093730926514,4703.6,598.5,599.6093730926514,4810.5,598.5,599.6093730926514,4911.4]","[1588.5,1588.5,1000,0,588.5,""smooth"",""down"",""down"",""good_move"",3639.5,2050.5,1516.1,1589,534.4,""oops"",""down"",""left"",""bad_move"",6078.8,2438.7,2061.2,3640.1,377.5,""smooth"",""down"",""down"",""good_move"",17004.3,10925.2,2111.3,14499,394,""smooth"",""right"",""right"",""good_move"",20612.3,3607.6,3174.8,17004.7,432.8,""oops"",""right"",""right"",""good_move"",23354.9,2742.3,2344.2,20612.6,398.1,""oops"",""right"",""right"",""good_move""]","",""
"4278","","<div style=""width:500px;"">
  <p>What determined the result of this run?</p>
  </div>","14","html-slider-response","55","586324","0.0-5.0-1.9","291","1","2025-07-30 13:14:49","1f75c3e559b7213887762d5229550c2b","148.252.147.68","Mozilla/5.0 (Windows NT 10.0; Win64; x64) AppleWebKit/537.36 (KHTML, like Gecko) Chrome/138.0.0.0 Safari/537.36 Edg/138.0.0.0","WebKit","Edge","138.0.0.0","Windows","10.0","https://app.prolific.com/","en-US,en;q=0.9,en-GB;q=0.8,ar;q=0.7,sq;q=0.6","676578b520552faa04a8ef83","6877631c9844ddd5501205fc","688a1abed6a5f721e1ccc87c","3","1","676578b520552faa04a8ef83","3","1","2025-07-30T13:24:37.051Z","","","","","","","","","","","AttribQ","","50","","","","","","","","","","","","","","","","","","","","","","","","","","","","",""
"4193","","<div style=""width:500px;"">
  <p>How much control did you have over the ball?</p>
  </div>","64","html-slider-response","56","590521","0.0-5.0-2.9","291","1","2025-07-30 13:14:49","1f75c3e559b7213887762d5229550c2b","148.252.147.68","Mozilla/5.0 (Windows NT 10.0; Win64; x64) AppleWebKit/537.36 (KHTML, like Gecko) Chrome/138.0.0.0 Safari/537.36 Edg/138.0.0.0","WebKit","Edge","138.0.0.0","Windows","10.0","https://app.prolific.com/","en-US,en;q=0.9,en-GB;q=0.8,ar;q=0.7,sq;q=0.6","676578b520552faa04a8ef83","6877631c9844ddd5501205fc","688a1abed6a5f721e1ccc87c","3","1","676578b520552faa04a8ef83","3","1","2025-07-30T13:24:41.248Z","","","","","","","","","","","ControlQ","","50","","","","","","","","","","","","","","","","","","","","","","","","","","","","",""
"2655","","<div style=""width:500px;"">
  <p>How would you describe your current emotional state?</p>
  </div>","100","html-slider-response","57","593178","0.0-5.0-3.9","291","1","2025-07-30 13:14:49","1f75c3e559b7213887762d5229550c2b","148.252.147.68","Mozilla/5.0 (Windows NT 10.0; Win64; x64) AppleWebKit/537.36 (KHTML, like Gecko) Chrome/138.0.0.0 Safari/537.36 Edg/138.0.0.0","WebKit","Edge","138.0.0.0","Windows","10.0","https://app.prolific.com/","en-US,en;q=0.9,en-GB;q=0.8,ar;q=0.7,sq;q=0.6","676578b520552faa04a8ef83","6877631c9844ddd5501205fc","688a1abed6a5f721e1ccc87c","3","1","676578b520552faa04a8ef83","3","1","2025-07-30T13:24:43.905Z","","","","","","","","","","","StressQ","","50","","","","","","","","","","","","","","","","","","","","","","","","","","","","",""
"2534","","<div style=""width:500px;"">
  <p>What best describes how you currently feel?</p>
  </div>","1","html-slider-response","58","595714","0.0-5.0-4.9","291","1","2025-07-30 13:14:49","1f75c3e559b7213887762d5229550c2b","148.252.147.68","Mozilla/5.0 (Windows NT 10.0; Win64; x64) AppleWebKit/537.36 (KHTML, like Gecko) Chrome/138.0.0.0 Safari/537.36 Edg/138.0.0.0","WebKit","Edge","138.0.0.0","Windows","10.0","https://app.prolific.com/","en-US,en;q=0.9,en-GB;q=0.8,ar;q=0.7,sq;q=0.6","676578b520552faa04a8ef83","6877631c9844ddd5501205fc","688a1abed6a5f721e1ccc87c","3","1","676578b520552faa04a8ef83","3","1","2025-07-30T13:24:46.441Z","","","","","","","","","","","MotivationQ","","50","","","","","","","","","","","","","","","","","","","","","","","","","","","","",""
"","","","","ctl-task-cpt","59","626939","0.0-5.0-0.10","291","1","2025-07-30 13:14:49","1f75c3e559b7213887762d5229550c2b","148.252.147.68","Mozilla/5.0 (Windows NT 10.0; Win64; x64) AppleWebKit/537.36 (KHTML, like Gecko) Chrome/138.0.0.0 Safari/537.36 Edg/138.0.0.0","WebKit","Edge","138.0.0.0","Windows","10.0","https://app.prolific.com/","en-US,en;q=0.9,en-GB;q=0.8,ar;q=0.7,sq;q=0.6","676578b520552faa04a8ef83","6877631c9844ddd5501205fc","688a1abed6a5f721e1ccc87c","3","1","676578b520552faa04a8ef83","3","1","2025-07-30T13:25:17.666Z","","","","","","","","","","","","","","win-only","3","g1:SW,g2:NE","0.5","11","0","603340.9","1366.8","6373.2","28196.6","1","4","4","6","1","-1","-6","0","2","0","1382","3000","-1940","[""down"",""left""]","{""num_key_presses"":20,""num_perfect"":2,""num_errors"":5,""num_randdir"":2,""num_randdir_good_moves"":0,""num_whilered"":11,""num_whileblue"":0,""num_blue"":0,""num_good_moves"":2}","[331.5,323.60937309265137,0.3,331.5,323.60937309265137,102.7,331.5,323.60937309265137,208.8,331.5,323.60937309265137,315.1,331.5,323.60937309265137,422.5,331.5,323.60937309265137,532.5,331.5,323.60937309265137,640.2,360,307.10937309265137,747.4,217.5,409.10937309265137,849.5,39,556.1093730926514,956.1,19.5,557.6093730926514,1061.7,48,557.6093730926514,1171.6,70.5,584.6093730926514,1276.4,70.5,584.6093730926514,1392,70.5,584.6093730926514,1498,70.5,584.6093730926514,1622.7,70.5,584.6093730926514,1723.2,70.5,584.6093730926514,1833.9,70.5,584.6093730926514,1938.7,70.5,584.6093730926514,2039.6,70.5,584.6093730926514,2140.1,70.5,584.6093730926514,2242.2,70.5,584.6093730926514,2343.5,70.5,584.6093730926514,2444.5,70.5,584.6093730926514,2546.6,70.5,584.6093730926514,2652.7,70.5,584.6093730926514,2758.8,70.5,584.6093730926514,2863,70.5,584.6093730926514,2963.7,70.5,584.6093730926514,3064.9,70.5,584.6093730926514,3170,70.5,584.6093730926514,3271.8,70.5,584.6093730926514,3375.3,70.5,584.6093730926514,3482.4,70.5,584.6093730926514,3584.6,70.5,584.6093730926514,3691.2,70.5,584.6093730926514,3794.9,70.5,584.6093730926514,3896.3,70.5,584.6093730926514,3996.7,70.5,584.6093730926514,4103,70.5,584.6093730926514,4211.6,70.5,584.6093730926514,4319.6,70.5,584.6093730926514,4428.9,70.5,584.6093730926514,4531.1,70.5,584.6093730926514,4638,70.5,584.6093730926514,4741.8,70.5,584.6093730926514,4846,70.5,584.6093730926514,4948.6]","[2494.3,2494.3,1000,0,1494.3,""smooth"",""down"",""down"",""good_move"",5579.5,3084.8,2552.9,2494.8,531.8,""smooth"",""down"",""down"",""good_move"",8530.3,2950.5,2505.9,5579.8,444.6,""oops"",""left"",""up"",""bad_move"",11629.9,3099.2,2689.7,8530.7,409.5,""oops"",""left"",""right"",""bad_move"",12429.1,798.2,2238.1,11630.9,-1439.9,""error"",""-"",""-"",""no_move"",13040.7,610.9,2238.1,11630.9,-828.3,""while_red"",""-"",""-"",""no_move"",13579.9,1150.1,3228.4,13447.7,-3096.2,""error"",""-"",""-"",""no_move"",13962,381.6,3228.4,13447.7,-2714.1,""while_red"",""-"",""-"",""no_move"",14276.6,696.2,3228.4,13447.7,-2399.5,""while_red"",""-"",""-"",""no_move"",14544.4,964,3228.4,13447.7,-2131.7,""while_red"",""-"",""-"",""no_move"",14861.5,1281.1,2357.9,14590.1,-2086.5,""error"",""-"",""-"",""no_move"",15449.2,587.3,2357.9,14590.1,-1498.8,""while_red"",""-"",""-"",""no_move"",15715.1,853.2,2357.9,14590.1,-1232.9,""while_red"",""-"",""-"",""no_move"",15912.8,1050.9,2701.6,15864.1,-2652.9,""error"",""-"",""-"",""no_move"",16122.1,209.1,2701.6,15864.1,-2443.6,""while_red"",""-"",""-"",""no_move"",16285.8,372.8,2701.6,15864.1,-2279.9,""while_red"",""-"",""-"",""no_move"",16454,541,2701.6,15864.1,-2111.7,""while_red"",""-"",""-"",""no_move"",16621.7,708.7,2701.6,15864.1,-1944,""while_red"",""-"",""-"",""no_move"",16808.3,895.4,2701.6,15864.1,-1757.3,""while_red"",""-"",""-"",""no_move"",16962.2,1049.2,2006.2,16920.5,-1964.5,""error"",""-"",""-"",""no_move""]","",""
"3548","","<div style=""width:500px;"">
  <p>What determined the result of this run?</p>
  </div>","1","html-slider-response","60","630488","0.0-5.0-1.10","291","1","2025-07-30 13:14:49","1f75c3e559b7213887762d5229550c2b","148.252.147.68","Mozilla/5.0 (Windows NT 10.0; Win64; x64) AppleWebKit/537.36 (KHTML, like Gecko) Chrome/138.0.0.0 Safari/537.36 Edg/138.0.0.0","WebKit","Edge","138.0.0.0","Windows","10.0","https://app.prolific.com/","en-US,en;q=0.9,en-GB;q=0.8,ar;q=0.7,sq;q=0.6","676578b520552faa04a8ef83","6877631c9844ddd5501205fc","688a1abed6a5f721e1ccc87c","3","1","676578b520552faa04a8ef83","3","1","2025-07-30T13:25:21.215Z","","","","","","","","","","","AttribQ","","50","","","","","","","","","","","","","","","","","","","","","","","","","","","","",""
"4247","","<div style=""width:500px;"">
  <p>How much control did you have over the ball?</p>
  </div>","16","html-slider-response","61","634737","0.0-5.0-2.10","291","1","2025-07-30 13:14:49","1f75c3e559b7213887762d5229550c2b","148.252.147.68","Mozilla/5.0 (Windows NT 10.0; Win64; x64) AppleWebKit/537.36 (KHTML, like Gecko) Chrome/138.0.0.0 Safari/537.36 Edg/138.0.0.0","WebKit","Edge","138.0.0.0","Windows","10.0","https://app.prolific.com/","en-US,en;q=0.9,en-GB;q=0.8,ar;q=0.7,sq;q=0.6","676578b520552faa04a8ef83","6877631c9844ddd5501205fc","688a1abed6a5f721e1ccc87c","3","1","676578b520552faa04a8ef83","3","1","2025-07-30T13:25:25.464Z","","","","","","","","","","","ControlQ","","50","","","","","","","","","","","","","","","","","","","","","","","","","","","","",""
"2807","","<div style=""width:500px;"">
  <p>How would you describe your current emotional state?</p>
  </div>","100","html-slider-response","62","637546","0.0-5.0-3.10","291","1","2025-07-30 13:14:49","1f75c3e559b7213887762d5229550c2b","148.252.147.68","Mozilla/5.0 (Windows NT 10.0; Win64; x64) AppleWebKit/537.36 (KHTML, like Gecko) Chrome/138.0.0.0 Safari/537.36 Edg/138.0.0.0","WebKit","Edge","138.0.0.0","Windows","10.0","https://app.prolific.com/","en-US,en;q=0.9,en-GB;q=0.8,ar;q=0.7,sq;q=0.6","676578b520552faa04a8ef83","6877631c9844ddd5501205fc","688a1abed6a5f721e1ccc87c","3","1","676578b520552faa04a8ef83","3","1","2025-07-30T13:25:28.273Z","","","","","","","","","","","StressQ","","50","","","","","","","","","","","","","","","","","","","","","","","","","","","","",""
"3242","","<div style=""width:500px;"">
  <p>What best describes how you currently feel?</p>
  </div>","0","html-slider-response","63","640790","0.0-5.0-4.10","291","1","2025-07-30 13:14:49","1f75c3e559b7213887762d5229550c2b","148.252.147.68","Mozilla/5.0 (Windows NT 10.0; Win64; x64) AppleWebKit/537.36 (KHTML, like Gecko) Chrome/138.0.0.0 Safari/537.36 Edg/138.0.0.0","WebKit","Edge","138.0.0.0","Windows","10.0","https://app.prolific.com/","en-US,en;q=0.9,en-GB;q=0.8,ar;q=0.7,sq;q=0.6","676578b520552faa04a8ef83","6877631c9844ddd5501205fc","688a1abed6a5f721e1ccc87c","3","1","676578b520552faa04a8ef83","3","1","2025-07-30T13:25:31.517Z","","","","","","","","","","","MotivationQ","","50","","","","","","","","","","","","","","","","","","","","","","","","","","","","",""
"","","","","ctl-task-cpt","64","680445","0.0-5.0-0.11","291","1","2025-07-30 13:14:49","1f75c3e559b7213887762d5229550c2b","148.252.147.68","Mozilla/5.0 (Windows NT 10.0; Win64; x64) AppleWebKit/537.36 (KHTML, like Gecko) Chrome/138.0.0.0 Safari/537.36 Edg/138.0.0.0","WebKit","Edge","138.0.0.0","Windows","10.0","https://app.prolific.com/","en-US,en;q=0.9,en-GB;q=0.8,ar;q=0.7,sq;q=0.6","676578b520552faa04a8ef83","6877631c9844ddd5501205fc","688a1abed6a5f721e1ccc87c","3","1","676578b520552faa04a8ef83","3","1","2025-07-30T13:26:11.172Z","","","","","","","","","","","","","","win-only","2","g1:SE,g2:NW","0.6","12","0","648416.3","1321.5","6330.2","36635.3","1","4","8","6","1","1","0","0","0","0","1661.5","3000","375","[""down"",""right""]","{""num_key_presses"":8,""num_perfect"":3,""num_errors"":1,""num_randdir"":4,""num_randdir_good_moves"":2,""num_whilered"":0,""num_whileblue"":1,""num_blue"":3,""num_good_moves"":6}","[330,323.60937309265137,0.3,330,323.60937309265137,112.3,330,323.60937309265137,237,330,323.60937309265137,337.2,330,323.60937309265137,445.6,330,323.60937309265137,556.4,330,323.60937309265137,659.8,330,323.60937309265137,761.4,330,323.60937309265137,863.1,330,323.60937309265137,963.8,330,323.60937309265137,1064.4,454.5,505.10937309265137,1165.5,525,557.6093730926514,1270.2,555,562.1093730926514,1376.6,579,593.6093730926514,1479.9,582,596.6093730926514,1581.8,582,596.6093730926514,1685.9,582,596.6093730926514,1791.5,582,596.6093730926514,1902.2,582,596.6093730926514,2003.1,582,596.6093730926514,2108.7,582,596.6093730926514,2209.4,582,596.6093730926514,2311.4,582,596.6093730926514,2412.4,582,596.6093730926514,2522.7,582,596.6093730926514,2626.3,582,596.6093730926514,2726.3,582,596.6093730926514,2830.9,582,596.6093730926514,2938.4,582,596.6093730926514,3043.1,582,596.6093730926514,3148.1,582,596.6093730926514,3258.4,582,596.6093730926514,3363.8,582,596.6093730926514,3464.3,582,596.6093730926514,3564.6,582,596.6093730926514,3668.2,582,596.6093730926514,3770.7,582,596.6093730926514,3871.7,582,596.6093730926514,3974.8,582,596.6093730926514,4079.6,582,596.6093730926514,4191.5,582,596.6093730926514,4298.2,582,596.6093730926514,4401.7,582,596.6093730926514,4505.9,582,596.6093730926514,4610.8,582,596.6093730926514,4714.3,582,596.6093730926514,4816.6,582,596.6093730926514,4917.4]","[1372.9,1372.9,1000,0,372.9,""smooth"",""down"",""down"",""good_move"",4496.7,3123.5,2696.1,1373.3,427.4,""oops"",""down"",""down"",""good_move"",10516.6,6019.6,2683.7,7252,580.9,""oops"",""right"",""right"",""good_move"",16242.9,5726,2122,13676.7,444.2,""oops"",""right"",""left"",""bad_move"",20193.8,3950.3,3220.4,16243.5,729.9,""smooth"",""right"",""right"",""good_move"",23903.3,3708.7,2426.7,20194.6,1282,""oops"",""right"",""left"",""bad_move"",26892.5,2988.7,2476.8,23903.8,511.9,""while_blue"",""right"",""right"",""good_move"",30157.1,3264,2804.2,26893.1,459.8,""smooth"",""right"",""right"",""good_move""]","",""
"3384","","<div style=""width:500px;"">
  <p>What determined the result of this run?</p>
  </div>","21","html-slider-response","65","683830","0.0-5.0-1.11","291","1","2025-07-30 13:14:49","1f75c3e559b7213887762d5229550c2b","148.252.147.68","Mozilla/5.0 (Windows NT 10.0; Win64; x64) AppleWebKit/537.36 (KHTML, like Gecko) Chrome/138.0.0.0 Safari/537.36 Edg/138.0.0.0","WebKit","Edge","138.0.0.0","Windows","10.0","https://app.prolific.com/","en-US,en;q=0.9,en-GB;q=0.8,ar;q=0.7,sq;q=0.6","676578b520552faa04a8ef83","6877631c9844ddd5501205fc","688a1abed6a5f721e1ccc87c","3","1","676578b520552faa04a8ef83","3","1","2025-07-30T13:26:14.558Z","","","","","","","","","","","AttribQ","","50","","","","","","","","","","","","","","","","","","","","","","","","","","","","",""
"3757","","<div style=""width:500px;"">
  <p>How much control did you have over the ball?</p>
  </div>","23","html-slider-response","66","687589","0.0-5.0-2.11","291","1","2025-07-30 13:14:49","1f75c3e559b7213887762d5229550c2b","148.252.147.68","Mozilla/5.0 (Windows NT 10.0; Win64; x64) AppleWebKit/537.36 (KHTML, like Gecko) Chrome/138.0.0.0 Safari/537.36 Edg/138.0.0.0","WebKit","Edge","138.0.0.0","Windows","10.0","https://app.prolific.com/","en-US,en;q=0.9,en-GB;q=0.8,ar;q=0.7,sq;q=0.6","676578b520552faa04a8ef83","6877631c9844ddd5501205fc","688a1abed6a5f721e1ccc87c","3","1","676578b520552faa04a8ef83","3","1","2025-07-30T13:26:18.316Z","","","","","","","","","","","ControlQ","","50","","","","","","","","","","","","","","","","","","","","","","","","","","","","",""
"2884","","<div style=""width:500px;"">
  <p>How would you describe your current emotional state?</p>
  </div>","100","html-slider-response","67","690475","0.0-5.0-3.11","291","1","2025-07-30 13:14:49","1f75c3e559b7213887762d5229550c2b","148.252.147.68","Mozilla/5.0 (Windows NT 10.0; Win64; x64) AppleWebKit/537.36 (KHTML, like Gecko) Chrome/138.0.0.0 Safari/537.36 Edg/138.0.0.0","WebKit","Edge","138.0.0.0","Windows","10.0","https://app.prolific.com/","en-US,en;q=0.9,en-GB;q=0.8,ar;q=0.7,sq;q=0.6","676578b520552faa04a8ef83","6877631c9844ddd5501205fc","688a1abed6a5f721e1ccc87c","3","1","676578b520552faa04a8ef83","3","1","2025-07-30T13:26:21.202Z","","","","","","","","","","","StressQ","","50","","","","","","","","","","","","","","","","","","","","","","","","","","","","",""
"2449","","<div style=""width:500px;"">
  <p>What best describes how you currently feel?</p>
  </div>","0","html-slider-response","68","692925","0.0-5.0-4.11","291","1","2025-07-30 13:14:49","1f75c3e559b7213887762d5229550c2b","148.252.147.68","Mozilla/5.0 (Windows NT 10.0; Win64; x64) AppleWebKit/537.36 (KHTML, like Gecko) Chrome/138.0.0.0 Safari/537.36 Edg/138.0.0.0","WebKit","Edge","138.0.0.0","Windows","10.0","https://app.prolific.com/","en-US,en;q=0.9,en-GB;q=0.8,ar;q=0.7,sq;q=0.6","676578b520552faa04a8ef83","6877631c9844ddd5501205fc","688a1abed6a5f721e1ccc87c","3","1","676578b520552faa04a8ef83","3","1","2025-07-30T13:26:23.653Z","","","","","","","","","","","MotivationQ","","50","","","","","","","","","","","","","","","","","","","","","","","","","","","","",""
"","","","","ctl-task-cpt","69","708169","0.0-5.0-0.12","291","1","2025-07-30 13:14:49","1f75c3e559b7213887762d5229550c2b","148.252.147.68","Mozilla/5.0 (Windows NT 10.0; Win64; x64) AppleWebKit/537.36 (KHTML, like Gecko) Chrome/138.0.0.0 Safari/537.36 Edg/138.0.0.0","WebKit","Edge","138.0.0.0","Windows","10.0","https://app.prolific.com/","en-US,en;q=0.9,en-GB;q=0.8,ar;q=0.7,sq;q=0.6","676578b520552faa04a8ef83","6877631c9844ddd5501205fc","688a1abed6a5f721e1ccc87c","3","1","676578b520552faa04a8ef83","3","1","2025-07-30T13:26:38.897Z","","","","","","","","","","","","","","win-only","2","g1:SE,g2:NW","0.7","13","0","700552.5","1228.6","6231.2","12233.9","1","4","4","6","1","-1","-1","0","0","0","1879.5","3000","-1830","[""down"",""right""]","{""num_key_presses"":0,""num_perfect"":0,""num_errors"":0,""num_randdir"":0,""num_randdir_good_moves"":0,""num_whilered"":0,""num_whileblue"":0,""num_blue"":0,""num_good_moves"":0}","[325.5,323.60937309265137,0.4,325.5,323.60937309265137,104.2,325.5,323.60937309265137,211,325.5,323.60937309265137,312.1,325.5,323.60937309265137,415.2,325.5,323.60937309265137,515.7,325.5,323.60937309265137,616.4,325.5,323.60937309265137,723.9,325.5,323.60937309265137,833.5,325.5,323.60937309265137,936.9,325.5,323.60937309265137,1038.9,325.5,323.60937309265137,1145.2,325.5,323.60937309265137,1249.9,325.5,323.60937309265137,1352.5,477,470.60937309265137,1455,556.5,536.6093730926514,1555.1,606,587.6093730926514,1658.7,616.5,601.1093730926514,1759.4,616.5,601.1093730926514,1860.1,616.5,601.1093730926514,1973.2,616.5,601.1093730926514,2075.3,616.5,601.1093730926514,2178.3,616.5,601.1093730926514,2278.9,616.5,601.1093730926514,2379,616.5,601.1093730926514,2486.2,616.5,601.1093730926514,2589.2,616.5,601.1093730926514,2692.8,616.5,601.1093730926514,2793.5,616.5,601.1093730926514,2902.8,616.5,601.1093730926514,3003.9,616.5,601.1093730926514,3110.8,616.5,601.1093730926514,3218.4,616.5,601.1093730926514,3320,616.5,601.1093730926514,3428.7,616.5,601.1093730926514,3531.7,616.5,601.1093730926514,3636.9,616.5,601.1093730926514,3738.1,616.5,601.1093730926514,3838.1,616.5,601.1093730926514,3938.1,616.5,601.1093730926514,4043.5,616.5,601.1093730926514,4144.2,616.5,601.1093730926514,4244.4,616.5,601.1093730926514,4362.9,616.5,601.1093730926514,4465.7,616.5,601.1093730926514,4567.3,616.5,601.1093730926514,4667.6,616.5,601.1093730926514,4768.1,616.5,601.1093730926514,4876.3,616.5,601.1093730926514,4978.5]","[]","",""
"4561","","<div style=""width:500px;"">
  <p>What determined the result of this run?</p>
  </div>","62","html-slider-response","70","712735","0.0-5.0-1.12","291","1","2025-07-30 13:14:49","1f75c3e559b7213887762d5229550c2b","148.252.147.68","Mozilla/5.0 (Windows NT 10.0; Win64; x64) AppleWebKit/537.36 (KHTML, like Gecko) Chrome/138.0.0.0 Safari/537.36 Edg/138.0.0.0","WebKit","Edge","138.0.0.0","Windows","10.0","https://app.prolific.com/","en-US,en;q=0.9,en-GB;q=0.8,ar;q=0.7,sq;q=0.6","676578b520552faa04a8ef83","6877631c9844ddd5501205fc","688a1abed6a5f721e1ccc87c","3","1","676578b520552faa04a8ef83","3","1","2025-07-30T13:26:43.462Z","","","","","","","","","","","AttribQ","","50","","","","","","","","","","","","","","","","","","","","","","","","","","","","",""
"3956","","<div style=""width:500px;"">
  <p>How much control did you have over the ball?</p>
  </div>","36","html-slider-response","71","716693","0.0-5.0-2.12","291","1","2025-07-30 13:14:49","1f75c3e559b7213887762d5229550c2b","148.252.147.68","Mozilla/5.0 (Windows NT 10.0; Win64; x64) AppleWebKit/537.36 (KHTML, like Gecko) Chrome/138.0.0.0 Safari/537.36 Edg/138.0.0.0","WebKit","Edge","138.0.0.0","Windows","10.0","https://app.prolific.com/","en-US,en;q=0.9,en-GB;q=0.8,ar;q=0.7,sq;q=0.6","676578b520552faa04a8ef83","6877631c9844ddd5501205fc","688a1abed6a5f721e1ccc87c","3","1","676578b520552faa04a8ef83","3","1","2025-07-30T13:26:47.421Z","","","","","","","","","","","ControlQ","","50","","","","","","","","","","","","","","","","","","","","","","","","","","","","",""
"2594","","<div style=""width:500px;"">
  <p>How would you describe your current emotional state?</p>
  </div>","100","html-slider-response","72","719291","0.0-5.0-3.12","291","1","2025-07-30 13:14:49","1f75c3e559b7213887762d5229550c2b","148.252.147.68","Mozilla/5.0 (Windows NT 10.0; Win64; x64) AppleWebKit/537.36 (KHTML, like Gecko) Chrome/138.0.0.0 Safari/537.36 Edg/138.0.0.0","WebKit","Edge","138.0.0.0","Windows","10.0","https://app.prolific.com/","en-US,en;q=0.9,en-GB;q=0.8,ar;q=0.7,sq;q=0.6","676578b520552faa04a8ef83","6877631c9844ddd5501205fc","688a1abed6a5f721e1ccc87c","3","1","676578b520552faa04a8ef83","3","1","2025-07-30T13:26:50.019Z","","","","","","","","","","","StressQ","","50","","","","","","","","","","","","","","","","","","","","","","","","","","","","",""
"2532","","<div style=""width:500px;"">
  <p>What best describes how you currently feel?</p>
  </div>","0","html-slider-response","73","721830","0.0-5.0-4.12","291","1","2025-07-30 13:14:49","1f75c3e559b7213887762d5229550c2b","148.252.147.68","Mozilla/5.0 (Windows NT 10.0; Win64; x64) AppleWebKit/537.36 (KHTML, like Gecko) Chrome/138.0.0.0 Safari/537.36 Edg/138.0.0.0","WebKit","Edge","138.0.0.0","Windows","10.0","https://app.prolific.com/","en-US,en;q=0.9,en-GB;q=0.8,ar;q=0.7,sq;q=0.6","676578b520552faa04a8ef83","6877631c9844ddd5501205fc","688a1abed6a5f721e1ccc87c","3","1","676578b520552faa04a8ef83","3","1","2025-07-30T13:26:52.557Z","","","","","","","","","","","MotivationQ","","50","","","","","","","","","","","","","","","","","","","","","","","","","","","","",""
"","","","","ctl-task-cpt","74","736964","0.0-5.0-0.13","291","1","2025-07-30 13:14:49","1f75c3e559b7213887762d5229550c2b","148.252.147.68","Mozilla/5.0 (Windows NT 10.0; Win64; x64) AppleWebKit/537.36 (KHTML, like Gecko) Chrome/138.0.0.0 Safari/537.36 Edg/138.0.0.0","WebKit","Edge","138.0.0.0","Windows","10.0","https://app.prolific.com/","en-US,en;q=0.9,en-GB;q=0.8,ar;q=0.7,sq;q=0.6","676578b520552faa04a8ef83","6877631c9844ddd5501205fc","688a1abed6a5f721e1ccc87c","3","1","676578b520552faa04a8ef83","3","1","2025-07-30T13:27:07.691Z","","","","","","","","","","","","","","win-only","0","g1:NW,g2:SE","0.8","14","0","729461","1248.4","6252.4","12115.8","1","4","8","6","1","-1","-1","0","0","0","1237.2","3000","-1815","[""left"",""up""]","{""num_key_presses"":0,""num_perfect"":0,""num_errors"":0,""num_randdir"":0,""num_randdir_good_moves"":0,""num_whilered"":0,""num_whileblue"":0,""num_blue"":0,""num_good_moves"":0}","[330,316.10937309265137,0.2,330,316.10937309265137,107.4,330,316.10937309265137,213.6,330,316.10937309265137,315.6,330,316.10937309265137,426,330,316.10937309265137,538.5,330,316.10937309265137,646.3,294,311.60937309265137,749.4,100.5,97.10937309265137,852.6,70.5,65.60937309265137,953.3,55.5,59.60937309265137,1055.3,54,58.10937309265137,1160.3,54,58.10937309265137,1261,54,58.10937309265137,1361.2,54,58.10937309265137,1470.8,54,58.10937309265137,1575.6,54,58.10937309265137,1676.7,54,58.10937309265137,1778.5,54,58.10937309265137,1880.2,54,58.10937309265137,1982,54,58.10937309265137,2083.5,54,58.10937309265137,2188,54,58.10937309265137,2293.1,54,58.10937309265137,2395.9,54,58.10937309265137,2499.2,54,58.10937309265137,2599.2,54,58.10937309265137,2703.2,54,58.10937309265137,2804.4,54,58.10937309265137,2913.1,54,58.10937309265137,3020.8,54,58.10937309265137,3122.8,54,58.10937309265137,3227.7,54,58.10937309265137,3332.8,54,58.10937309265137,3440.6,54,58.10937309265137,3551.6,54,58.10937309265137,3653.5,54,58.10937309265137,3753.9,54,58.10937309265137,3855.2,54,58.10937309265137,3960.8,54,58.10937309265137,4067.1,54,58.10937309265137,4171,54,58.10937309265137,4278.9,54,58.10937309265137,4383.5,54,58.10937309265137,4485.9,54,58.10937309265137,4594.2,54,58.10937309265137,4696.7,54,58.10937309265137,4797,54,58.10937309265137,4898.6,54,58.10937309265137,4999.6]","[]","",""
"4045","","<div style=""width:500px;"">
  <p>What determined the result of this run?</p>
  </div>","73","html-slider-response","75","741012","0.0-5.0-1.13","291","1","2025-07-30 13:14:49","1f75c3e559b7213887762d5229550c2b","148.252.147.68","Mozilla/5.0 (Windows NT 10.0; Win64; x64) AppleWebKit/537.36 (KHTML, like Gecko) Chrome/138.0.0.0 Safari/537.36 Edg/138.0.0.0","WebKit","Edge","138.0.0.0","Windows","10.0","https://app.prolific.com/","en-US,en;q=0.9,en-GB;q=0.8,ar;q=0.7,sq;q=0.6","676578b520552faa04a8ef83","6877631c9844ddd5501205fc","688a1abed6a5f721e1ccc87c","3","1","676578b520552faa04a8ef83","3","1","2025-07-30T13:27:11.740Z","","","","","","","","","","","AttribQ","","50","","","","","","","","","","","","","","","","","","","","","","","","","","","","",""
"3505","","<div style=""width:500px;"">
  <p>How much control did you have over the ball?</p>
  </div>","32","html-slider-response","76","744519","0.0-5.0-2.13","291","1","2025-07-30 13:14:49","1f75c3e559b7213887762d5229550c2b","148.252.147.68","Mozilla/5.0 (Windows NT 10.0; Win64; x64) AppleWebKit/537.36 (KHTML, like Gecko) Chrome/138.0.0.0 Safari/537.36 Edg/138.0.0.0","WebKit","Edge","138.0.0.0","Windows","10.0","https://app.prolific.com/","en-US,en;q=0.9,en-GB;q=0.8,ar;q=0.7,sq;q=0.6","676578b520552faa04a8ef83","6877631c9844ddd5501205fc","688a1abed6a5f721e1ccc87c","3","1","676578b520552faa04a8ef83","3","1","2025-07-30T13:27:15.246Z","","","","","","","","","","","ControlQ","","50","","","","","","","","","","","","","","","","","","","","","","","","","","","","",""
"3049","","<div style=""width:500px;"">
  <p>How would you describe your current emotional state?</p>
  </div>","100","html-slider-response","77","747571","0.0-5.0-3.13","291","1","2025-07-30 13:14:49","1f75c3e559b7213887762d5229550c2b","148.252.147.68","Mozilla/5.0 (Windows NT 10.0; Win64; x64) AppleWebKit/537.36 (KHTML, like Gecko) Chrome/138.0.0.0 Safari/537.36 Edg/138.0.0.0","WebKit","Edge","138.0.0.0","Windows","10.0","https://app.prolific.com/","en-US,en;q=0.9,en-GB;q=0.8,ar;q=0.7,sq;q=0.6","676578b520552faa04a8ef83","6877631c9844ddd5501205fc","688a1abed6a5f721e1ccc87c","3","1","676578b520552faa04a8ef83","3","1","2025-07-30T13:27:18.298Z","","","","","","","","","","","StressQ","","50","","","","","","","","","","","","","","","","","","","","","","","","","","","","",""
"2457","","<div style=""width:500px;"">
  <p>What best describes how you currently feel?</p>
  </div>","0","html-slider-response","78","750031","0.0-5.0-4.13","291","1","2025-07-30 13:14:49","1f75c3e559b7213887762d5229550c2b","148.252.147.68","Mozilla/5.0 (Windows NT 10.0; Win64; x64) AppleWebKit/537.36 (KHTML, like Gecko) Chrome/138.0.0.0 Safari/537.36 Edg/138.0.0.0","WebKit","Edge","138.0.0.0","Windows","10.0","https://app.prolific.com/","en-US,en;q=0.9,en-GB;q=0.8,ar;q=0.7,sq;q=0.6","676578b520552faa04a8ef83","6877631c9844ddd5501205fc","688a1abed6a5f721e1ccc87c","3","1","676578b520552faa04a8ef83","3","1","2025-07-30T13:27:20.758Z","","","","","","","","","","","MotivationQ","","50","","","","","","","","","","","","","","","","","","","","","","","","","","","","",""
