"rt","response_timestamp","stimulus","response","trial_type","trial_index","time_elapsed","internal_node_id","run_id","condition","recorded_at","source_code_version","ip","user_agent","device","browser","browser_version","platform","platform_version","referer","accept_language","PROLIFIC_PID","STUDY_ID","SESSION_ID","WEEK","BATCH","prolific_id","week","batch","realtime","success","responses","item_order","radio_event_ids","radio_event_times","key_event_times","mouse_event_times","straightlining","zigzagging","honeypot","eventType","view_history","slider_start","which_type","canvas_config","goals_layout","control_level","trial_number","tutorial_trial_number","trial_start_time","phase1_start_time","phase2_start_time","phase3_start_time","goal_1_value","goal_1_distance","goal_2_value","goal_2_distance","goal_selected","outcome","outcome_total","participant_final_score","participant_initial_score","participant_final_score_prop","goal_choice_rt","allocated_time","allocated_time_remaining","goal_direction","counts","mouse_movements","key_presses"
"2777","1752660856801","<p style='font-size:40px;line-height:1.25'><strong>Welcome to the experiment!</strong></p><p style='font-size:1.1em;line-height:1.25'>Thank you for participanting in our experiment again! You will be asked to play the Dysfunctional Ball Game again. We will briefly recap the rules before we start.</p><p style='font-size:1.1em;line-height:1.25'>Press <strong>Next</strong> to continue.</p>","0","custom-html-button-response","0","2787","0.0-0.0","99","1","2025-07-16 10:20:46","1f75c3e559b7213887762d5229550c2b","105.12.2.199","Mozilla/5.0 (Windows NT 10.0; Win64; x64) AppleWebKit/537.36 (KHTML, like Gecko) Chrome/137.0.0.0 Safari/537.36","WebKit","Chrome","137.0.0.0","Windows","10.0","https://app.prolific.com/","en-US,en;q=0.9","60f7c71d1cffec381351b0b3","68764874ac79eee8c1d4cb03","68777ce6621a31e4983a8817","2","0","60f7c71d1cffec381351b0b3","2","0","2025-07-16T10:14:16.807Z","","","","","","","","","","","","","","","","","","","","","","","","","","","","","","","","","","","","","","","",""
"2008","","","","fullscreen","1","5804","0.0-1.0","99","1","2025-07-16 10:20:46","1f75c3e559b7213887762d5229550c2b","105.12.2.199","Mozilla/5.0 (Windows NT 10.0; Win64; x64) AppleWebKit/537.36 (KHTML, like Gecko) Chrome/137.0.0.0 Safari/537.36","WebKit","Chrome","137.0.0.0","Windows","10.0","https://app.prolific.com/","en-US,en;q=0.9","60f7c71d1cffec381351b0b3","68764874ac79eee8c1d4cb03","68777ce6621a31e4983a8817","2","0","60f7c71d1cffec381351b0b3","2","0","","true","","","","","","","","","","","","","","","","","","","","","","","","","","","","","","","","","","","","","","",""
"1682","1752660861507","<p style='font-size:1.1em;line-height:1.25'>In the following, we will ask you a few questions relating to your feelings in the last 24 hours.<br></p><p style='font-size:1.1em;line-height:1.25'>Press the <strong>Next</strong> button to continue.</p>","0","custom-html-button-response","2","7489","0.0-2.0-0.0","99","1","2025-07-16 10:20:46","1f75c3e559b7213887762d5229550c2b","105.12.2.199","Mozilla/5.0 (Windows NT 10.0; Win64; x64) AppleWebKit/537.36 (KHTML, like Gecko) Chrome/137.0.0.0 Safari/537.36","WebKit","Chrome","137.0.0.0","Windows","10.0","https://app.prolific.com/","en-US,en;q=0.9","60f7c71d1cffec381351b0b3","68764874ac79eee8c1d4cb03","68777ce6621a31e4983a8817","2","0","60f7c71d1cffec381351b0b3","2","0","2025-07-16T10:14:21.508Z","","","","","","","","","","","","","","","","","","","","","","","","","","","","","","","","","","","","","","","",""
"57079.09999999404","","","","survey-template","3","64594","0.0-2.0-1.0","99","1","2025-07-16 10:20:46","1f75c3e559b7213887762d5229550c2b","105.12.2.199","Mozilla/5.0 (Windows NT 10.0; Win64; x64) AppleWebKit/537.36 (KHTML, like Gecko) Chrome/137.0.0.0 Safari/537.36","WebKit","Chrome","137.0.0.0","Windows","10.0","https://app.prolific.com/","en-US,en;q=0.9","60f7c71d1cffec381351b0b3","68764874ac79eee8c1d4cb03","68777ce6621a31e4983a8817","2","0","60f7c71d1cffec381351b0b3","2","0","2025-07-16T10:15:18.614Z","","{""Q01"":""0"",""Q02"":""0"",""Q03"":""0"",""Q04"":""0"",""Q05"":""0"",""Q06"":""0"",""Q07"":""0"",""Q08"":""0"",""Q09"":""0"",""Q10"":""0"",""Q11"":""0"",""Q12"":""4"",""Q13"":""5"",""Q14"":""0"",""Q15"":""0"",""Q16"":""0"",""Q17"":""0"",""Q18"":""0"",""Q19"":""0"",""Q20"":""0"",""Q21"":""0"",""Q22"":""0""}","[0,1,2,3,4,5,6,7,8,9,10,11,12,13,14,15,16,17,18,19,20,21]","[""Q01"",""Q02"",""Q03"",""Q04"",""Q05"",""Q06"",""Q07"",""Q15"",""Q14"",""Q13"",""Q12"",""Q11"",""Q08"",""Q09"",""Q10"",""Q19"",""Q18"",""Q17"",""Q16"",""Q21"",""Q20"",""Q22""]","[3414.5999999940395,4542.70000000298,8013.9000000059605,11039.29999999702,12269.79999999702,13252.29999999702,14449.59999999404,17836.20000000298,19134.5,21997.90000000596,27104.09999999404,31158.79999999702,35221.40000000596,36527.29999999702,37755.40000000596,44598.09999999404,45643.5,46963.5,48107.09999999404,52776.5,53875,55242.20000000298]","[]","[2.4000000059604645,3414.5999999940395,4542.70000000298,8013.9000000059605,11039.29999999702,12269.79999999702,13252.29999999702,14449.59999999404,17836.20000000298,19134.5,21997.90000000596,23886.90000000596,27104.09999999404,28909.20000000298,30782.79999999702,31158.79999999702,35221.40000000596,36527.29999999702,37755.40000000596,44598.09999999404,45643.5,46963.5,48107.09999999404,52415,52776.5,53875,55242.20000000298,57061.5]","0.9090909090909091","0.09523809523809523","0","drsp","","","","","","","","","","","","","","","","","","","","","","","","","","","","",""
"8001.800000011921","","","","survey-template","4","72606","0.0-2.0-2.0","99","1","2025-07-16 10:20:46","1f75c3e559b7213887762d5229550c2b","105.12.2.199","Mozilla/5.0 (Windows NT 10.0; Win64; x64) AppleWebKit/537.36 (KHTML, like Gecko) Chrome/137.0.0.0 Safari/537.36","WebKit","Chrome","137.0.0.0","Windows","10.0","https://app.prolific.com/","en-US,en;q=0.9","60f7c71d1cffec381351b0b3","68764874ac79eee8c1d4cb03","68777ce6621a31e4983a8817","2","0","60f7c71d1cffec381351b0b3","2","0","2025-07-16T10:15:26.626Z","","{""Q01"":""0"",""Q02"":""5"",""Q03"":""0""}","[0,1,2]","[""Q02"",""Q01"",""Q03""]","[3759,5141.300000011921,6815.5]","[]","[2447,3759,5141.300000011921,6815.5,7998.5]","1","0","0","stress","","","","","","","","","","","","","","","","","","","","","","","","","","","","",""
"15037","","","","instructions","5","87650","0.0-3.0-0.0","99","1","2025-07-16 10:20:46","1f75c3e559b7213887762d5229550c2b","105.12.2.199","Mozilla/5.0 (Windows NT 10.0; Win64; x64) AppleWebKit/537.36 (KHTML, like Gecko) Chrome/137.0.0.0 Safari/537.36","WebKit","Chrome","137.0.0.0","Windows","10.0","https://app.prolific.com/","en-US,en;q=0.9","60f7c71d1cffec381351b0b3","68764874ac79eee8c1d4cb03","68777ce6621a31e4983a8817","2","0","60f7c71d1cffec381351b0b3","2","0","","","","","","","","","","","","","[{""page_index"":0,""viewing_time"":15035}]","","","","","","","","","","","","","","","","","","","","","","","","","","","",""
"4558","","<p>Before you start with this game please answer the following three questions yourself. </p>
  <p>Through this game, we measure several aspects of your cognitive performance, such as reaction times, multi-tasking capabilities </p>
  <p>and the ability to assess the situation you are in.</p>
  <p></p>
  <p><b>How good do you usually are in such tasks?</b></p>","80","html-slider-response","6","92213","0.0-4.0-0.0","99","1","2025-07-16 10:20:46","1f75c3e559b7213887762d5229550c2b","105.12.2.199","Mozilla/5.0 (Windows NT 10.0; Win64; x64) AppleWebKit/537.36 (KHTML, like Gecko) Chrome/137.0.0.0 Safari/537.36","WebKit","Chrome","137.0.0.0","Windows","10.0","https://app.prolific.com/","en-US,en;q=0.9","60f7c71d1cffec381351b0b3","68764874ac79eee8c1d4cb03","68777ce6621a31e4983a8817","2","0","60f7c71d1cffec381351b0b3","2","0","2025-07-16T10:15:46.232Z","","","","","","","","","","","PreSkillQ","","50","","","","","","","","","","","","","","","","","","","","","","","","","","",""
"3351","","<div style=""width:500px;"">
  <p>How well do you think you will perform in this task compared to other participants?</p>
  </div>","75","html-slider-response","7","95568","0.0-4.0-1.0","99","1","2025-07-16 10:20:46","1f75c3e559b7213887762d5229550c2b","105.12.2.199","Mozilla/5.0 (Windows NT 10.0; Win64; x64) AppleWebKit/537.36 (KHTML, like Gecko) Chrome/137.0.0.0 Safari/537.36","WebKit","Chrome","137.0.0.0","Windows","10.0","https://app.prolific.com/","en-US,en;q=0.9","60f7c71d1cffec381351b0b3","68764874ac79eee8c1d4cb03","68777ce6621a31e4983a8817","2","0","60f7c71d1cffec381351b0b3","2","0","2025-07-16T10:15:49.587Z","","","","","","","","","","","PrePerfQ","","50","","","","","","","","","","","","","","","","","","","","","","","","","","",""
"4090","","<div style=""width:500px;"">
  <p>What best describes how you currently feel?</p>
  </div>","93","html-slider-response","8","99661","0.0-4.0-2.0","99","1","2025-07-16 10:20:46","1f75c3e559b7213887762d5229550c2b","105.12.2.199","Mozilla/5.0 (Windows NT 10.0; Win64; x64) AppleWebKit/537.36 (KHTML, like Gecko) Chrome/137.0.0.0 Safari/537.36","WebKit","Chrome","137.0.0.0","Windows","10.0","https://app.prolific.com/","en-US,en;q=0.9","60f7c71d1cffec381351b0b3","68764874ac79eee8c1d4cb03","68777ce6621a31e4983a8817","2","0","60f7c71d1cffec381351b0b3","2","0","2025-07-16T10:15:53.681Z","","","","","","","","","","","PreMotivationQ","","50","","","","","","","","","","","","","","","","","","","","","","","","","","",""
"","","","","ctl-task-cpt","9","113046","0.0-5.0-0.0","99","1","2025-07-16 10:20:46","1f75c3e559b7213887762d5229550c2b","105.12.2.199","Mozilla/5.0 (Windows NT 10.0; Win64; x64) AppleWebKit/537.36 (KHTML, like Gecko) Chrome/137.0.0.0 Safari/537.36","WebKit","Chrome","137.0.0.0","Windows","10.0","https://app.prolific.com/","en-US,en;q=0.9","60f7c71d1cffec381351b0b3","68764874ac79eee8c1d4cb03","68777ce6621a31e4983a8817","2","0","60f7c71d1cffec381351b0b3","2","0","2025-07-16T10:16:07.065Z","","","","","","","","","","","","","","win-only","0","g1:NW,g2:SE","1","1","0","112658","5341.9","-9999","10369.2","1","4","4","6","-9999","-4","-4","0","0","0","-9999","3000","3000","[]","{""num_key_presses"":0,""num_perfect"":0,""num_errors"":0,""num_randdir"":0,""num_randdir_good_moves"":0,""num_whilered"":0,""num_whileblue"":0,""num_blue"":0,""num_good_moves"":0}","[299.22232142857143,299.12857142857143,9.6,299.22232142857143,299.12857142857143,102.2,299.22232142857143,299.12857142857143,208,299.22232142857143,299.12857142857143,311.1,299.22232142857143,299.12857142857143,429,299.22232142857143,299.12857142857143,533.2,299.22232142857143,299.12857142857143,635.3,299.22232142857143,299.12857142857143,735.5,299.22232142857143,299.12857142857143,835.8,299.22232142857143,299.12857142857143,942.6,299.22232142857143,299.12857142857143,1047.8,299.22232142857143,299.12857142857143,1150.3,299.22232142857143,299.12857142857143,1278.6,299.22232142857143,299.12857142857143,1379.3,299.22232142857143,299.12857142857143,1479.4,299.22232142857143,299.12857142857143,1583.9,299.22232142857143,299.12857142857143,1692.4,299.22232142857143,299.12857142857143,1803.7,299.22232142857143,299.12857142857143,1913.8,299.22232142857143,299.12857142857143,2021.1,299.22232142857143,299.12857142857143,2124.4,299.22232142857143,299.12857142857143,2227.1,299.22232142857143,299.12857142857143,2328.1,299.22232142857143,299.12857142857143,2433.8,305.22232142857143,301.12857142857143,2536.3,473.22232142857143,472.12857142857143,2650.8,520.2223214285714,543.1285714285714,2761,520.2223214285714,543.1285714285714,2866.2,521.2223214285714,557.1285714285714,2970.4,521.2223214285714,557.1285714285714,3083.6,521.2223214285714,557.1285714285714,3202.9,521.2223214285714,557.1285714285714,3302.9,521.2223214285714,557.1285714285714,3411.5,521.2223214285714,557.1285714285714,3512.5,521.2223214285714,557.1285714285714,3614,468.22232142857143,532.1285714285714,3742.4,406.22232142857143,474.12857142857143,3842.4,401.22232142857143,450.12857142857143,3943.2,401.22232142857143,446.12857142857143,4099.8,401.22232142857143,446.12857142857143,4200.8,401.22232142857143,446.12857142857143,4302.7,401.22232142857143,446.12857142857143,4410.4,401.22232142857143,446.12857142857143,4511.6,401.22232142857143,446.12857142857143,4627,401.22232142857143,446.12857142857143,4742.1,401.22232142857143,446.12857142857143,4860.9,401.22232142857143,446.12857142857143,4975.1]","[]"
"5044","","<div style=""width:500px;"">
  <p>What determined the result of this run?</p>
  </div>","79","html-slider-response","10","118093","0.0-5.0-1.0","99","1","2025-07-16 10:20:46","1f75c3e559b7213887762d5229550c2b","105.12.2.199","Mozilla/5.0 (Windows NT 10.0; Win64; x64) AppleWebKit/537.36 (KHTML, like Gecko) Chrome/137.0.0.0 Safari/537.36","WebKit","Chrome","137.0.0.0","Windows","10.0","https://app.prolific.com/","en-US,en;q=0.9","60f7c71d1cffec381351b0b3","68764874ac79eee8c1d4cb03","68777ce6621a31e4983a8817","2","0","60f7c71d1cffec381351b0b3","2","0","2025-07-16T10:16:12.113Z","","","","","","","","","","","AttribQ","","50","","","","","","","","","","","","","","","","","","","","","","","","","","",""
"3537","","<div style=""width:500px;"">
  <p>How much control did you have over the ball?</p>
  </div>","0","html-slider-response","11","121635","0.0-5.0-2.0","99","1","2025-07-16 10:20:46","1f75c3e559b7213887762d5229550c2b","105.12.2.199","Mozilla/5.0 (Windows NT 10.0; Win64; x64) AppleWebKit/537.36 (KHTML, like Gecko) Chrome/137.0.0.0 Safari/537.36","WebKit","Chrome","137.0.0.0","Windows","10.0","https://app.prolific.com/","en-US,en;q=0.9","60f7c71d1cffec381351b0b3","68764874ac79eee8c1d4cb03","68777ce6621a31e4983a8817","2","0","60f7c71d1cffec381351b0b3","2","0","2025-07-16T10:16:15.654Z","","","","","","","","","","","ControlQ","","50","","","","","","","","","","","","","","","","","","","","","","","","","","",""
"3686","","<div style=""width:500px;"">
  <p>How would you describe your current emotional state?</p>
  </div>","2","html-slider-response","12","125326","0.0-5.0-3.0","99","1","2025-07-16 10:20:46","1f75c3e559b7213887762d5229550c2b","105.12.2.199","Mozilla/5.0 (Windows NT 10.0; Win64; x64) AppleWebKit/537.36 (KHTML, like Gecko) Chrome/137.0.0.0 Safari/537.36","WebKit","Chrome","137.0.0.0","Windows","10.0","https://app.prolific.com/","en-US,en;q=0.9","60f7c71d1cffec381351b0b3","68764874ac79eee8c1d4cb03","68777ce6621a31e4983a8817","2","0","60f7c71d1cffec381351b0b3","2","0","2025-07-16T10:16:19.345Z","","","","","","","","","","","StressQ","","50","","","","","","","","","","","","","","","","","","","","","","","","","","",""
"3407","","<div style=""width:500px;"">
  <p>What best describes how you currently feel?</p>
  </div>","84","html-slider-response","13","128737","0.0-5.0-4.0","99","1","2025-07-16 10:20:46","1f75c3e559b7213887762d5229550c2b","105.12.2.199","Mozilla/5.0 (Windows NT 10.0; Win64; x64) AppleWebKit/537.36 (KHTML, like Gecko) Chrome/137.0.0.0 Safari/537.36","WebKit","Chrome","137.0.0.0","Windows","10.0","https://app.prolific.com/","en-US,en;q=0.9","60f7c71d1cffec381351b0b3","68764874ac79eee8c1d4cb03","68777ce6621a31e4983a8817","2","0","60f7c71d1cffec381351b0b3","2","0","2025-07-16T10:16:22.756Z","","","","","","","","","","","MotivationQ","","50","","","","","","","","","","","","","","","","","","","","","","","","","","",""
"","","","","ctl-task-cpt","14","181354","0.0-5.0-0.1","99","1","2025-07-16 10:20:46","1f75c3e559b7213887762d5229550c2b","105.12.2.199","Mozilla/5.0 (Windows NT 10.0; Win64; x64) AppleWebKit/537.36 (KHTML, like Gecko) Chrome/137.0.0.0 Safari/537.36","WebKit","Chrome","137.0.0.0","Windows","10.0","https://app.prolific.com/","en-US,en;q=0.9","60f7c71d1cffec381351b0b3","68764874ac79eee8c1d4cb03","68777ce6621a31e4983a8817","2","0","60f7c71d1cffec381351b0b3","2","0","2025-07-16T10:17:15.373Z","","","","","","","","","","","","","","win-only","1","g1:NE,g2:SW","0.9","2","0","141727.1","1820.1","6830.6","49595.6","1","4","8","6","2","-8","-9","0","0","0","1494.8","3000","-2015","[""down"",""left""]","{""num_key_presses"":9,""num_perfect"":7,""num_errors"":1,""num_randdir"":1,""num_randdir_good_moves"":0,""num_whilered"":0,""num_whileblue"":1,""num_blue"":5,""num_good_moves"":7}","[297.22232142857143,297.12857142857143,0.5,297.22232142857143,297.12857142857143,105.3,297.22232142857143,297.12857142857143,213.3,297.22232142857143,297.12857142857143,314,300.22232142857143,309.12857142857143,425.6,313.22232142857143,382.12857142857143,526.3,55.222321428571426,544.1285714285714,627.6,0.22232142857142634,564.1285714285714,730,0.22232142857142634,564.1285714285714,848.4,0.22232142857142634,564.1285714285714,948.8,0.22232142857142634,564.1285714285714,1064.5,23.222321428571426,558.1285714285714,1165,26.222321428571426,556.1285714285714,1294.5,26.222321428571426,556.1285714285714,1398.4,26.222321428571426,556.1285714285714,1506.9,26.222321428571426,556.1285714285714,1610.6,26.222321428571426,556.1285714285714,1716.1,26.222321428571426,556.1285714285714,1827.8,26.222321428571426,556.1285714285714,1927.9,26.222321428571426,556.1285714285714,2029,26.222321428571426,556.1285714285714,2132.5,28.222321428571426,556.1285714285714,2236.6,100.22232142857143,558.1285714285714,2356.4,365.22232142857143,466.12857142857143,2481.5,437.22232142857143,431.12857142857143,2585.6,437.22232142857143,431.12857142857143,2692.2,437.22232142857143,431.12857142857143,2793.7,437.22232142857143,431.12857142857143,2903.9,437.22232142857143,431.12857142857143,3004.7,437.22232142857143,431.12857142857143,3107.6,437.22232142857143,431.12857142857143,3211.1,437.22232142857143,431.12857142857143,3324.4,437.22232142857143,431.12857142857143,3424.9,437.22232142857143,431.12857142857143,3544.7,437.22232142857143,431.12857142857143,3647.9,437.22232142857143,431.12857142857143,3752.8,437.22232142857143,431.12857142857143,3854.5,437.22232142857143,431.12857142857143,3963.6,437.22232142857143,431.12857142857143,4064.2,437.22232142857143,431.12857142857143,4169.6,437.22232142857143,431.12857142857143,4273.9,437.22232142857143,431.12857142857143,4378.2,437.22232142857143,431.12857142857143,4483,437.22232142857143,431.12857142857143,4632.5,437.22232142857143,431.12857142857143,4741.8,437.22232142857143,431.12857142857143,4847.1,437.22232142857143,431.12857142857143,4957.3]","[6085.3,6085.2,2985.8,2011,1088.5,""smooth"",""down"",""down"",""good_move"",9327.9,3240.5,2727.2,6087.4,513.3,""smooth"",""down"",""down"",""good_move"",12544,3211.9,2840.4,9332.3,371.4,""smooth"",""down"",""down"",""good_move"",15340.9,2794.7,2447.6,12546.2,347.1,""while_blue"",""left"",""right"",""bad_move"",20753,5409.6,1840.2,18406.3,506.5,""oops"",""left"",""up"",""bad_move"",27325.4,6570.3,2400.1,24371.7,553.6,""smooth"",""left"",""left"",""good_move"",30257.6,2929.1,2206.7,27328.5,722.4,""smooth"",""left"",""left"",""good_move"",33350.4,3088.7,2569.8,30261.8,518.8,""smooth"",""left"",""left"",""good_move"",35895,2542.2,1912.8,33352.8,629.4,""smooth"",""left"",""left"",""good_move""]"
"94726","","<div style=""width:500px;"">
  <p>What determined the result of this run?</p>
  </div>","91","html-slider-response","15","276086","0.0-5.0-1.1","99","1","2025-07-16 10:20:46","1f75c3e559b7213887762d5229550c2b","105.12.2.199","Mozilla/5.0 (Windows NT 10.0; Win64; x64) AppleWebKit/537.36 (KHTML, like Gecko) Chrome/137.0.0.0 Safari/537.36","WebKit","Chrome","137.0.0.0","Windows","10.0","https://app.prolific.com/","en-US,en;q=0.9","60f7c71d1cffec381351b0b3","68764874ac79eee8c1d4cb03","68777ce6621a31e4983a8817","2","0","60f7c71d1cffec381351b0b3","2","0","2025-07-16T10:18:50.105Z","","","","","","","","","","","AttribQ","","50","","","","","","","","","","","","","","","","","","","","","","","","","","",""
"16147","","<div style=""width:500px;"">
  <p>How much control did you have over the ball?</p>
  </div>","10","html-slider-response","16","292242","0.0-5.0-2.1","99","1","2025-07-16 10:20:46","1f75c3e559b7213887762d5229550c2b","105.12.2.199","Mozilla/5.0 (Windows NT 10.0; Win64; x64) AppleWebKit/537.36 (KHTML, like Gecko) Chrome/137.0.0.0 Safari/537.36","WebKit","Chrome","137.0.0.0","Windows","10.0","https://app.prolific.com/","en-US,en;q=0.9","60f7c71d1cffec381351b0b3","68764874ac79eee8c1d4cb03","68777ce6621a31e4983a8817","2","0","60f7c71d1cffec381351b0b3","2","0","2025-07-16T10:19:06.262Z","","","","","","","","","","","ControlQ","","50","","","","","","","","","","","","","","","","","","","","","","","","","","",""
"3394","","<div style=""width:500px;"">
  <p>How would you describe your current emotional state?</p>
  </div>","5","html-slider-response","17","295643","0.0-5.0-3.1","99","1","2025-07-16 10:20:46","1f75c3e559b7213887762d5229550c2b","105.12.2.199","Mozilla/5.0 (Windows NT 10.0; Win64; x64) AppleWebKit/537.36 (KHTML, like Gecko) Chrome/137.0.0.0 Safari/537.36","WebKit","Chrome","137.0.0.0","Windows","10.0","https://app.prolific.com/","en-US,en;q=0.9","60f7c71d1cffec381351b0b3","68764874ac79eee8c1d4cb03","68777ce6621a31e4983a8817","2","0","60f7c71d1cffec381351b0b3","2","0","2025-07-16T10:19:09.665Z","","","","","","","","","","","StressQ","","50","","","","","","","","","","","","","","","","","","","","","","","","","","",""
"3699","","<div style=""width:500px;"">
  <p>What best describes how you currently feel?</p>
  </div>","97","html-slider-response","18","299352","0.0-5.0-4.1","99","1","2025-07-16 10:20:46","1f75c3e559b7213887762d5229550c2b","105.12.2.199","Mozilla/5.0 (Windows NT 10.0; Win64; x64) AppleWebKit/537.36 (KHTML, like Gecko) Chrome/137.0.0.0 Safari/537.36","WebKit","Chrome","137.0.0.0","Windows","10.0","https://app.prolific.com/","en-US,en;q=0.9","60f7c71d1cffec381351b0b3","68764874ac79eee8c1d4cb03","68777ce6621a31e4983a8817","2","0","60f7c71d1cffec381351b0b3","2","0","2025-07-16T10:19:13.371Z","","","","","","","","","","","MotivationQ","","50","","","","","","","","","","","","","","","","","","","","","","","","","","",""
"","","","","ctl-task-cpt","19","341261","0.0-5.0-0.2","99","1","2025-07-16 10:20:46","1f75c3e559b7213887762d5229550c2b","105.12.2.199","Mozilla/5.0 (Windows NT 10.0; Win64; x64) AppleWebKit/537.36 (KHTML, like Gecko) Chrome/137.0.0.0 Safari/537.36","WebKit","Chrome","137.0.0.0","Windows","10.0","https://app.prolific.com/","en-US,en;q=0.9","60f7c71d1cffec381351b0b3","68764874ac79eee8c1d4cb03","68777ce6621a31e4983a8817","2","0","60f7c71d1cffec381351b0b3","2","0","2025-07-16T10:19:55.280Z","","","","","","","","","","","","","","win-only","2","g1:SE,g2:NW","0.8","3","0","312347","1751.3","6755.7","38889.3","1","4","4","6","2","4","4","4","0","0.030303030303030304","2075.4","3000","650","[""left"",""up""]","{""num_key_presses"":8,""num_perfect"":7,""num_errors"":0,""num_randdir"":1,""num_randdir_good_moves"":0,""num_whilered"":0,""num_whileblue"":0,""num_blue"":3,""num_good_moves"":7}","[298.22232142857143,300.12857142857143,0.1,298.22232142857143,300.12857142857143,107.1,298.22232142857143,300.12857142857143,213,298.22232142857143,300.12857142857143,318.2,298.22232142857143,300.12857142857143,425.4,325.22232142857143,345.12857142857143,535.6,340.22232142857143,378.12857142857143,635.9,322.22232142857143,361.12857142857143,738.4,169.22232142857143,169.12857142857143,843.2,169.22232142857143,169.12857142857143,949,199.22232142857143,201.12857142857143,1057.8,384.22232142857143,423.12857142857143,1158.7,390.22232142857143,435.12857142857143,1274,300.22232142857143,315.12857142857143,1389.3,129.22232142857143,118.12857142857143,1494.7,129.22232142857143,118.12857142857143,1595.7,121.22232142857143,111.12857142857143,1696.3,75.22232142857143,46.128571428571426,1803.6,70.22232142857143,33.128571428571426,1905.8,70.22232142857143,33.128571428571426,2021.3,70.22232142857143,33.128571428571426,2127.5,70.22232142857143,33.128571428571426,2236.5,70.22232142857143,33.128571428571426,2341.4,70.22232142857143,38.128571428571426,2441.9,88.22232142857143,109.12857142857143,2542,102.22232142857143,159.12857142857143,2705,111.22232142857143,203.12857142857143,2816.3,111.22232142857143,203.12857142857143,2917.4,111.22232142857143,203.12857142857143,3018.5,111.22232142857143,203.12857142857143,3155.9,111.22232142857143,203.12857142857143,3256.4,111.22232142857143,203.12857142857143,3363.1,111.22232142857143,203.12857142857143,3466.9,111.22232142857143,203.12857142857143,3574.4,111.22232142857143,203.12857142857143,3678.6,111.22232142857143,203.12857142857143,3784.7,111.22232142857143,203.12857142857143,3889.9,111.22232142857143,203.12857142857143,3991,111.22232142857143,203.12857142857143,4091.3,111.22232142857143,203.12857142857143,4201,111.22232142857143,203.12857142857143,4302.3,111.22232142857143,203.12857142857143,4406.3,111.22232142857143,203.12857142857143,4513.3,111.22232142857143,203.12857142857143,4619.5,111.22232142857143,203.12857142857143,4720.3,111.22232142857143,203.12857142857143,4823.8,111.22232142857143,203.12857142857143,4928.4]","[4551.7,4551.7,1865.9,2001.6,684.2,""smooth"",""left"",""left"",""good_move"",7635.7,3081.6,2536.4,4554.2,545.2,""smooth"",""left"",""left"",""good_move"",10152.9,2513.4,2077.1,7639.6,436.2,""oops"",""left"",""down"",""bad_move"",13309.1,3153.3,2761.7,10155.9,391.5,""smooth"",""up"",""up"",""good_move"",19962.9,6649.3,2393.5,17139.8,429.7,""smooth"",""up"",""up"",""good_move"",23290.6,3315.2,2200.6,19975.5,1114.5,""smooth"",""up"",""up"",""good_move"",26628.9,3318.1,2975.3,23310.8,342.8,""smooth"",""up"",""up"",""good_move"",31933.1,5302.2,2310.7,29166.4,456.1,""smooth"",""left"",""left"",""good_move""]"
"5010","","<div style=""width:500px;"">
  <p>What determined the result of this run?</p>
  </div>","100","html-slider-response","20","346276","0.0-5.0-1.2","99","1","2025-07-16 10:20:46","1f75c3e559b7213887762d5229550c2b","105.12.2.199","Mozilla/5.0 (Windows NT 10.0; Win64; x64) AppleWebKit/537.36 (KHTML, like Gecko) Chrome/137.0.0.0 Safari/537.36","WebKit","Chrome","137.0.0.0","Windows","10.0","https://app.prolific.com/","en-US,en;q=0.9","60f7c71d1cffec381351b0b3","68764874ac79eee8c1d4cb03","68777ce6621a31e4983a8817","2","0","60f7c71d1cffec381351b0b3","2","0","2025-07-16T10:20:00.296Z","","","","","","","","","","","AttribQ","","50","","","","","","","","","","","","","","","","","","","","","","","","","","",""
"4136","","<div style=""width:500px;"">
  <p>How much control did you have over the ball?</p>
  </div>","86","html-slider-response","21","350419","0.0-5.0-2.2","99","1","2025-07-16 10:20:46","1f75c3e559b7213887762d5229550c2b","105.12.2.199","Mozilla/5.0 (Windows NT 10.0; Win64; x64) AppleWebKit/537.36 (KHTML, like Gecko) Chrome/137.0.0.0 Safari/537.36","WebKit","Chrome","137.0.0.0","Windows","10.0","https://app.prolific.com/","en-US,en;q=0.9","60f7c71d1cffec381351b0b3","68764874ac79eee8c1d4cb03","68777ce6621a31e4983a8817","2","0","60f7c71d1cffec381351b0b3","2","0","2025-07-16T10:20:04.438Z","","","","","","","","","","","ControlQ","","50","","","","","","","","","","","","","","","","","","","","","","","","","","",""
"3690","","<div style=""width:500px;"">
  <p>How would you describe your current emotional state?</p>
  </div>","20","html-slider-response","22","354116","0.0-5.0-3.2","99","1","2025-07-16 10:20:46","1f75c3e559b7213887762d5229550c2b","105.12.2.199","Mozilla/5.0 (Windows NT 10.0; Win64; x64) AppleWebKit/537.36 (KHTML, like Gecko) Chrome/137.0.0.0 Safari/537.36","WebKit","Chrome","137.0.0.0","Windows","10.0","https://app.prolific.com/","en-US,en;q=0.9","60f7c71d1cffec381351b0b3","68764874ac79eee8c1d4cb03","68777ce6621a31e4983a8817","2","0","60f7c71d1cffec381351b0b3","2","0","2025-07-16T10:20:08.136Z","","","","","","","","","","","StressQ","","50","","","","","","","","","","","","","","","","","","","","","","","","","","",""
"2659","","<div style=""width:500px;"">
  <p>What best describes how you currently feel?</p>
  </div>","84","html-slider-response","23","356788","0.0-5.0-4.2","99","1","2025-07-16 10:20:46","1f75c3e559b7213887762d5229550c2b","105.12.2.199","Mozilla/5.0 (Windows NT 10.0; Win64; x64) AppleWebKit/537.36 (KHTML, like Gecko) Chrome/137.0.0.0 Safari/537.36","WebKit","Chrome","137.0.0.0","Windows","10.0","https://app.prolific.com/","en-US,en;q=0.9","60f7c71d1cffec381351b0b3","68764874ac79eee8c1d4cb03","68777ce6621a31e4983a8817","2","0","60f7c71d1cffec381351b0b3","2","0","2025-07-16T10:20:10.807Z","","","","","","","","","","","MotivationQ","","50","","","","","","","","","","","","","","","","","","","","","","","","","","",""
"","","","","ctl-task-cpt","24","414595","0.0-5.0-0.3","99","1","2025-07-16 10:20:46","1f75c3e559b7213887762d5229550c2b","105.12.2.199","Mozilla/5.0 (Windows NT 10.0; Win64; x64) AppleWebKit/537.36 (KHTML, like Gecko) Chrome/137.0.0.0 Safari/537.36","WebKit","Chrome","137.0.0.0","Windows","10.0","https://app.prolific.com/","en-US,en;q=0.9","60f7c71d1cffec381351b0b3","68764874ac79eee8c1d4cb03","68777ce6621a31e4983a8817","2","0","60f7c71d1cffec381351b0b3","2","0","2025-07-16T10:21:08.614Z","","","","","","","","","","","","","","win-only","3","g1:SW,g2:NE","0.7","4","0","369789.6","1533.4","6540","54776.4","1","4","8","6","2","8","8","12","4","0.09090909090909091","1494.3","3000","1560","[""up"",""right""]","{""num_key_presses"":12,""num_perfect"":9,""num_errors"":0,""num_randdir"":3,""num_randdir_good_moves"":0,""num_whilered"":0,""num_whileblue"":0,""num_blue"":3,""num_good_moves"":9}","[295.22232142857143,294.12857142857143,2.8,295.22232142857143,294.12857142857143,103.3,295.22232142857143,294.12857142857143,209.3,295.22232142857143,294.12857142857143,320.2,295.22232142857143,294.12857142857143,423.3,297.22232142857143,296.12857142857143,524.7,298.22232142857143,303.12857142857143,626.7,365.22232142857143,189.12857142857143,739.5,370.22232142857143,185.12857142857143,852.6,370.22232142857143,185.12857142857143,960.4,496.22232142857143,47.128571428571426,1078.6,517.2223214285714,40.128571428571426,1187.4,518.2223214285714,40.128571428571426,1292.5,518.2223214285714,40.128571428571426,1396.7,518.2223214285714,40.128571428571426,1499.8,518.2223214285714,40.128571428571426,1602.4,518.2223214285714,40.128571428571426,1708.6,518.2223214285714,40.128571428571426,1834.7,518.2223214285714,40.128571428571426,1944,518.2223214285714,40.128571428571426,2045.2,518.2223214285714,40.128571428571426,2157.4,518.2223214285714,40.128571428571426,2266.6,518.2223214285714,40.128571428571426,2366.7,518.2223214285714,40.128571428571426,2490.7,518.2223214285714,40.128571428571426,2600.2,518.2223214285714,40.128571428571426,2704.7,518.2223214285714,40.128571428571426,2812.9,518.2223214285714,40.128571428571426,2916.3,518.2223214285714,40.128571428571426,3021.7,518.2223214285714,40.128571428571426,3135.6,518.2223214285714,40.128571428571426,3245.9,518.2223214285714,40.128571428571426,3352.8,518.2223214285714,40.128571428571426,3460.3,518.2223214285714,40.128571428571426,3564.9,518.2223214285714,40.128571428571426,3668.4,518.2223214285714,40.128571428571426,3776.4,518.2223214285714,40.128571428571426,3883.2,518.2223214285714,40.128571428571426,3995,518.2223214285714,40.128571428571426,4101,518.2223214285714,40.128571428571426,4210.8,518.2223214285714,40.128571428571426,4323.9,518.2223214285714,40.128571428571426,4438.1,518.2223214285714,40.128571428571426,4541.6,518.2223214285714,40.128571428571426,4642.5,518.2223214285714,40.128571428571426,4752.8,518.2223214285714,40.128571428571426,4858.2,518.2223214285714,40.128571428571426,4965.5]","[1445.4,1445.3,1000,0.1,445.3,""smooth"",""right"",""right"",""good_move"",3712.9,2265,1874.7,1447.9,390.3,""smooth"",""right"",""right"",""good_move"",6658.8,2945.7,2512.9,3713.1,432.8,""smooth"",""right"",""right"",""good_move"",9438.3,2779,2375.2,6659.4,403.7,""smooth"",""up"",""up"",""good_move"",12736,3294.7,2277.6,9441.3,1017.1,""smooth"",""up"",""up"",""good_move"",16459.6,3718.8,3338.6,12740.9,380.1,""oops"",""up"",""down"",""bad_move"",19727.7,3266.1,2852.3,16461.7,413.8,""smooth"",""up"",""up"",""good_move"",26223,6493,2065.5,23742.7,414.8,""oops"",""up"",""left"",""bad_move"",33203,6977.9,2402.2,30355.9,445,""oops"",""up"",""left"",""bad_move"",37466.2,4261.5,2361.6,33204.7,1899.9,""smooth"",""right"",""right"",""good_move"",40365.5,2891.7,2499.1,37473.9,392.6,""smooth"",""right"",""right"",""good_move"",47996.4,7628.3,3071.4,44359.9,565.1,""smooth"",""up"",""up"",""good_move""]"
"3832","","<div style=""width:500px;"">
  <p>What determined the result of this run?</p>
  </div>","93","html-slider-response","25","418431","0.0-5.0-1.3","99","1","2025-07-16 10:20:46","1f75c3e559b7213887762d5229550c2b","105.12.2.199","Mozilla/5.0 (Windows NT 10.0; Win64; x64) AppleWebKit/537.36 (KHTML, like Gecko) Chrome/137.0.0.0 Safari/537.36","WebKit","Chrome","137.0.0.0","Windows","10.0","https://app.prolific.com/","en-US,en;q=0.9","60f7c71d1cffec381351b0b3","68764874ac79eee8c1d4cb03","68777ce6621a31e4983a8817","2","0","60f7c71d1cffec381351b0b3","2","0","2025-07-16T10:21:12.451Z","","","","","","","","","","","AttribQ","","50","","","","","","","","","","","","","","","","","","","","","","","","","","",""
"2846","","<div style=""width:500px;"">
  <p>How much control did you have over the ball?</p>
  </div>","97","html-slider-response","26","421287","0.0-5.0-2.3","99","1","2025-07-16 10:20:46","1f75c3e559b7213887762d5229550c2b","105.12.2.199","Mozilla/5.0 (Windows NT 10.0; Win64; x64) AppleWebKit/537.36 (KHTML, like Gecko) Chrome/137.0.0.0 Safari/537.36","WebKit","Chrome","137.0.0.0","Windows","10.0","https://app.prolific.com/","en-US,en;q=0.9","60f7c71d1cffec381351b0b3","68764874ac79eee8c1d4cb03","68777ce6621a31e4983a8817","2","0","60f7c71d1cffec381351b0b3","2","0","2025-07-16T10:21:15.306Z","","","","","","","","","","","ControlQ","","50","","","","","","","","","","","","","","","","","","","","","","","","","","",""
"3234","","<div style=""width:500px;"">
  <p>How would you describe your current emotional state?</p>
  </div>","0","html-slider-response","27","424527","0.0-5.0-3.3","99","1","2025-07-16 10:20:46","1f75c3e559b7213887762d5229550c2b","105.12.2.199","Mozilla/5.0 (Windows NT 10.0; Win64; x64) AppleWebKit/537.36 (KHTML, like Gecko) Chrome/137.0.0.0 Safari/537.36","WebKit","Chrome","137.0.0.0","Windows","10.0","https://app.prolific.com/","en-US,en;q=0.9","60f7c71d1cffec381351b0b3","68764874ac79eee8c1d4cb03","68777ce6621a31e4983a8817","2","0","60f7c71d1cffec381351b0b3","2","0","2025-07-16T10:21:18.546Z","","","","","","","","","","","StressQ","","50","","","","","","","","","","","","","","","","","","","","","","","","","","",""
"7045","","<div style=""width:500px;"">
  <p>What best describes how you currently feel?</p>
  </div>","100","html-slider-response","28","431578","0.0-5.0-4.3","99","1","2025-07-16 10:20:46","1f75c3e559b7213887762d5229550c2b","105.12.2.199","Mozilla/5.0 (Windows NT 10.0; Win64; x64) AppleWebKit/537.36 (KHTML, like Gecko) Chrome/137.0.0.0 Safari/537.36","WebKit","Chrome","137.0.0.0","Windows","10.0","https://app.prolific.com/","en-US,en;q=0.9","60f7c71d1cffec381351b0b3","68764874ac79eee8c1d4cb03","68777ce6621a31e4983a8817","2","0","60f7c71d1cffec381351b0b3","2","0","2025-07-16T10:21:25.597Z","","","","","","","","","","","MotivationQ","","50","","","","","","","","","","","","","","","","","","","","","","","","","","",""
"","","","","ctl-task-cpt","29","451905","0.0-5.0-0.4","99","1","2025-07-16 10:20:46","1f75c3e559b7213887762d5229550c2b","105.12.2.199","Mozilla/5.0 (Windows NT 10.0; Win64; x64) AppleWebKit/537.36 (KHTML, like Gecko) Chrome/137.0.0.0 Safari/537.36","WebKit","Chrome","137.0.0.0","Windows","10.0","https://app.prolific.com/","en-US,en;q=0.9","60f7c71d1cffec381351b0b3","68764874ac79eee8c1d4cb03","68777ce6621a31e4983a8817","2","0","60f7c71d1cffec381351b0b3","2","0","2025-07-16T10:21:45.924Z","","","","","","","","","","","","","","win-only","1","g1:NE,g2:SW","0.6","5","0","444578.9","1852.2","6862.9","17288.9","1","4","8","6","2","-8","-8","4","12","0.030303030303030304","1334.7","3000","-750","[""down"",""left""]","{""num_key_presses"":0,""num_perfect"":0,""num_errors"":0,""num_randdir"":0,""num_randdir_good_moves"":0,""num_whilered"":0,""num_whileblue"":0,""num_blue"":0,""num_good_moves"":0}","[297.22232142857143,290.12857142857143,1.2,297.22232142857143,290.12857142857143,108.1,297.22232142857143,290.12857142857143,209.1,297.22232142857143,290.12857142857143,311.5,333.22232142857143,257.12857142857143,415.4,286.22232142857143,301.12857142857143,537.5,84.22232142857143,543.1285714285714,644.2,84.22232142857143,545.1285714285714,758.9,78.22232142857143,566.1285714285714,870,56.222321428571426,591.1285714285714,991.5,52.222321428571426,586.1285714285714,1101,52.222321428571426,586.1285714285714,1243.7,52.222321428571426,586.1285714285714,1358.5,52.222321428571426,586.1285714285714,1462.1,52.222321428571426,586.1285714285714,1568.8,52.222321428571426,586.1285714285714,1674.8,52.222321428571426,586.1285714285714,1774.9,52.222321428571426,586.1285714285714,1887.7,52.222321428571426,586.1285714285714,1991.6,52.222321428571426,586.1285714285714,2098.7,52.222321428571426,586.1285714285714,2206.7,52.222321428571426,586.1285714285714,2312.2,52.222321428571426,586.1285714285714,2415.9,52.222321428571426,586.1285714285714,2525,52.222321428571426,586.1285714285714,2634.3,52.222321428571426,586.1285714285714,2744,52.222321428571426,586.1285714285714,2851.7,52.222321428571426,586.1285714285714,2963,52.222321428571426,586.1285714285714,3073.1,52.222321428571426,586.1285714285714,3178.1,52.222321428571426,586.1285714285714,3287.7,52.222321428571426,586.1285714285714,3390.7,52.222321428571426,586.1285714285714,3504.8,52.222321428571426,586.1285714285714,3605.3,52.222321428571426,586.1285714285714,3705.6,52.222321428571426,586.1285714285714,3821,52.222321428571426,586.1285714285714,3933.4,52.222321428571426,586.1285714285714,4039.6,52.222321428571426,586.1285714285714,4151.1,52.222321428571426,586.1285714285714,4255.4,52.222321428571426,586.1285714285714,4362.9,52.222321428571426,586.1285714285714,4473.7,52.222321428571426,586.1285714285714,4586.6,52.222321428571426,586.1285714285714,4689.1,52.222321428571426,586.1285714285714,4797.4,52.222321428571426,586.1285714285714,4898.9]","[]"
"23483","","<div style=""width:500px;"">
  <p>What determined the result of this run?</p>
  </div>","50","html-slider-response","30","475392","0.0-5.0-1.4","99","1","2025-07-16 10:20:46","1f75c3e559b7213887762d5229550c2b","105.12.2.199","Mozilla/5.0 (Windows NT 10.0; Win64; x64) AppleWebKit/537.36 (KHTML, like Gecko) Chrome/137.0.0.0 Safari/537.36","WebKit","Chrome","137.0.0.0","Windows","10.0","https://app.prolific.com/","en-US,en;q=0.9","60f7c71d1cffec381351b0b3","68764874ac79eee8c1d4cb03","68777ce6621a31e4983a8817","2","0","60f7c71d1cffec381351b0b3","2","0","2025-07-16T10:22:09.412Z","","","","","","","","","","","AttribQ","","50","","","","","","","","","","","","","","","","","","","","","","","","","","",""