"rt","response_timestamp","stimulus","response","trial_type","trial_index","time_elapsed","internal_node_id","run_id","condition","recorded_at","source_code_version","ip","user_agent","device","browser","browser_version","platform","platform_version","referer","accept_language","PROLIFIC_PID","STUDY_ID","SESSION_ID","WEEK","BATCH","prolific_id","week","batch","realtime","success","responses","item_order","radio_event_ids","radio_event_times","key_event_times","mouse_event_times","straightlining","zigzagging","honeypot","eventType","view_history","slider_start","which_type","canvas_config","goals_layout","control_level","trial_number","tutorial_trial_number","trial_start_time","phase1_start_time","phase2_start_time","phase3_start_time","goal_1_value","goal_1_distance","goal_2_value","goal_2_distance","goal_selected","outcome","outcome_total","participant_final_score","participant_initial_score","participant_final_score_prop","goal_choice_rt","allocated_time","allocated_time_remaining","goal_direction","counts","mouse_movements","key_presses","question_order","question_id"
"9943","1753253766944","<p style='font-size:40px;line-height:1.25'><strong>Welcome to the experiment!</strong></p><p style='font-size:1.1em;line-height:1.25'>Thank you for participanting in our experiment again! You will be asked to play the Dysfunctional Ball Game again. We will briefly recap the rules before we start.</p><p style='font-size:1.1em;line-height:1.25'>Press <strong>Next</strong> to continue.</p>","0","custom-html-button-response","0","9949","0.0-0.0","166","1","2025-07-23 06:56:04","1f75c3e559b7213887762d5229550c2b","41.122.197.193","Mozilla/5.0 (Windows NT 10.0; Win64; x64) AppleWebKit/537.36 (KHTML, like Gecko) Chrome/138.0.0.0 Safari/537.36","WebKit","Chrome","138.0.0.0","Windows","10.0","https://app.prolific.com/","en-GB,en-US;q=0.9,en;q=0.8","6744814c173b9afac78cf039","683db9eb0562dbf637994deb","68808657047845708a61ef3a","2","1","6744814c173b9afac78cf039","2","1","2025-07-23T06:56:06.948Z","","","","","","","","","","","","","","","","","","","","","","","","","","","","","","","","","","","","","","","","","",""
"5591","","","","fullscreen","1","16562","0.0-1.0","166","1","2025-07-23 06:56:04","1f75c3e559b7213887762d5229550c2b","41.122.197.193","Mozilla/5.0 (Windows NT 10.0; Win64; x64) AppleWebKit/537.36 (KHTML, like Gecko) Chrome/138.0.0.0 Safari/537.36","WebKit","Chrome","138.0.0.0","Windows","10.0","https://app.prolific.com/","en-GB,en-US;q=0.9,en;q=0.8","6744814c173b9afac78cf039","683db9eb0562dbf637994deb","68808657047845708a61ef3a","2","1","6744814c173b9afac78cf039","2","1","","true","","","","","","","","","","","","","","","","","","","","","","","","","","","","","","","","","","","","","","","","",""
"2750","1753253776312","<p style='font-size:1.1em;line-height:1.25'>In the following, we will ask you a few questions relating to your feelings in the last 24 hours.<br></p><p style='font-size:1.1em;line-height:1.25'>Press the <strong>Next</strong> button to continue.</p>","0","custom-html-button-response","2","19315","0.0-2.0-0.0","166","1","2025-07-23 06:56:04","1f75c3e559b7213887762d5229550c2b","41.122.197.193","Mozilla/5.0 (Windows NT 10.0; Win64; x64) AppleWebKit/537.36 (KHTML, like Gecko) Chrome/138.0.0.0 Safari/537.36","WebKit","Chrome","138.0.0.0","Windows","10.0","https://app.prolific.com/","en-GB,en-US;q=0.9,en;q=0.8","6744814c173b9afac78cf039","683db9eb0562dbf637994deb","68808657047845708a61ef3a","2","1","6744814c173b9afac78cf039","2","1","2025-07-23T06:56:16.313Z","","","","","","","","","","","","","","","","","","","","","","","","","","","","","","","","","","","","","","","","","",""
"77501.5","","","","survey-template","3","96830","0.0-2.0-1.0","166","1","2025-07-23 06:56:04","1f75c3e559b7213887762d5229550c2b","41.122.197.193","Mozilla/5.0 (Windows NT 10.0; Win64; x64) AppleWebKit/537.36 (KHTML, like Gecko) Chrome/138.0.0.0 Safari/537.36","WebKit","Chrome","138.0.0.0","Windows","10.0","https://app.prolific.com/","en-GB,en-US;q=0.9,en;q=0.8","6744814c173b9afac78cf039","683db9eb0562dbf637994deb","68808657047845708a61ef3a","2","1","6744814c173b9afac78cf039","2","1","2025-07-23T06:57:33.829Z","","{""Q01"":""3"",""Q02"":""2"",""Q03"":""3"",""Q04"":""2"",""Q05"":""3"",""Q06"":""4"",""Q07"":""4"",""Q08"":""4"",""Q09"":""3"",""Q10"":""2"",""Q11"":""2"",""Q12"":""3"",""Q13"":""5"",""Q14"":""3"",""Q15"":""2"",""Q16"":""3"",""Q17"":""2"",""Q18"":""3"",""Q19"":""0"",""Q20"":""2"",""Q21"":""1"",""Q22"":""1""}","[0,1,2,3,4,5,6,7,8,9,10,11,12,13,14,15,16,17,18,19,20,21]","[""Q01"",""Q02"",""Q03"",""Q04"",""Q05"",""Q06"",""Q07"",""Q08"",""Q09"",""Q10"",""Q11"",""Q12"",""Q13"",""Q14"",""Q15"",""Q16"",""Q17"",""Q18"",""Q19"",""Q19"",""Q20"",""Q21"",""Q22""]","[7760,10913.30000000447,13809.89999999851,14967.10000000149,18282.5,21286.20000000298,22920.10000000149,24387.30000000447,26504.70000000298,29802,35332.80000000447,37834.80000000447,41157.30000000447,50203,53032.80000000447,54967.20000000298,58049.30000000447,61564.70000000298,64233.10000000149,66257.39999999851,70121.30000000447,73367.20000000298,75253.89999999851]","[]","[0.30000000447034836,5269.80000000447,6620.20000000298,7760,9028.5,10913.30000000447,12290.60000000149,13809.89999999851,14967.10000000149,16874.39999999851,18282.5,21286.20000000298,22920.10000000149,24387.30000000447,26504.70000000298,29802,31388.70000000298,33716.30000000447,35332.80000000447,37834.80000000447,39677.80000000447,41157.30000000447,50203,51683.20000000298,53032.80000000447,54967.20000000298,56325.80000000447,58049.30000000447,59685.39999999851,61564.70000000298,62741,64233.10000000149,66257.39999999851,70121.30000000447,73367.20000000298,75253.89999999851,77494.80000000447]","0.36363636363636365","0.6190476190476191","0","drsp","","","","","","","","","","","","","","","","","","","","","","","","","","","","","","",""
"11398.5","","","","survey-template","4","108234","0.0-2.0-2.0","166","1","2025-07-23 06:56:04","1f75c3e559b7213887762d5229550c2b","41.122.197.193","Mozilla/5.0 (Windows NT 10.0; Win64; x64) AppleWebKit/537.36 (KHTML, like Gecko) Chrome/138.0.0.0 Safari/537.36","WebKit","Chrome","138.0.0.0","Windows","10.0","https://app.prolific.com/","en-GB,en-US;q=0.9,en;q=0.8","6744814c173b9afac78cf039","683db9eb0562dbf637994deb","68808657047845708a61ef3a","2","1","6744814c173b9afac78cf039","2","1","2025-07-23T06:57:45.233Z","","{""Q01"":""3"",""Q02"":""2"",""Q03"":""2""}","[0,1,2]","[""Q01"",""Q02"",""Q03""]","[4566.29999999702,6235.69999999553,9057.39999999851]","[]","[4566.29999999702,6235.69999999553,7805.79999999702,9057.39999999851,11395.19999999553]","0.6666666666666666","0.5","0","stress","","","","","","","","","","","","","","","","","","","","","","","","","","","","","","",""
"4760","","","","instructions","5","112999","0.0-3.0-0.0","166","1","2025-07-23 06:56:04","1f75c3e559b7213887762d5229550c2b","41.122.197.193","Mozilla/5.0 (Windows NT 10.0; Win64; x64) AppleWebKit/537.36 (KHTML, like Gecko) Chrome/138.0.0.0 Safari/537.36","WebKit","Chrome","138.0.0.0","Windows","10.0","https://app.prolific.com/","en-GB,en-US;q=0.9,en;q=0.8","6744814c173b9afac78cf039","683db9eb0562dbf637994deb","68808657047845708a61ef3a","2","1","6744814c173b9afac78cf039","2","1","","","","","","","","","","","","","[{""page_index"":0,""viewing_time"":4758}]","","","","","","","","","","","","","","","","","","","","","","","","","","","","","",""
"6471","","<p>Before you start with this game please answer the following three questions yourself. </p>
  <p>Through this game, we measure several aspects of your cognitive performance, such as reaction times, multi-tasking capabilities </p>
  <p>and the ability to assess the situation you are in.</p>
  <p></p>
  <p><b>How good do you usually are in such tasks?</b></p>","92","html-slider-response","6","119476","0.0-4.0-0.0","166","1","2025-07-23 06:56:04","1f75c3e559b7213887762d5229550c2b","41.122.197.193","Mozilla/5.0 (Windows NT 10.0; Win64; x64) AppleWebKit/537.36 (KHTML, like Gecko) Chrome/138.0.0.0 Safari/537.36","WebKit","Chrome","138.0.0.0","Windows","10.0","https://app.prolific.com/","en-GB,en-US;q=0.9,en;q=0.8","6744814c173b9afac78cf039","683db9eb0562dbf637994deb","68808657047845708a61ef3a","2","1","6744814c173b9afac78cf039","2","1","2025-07-23T06:57:56.475Z","","","","","","","","","","","PreSkillQ","","50","","","","","","","","","","","","","","","","","","","","","","","","","","","","",""
"3698","","<div style=""width:500px;"">
  <p>How well do you think you will perform in this task compared to other participants?</p>
  </div>","73","html-slider-response","7","123176","0.0-4.0-1.0","166","1","2025-07-23 06:56:04","1f75c3e559b7213887762d5229550c2b","41.122.197.193","Mozilla/5.0 (Windows NT 10.0; Win64; x64) AppleWebKit/537.36 (KHTML, like Gecko) Chrome/138.0.0.0 Safari/537.36","WebKit","Chrome","138.0.0.0","Windows","10.0","https://app.prolific.com/","en-GB,en-US;q=0.9,en;q=0.8","6744814c173b9afac78cf039","683db9eb0562dbf637994deb","68808657047845708a61ef3a","2","1","6744814c173b9afac78cf039","2","1","2025-07-23T06:58:00.175Z","","","","","","","","","","","PrePerfQ","","50","","","","","","","","","","","","","","","","","","","","","","","","","","","","",""
"11957","","<div style=""width:500px;"">
  <p>What best describes how you currently feel?</p>
  </div>","77","html-slider-response","8","135136","0.0-4.0-2.0","166","1","2025-07-23 06:56:04","1f75c3e559b7213887762d5229550c2b","41.122.197.193","Mozilla/5.0 (Windows NT 10.0; Win64; x64) AppleWebKit/537.36 (KHTML, like Gecko) Chrome/138.0.0.0 Safari/537.36","WebKit","Chrome","138.0.0.0","Windows","10.0","https://app.prolific.com/","en-GB,en-US;q=0.9,en;q=0.8","6744814c173b9afac78cf039","683db9eb0562dbf637994deb","68808657047845708a61ef3a","2","1","6744814c173b9afac78cf039","2","1","2025-07-23T06:58:12.134Z","","","","","","","","","","","PreMotivationQ","","50","","","","","","","","","","","","","","","","","","","","","","","","","","","","",""
"","","","","ctl-task-cpt","9","161172","0.0-5.0-0.0","166","1","2025-07-23 06:56:04","1f75c3e559b7213887762d5229550c2b","41.122.197.193","Mozilla/5.0 (Windows NT 10.0; Win64; x64) AppleWebKit/537.36 (KHTML, like Gecko) Chrome/138.0.0.0 Safari/537.36","WebKit","Chrome","138.0.0.0","Windows","10.0","https://app.prolific.com/","en-GB,en-US;q=0.9,en;q=0.8","6744814c173b9afac78cf039","683db9eb0562dbf637994deb","68808657047845708a61ef3a","2","1","6744814c173b9afac78cf039","2","1","2025-07-23T06:58:38.170Z","","","","","","","","","","","","","","win-only","1","g1:NE,g2:SW","1","1","0","138161.2","1896.9","6912.2","23007.1","1","4","8","6","2","8","8","8","0","0.06060606060606061","5015.2","3000","1225","[""down"",""left""]","{""num_key_presses"":6,""num_perfect"":6,""num_errors"":0,""num_randdir"":0,""num_randdir_good_moves"":0,""num_whilered"":0,""num_whileblue"":0,""num_blue"":0,""num_good_moves"":6}","[292.22232142857143,298.12857142857143,1.1,292.22232142857143,298.12857142857143,111.1,292.22232142857143,298.12857142857143,215.9,292.22232142857143,298.12857142857143,323.6,292.22232142857143,298.12857142857143,423.6,292.22232142857143,298.12857142857143,532.5,292.22232142857143,298.12857142857143,642.9,292.22232142857143,298.12857142857143,744.7,292.22232142857143,298.12857142857143,847,292.22232142857143,298.12857142857143,953.3,292.22232142857143,298.12857142857143,1061.5,292.22232142857143,298.12857142857143,1161.6,292.22232142857143,298.12857142857143,1261.6,292.22232142857143,298.12857142857143,1361.7,292.22232142857143,298.12857142857143,1461.7,292.22232142857143,298.12857142857143,1561.7,292.22232142857143,298.12857142857143,1665.3,292.22232142857143,298.12857142857143,1766.1,292.22232142857143,298.12857142857143,1873.8,292.22232142857143,298.12857142857143,1973.9,292.22232142857143,298.12857142857143,2083,292.22232142857143,298.12857142857143,2183,292.22232142857143,298.12857142857143,2283,292.22232142857143,298.12857142857143,2384.4,292.22232142857143,298.12857142857143,2484.5,292.22232142857143,298.12857142857143,2594.4,292.22232142857143,298.12857142857143,2695.4,292.22232142857143,298.12857142857143,2800,292.22232142857143,298.12857142857143,2911.9,292.22232142857143,298.12857142857143,3017.8,292.22232142857143,298.12857142857143,3123.4,292.22232142857143,298.12857142857143,3223.9,292.22232142857143,298.12857142857143,3328.7,292.22232142857143,298.12857142857143,3433.1,292.22232142857143,298.12857142857143,3543.1,292.22232142857143,298.12857142857143,3645.6,292.22232142857143,298.12857142857143,3753.2,292.22232142857143,298.12857142857143,3862.3,292.22232142857143,298.12857142857143,3962.3,292.22232142857143,298.12857142857143,4062.4,292.22232142857143,298.12857142857143,4162.4,292.22232142857143,298.12857142857143,4264.7,292.22232142857143,298.12857142857143,4365.1,292.22232142857143,298.12857142857143,4465.3,292.22232142857143,298.12857142857143,4573.6,292.22232142857143,298.12857142857143,4673.6,292.22232142857143,298.12857142857143,4784.5,292.22232142857143,298.12857142857143,4892.8,292.22232142857143,298.12857142857143,4994.1]","[1781.9,1782,1000,0,782,""smooth"",""left"",""left"",""good_move"",4964,3180.5,2713.3,1783.6,467.1,""smooth"",""left"",""left"",""good_move"",8348.7,3384,2942.1,4964.7,441.9,""smooth"",""left"",""left"",""good_move"",10855.3,2505.9,2052.4,8349.4,453.5,""smooth"",""down"",""down"",""good_move"",13174.6,2318,1921.3,10856.7,396.7,""smooth"",""down"",""down"",""good_move"",15947.1,2771.8,2394.3,13175.4,377.4,""smooth"",""down"",""down"",""good_move""]","",""
"5467","","<div style=""width:500px;"">
  <p>What determined the result of this run?</p>
  </div>","88","html-slider-response","10","166640","0.0-5.0-1.0","166","1","2025-07-23 06:56:04","1f75c3e559b7213887762d5229550c2b","41.122.197.193","Mozilla/5.0 (Windows NT 10.0; Win64; x64) AppleWebKit/537.36 (KHTML, like Gecko) Chrome/138.0.0.0 Safari/537.36","WebKit","Chrome","138.0.0.0","Windows","10.0","https://app.prolific.com/","en-GB,en-US;q=0.9,en;q=0.8","6744814c173b9afac78cf039","683db9eb0562dbf637994deb","68808657047845708a61ef3a","2","1","6744814c173b9afac78cf039","2","1","2025-07-23T06:58:43.639Z","","","","","","","","","","","AttribQ","","50","","","","","","","","","","","","","","","","","","","","","","","","","","","","",""
"4768","","<div style=""width:500px;"">
  <p>How much control did you have over the ball?</p>
  </div>","93","html-slider-response","11","171410","0.0-5.0-2.0","166","1","2025-07-23 06:56:04","1f75c3e559b7213887762d5229550c2b","41.122.197.193","Mozilla/5.0 (Windows NT 10.0; Win64; x64) AppleWebKit/537.36 (KHTML, like Gecko) Chrome/138.0.0.0 Safari/537.36","WebKit","Chrome","138.0.0.0","Windows","10.0","https://app.prolific.com/","en-GB,en-US;q=0.9,en;q=0.8","6744814c173b9afac78cf039","683db9eb0562dbf637994deb","68808657047845708a61ef3a","2","1","6744814c173b9afac78cf039","2","1","2025-07-23T06:58:48.409Z","","","","","","","","","","","ControlQ","","50","","","","","","","","","","","","","","","","","","","","","","","","","","","","",""
"5600","","<div style=""width:500px;"">
  <p>How would you describe your current emotional state?</p>
  </div>","30","html-slider-response","12","177015","0.0-5.0-3.0","166","1","2025-07-23 06:56:04","1f75c3e559b7213887762d5229550c2b","41.122.197.193","Mozilla/5.0 (Windows NT 10.0; Win64; x64) AppleWebKit/537.36 (KHTML, like Gecko) Chrome/138.0.0.0 Safari/537.36","WebKit","Chrome","138.0.0.0","Windows","10.0","https://app.prolific.com/","en-GB,en-US;q=0.9,en;q=0.8","6744814c173b9afac78cf039","683db9eb0562dbf637994deb","68808657047845708a61ef3a","2","1","6744814c173b9afac78cf039","2","1","2025-07-23T06:58:54.013Z","","","","","","","","","","","StressQ","","50","","","","","","","","","","","","","","","","","","","","","","","","","","","","",""
"3200","","<div style=""width:500px;"">
  <p>What best describes how you currently feel?</p>
  </div>","85","html-slider-response","13","180219","0.0-5.0-4.0","166","1","2025-07-23 06:56:04","1f75c3e559b7213887762d5229550c2b","41.122.197.193","Mozilla/5.0 (Windows NT 10.0; Win64; x64) AppleWebKit/537.36 (KHTML, like Gecko) Chrome/138.0.0.0 Safari/537.36","WebKit","Chrome","138.0.0.0","Windows","10.0","https://app.prolific.com/","en-GB,en-US;q=0.9,en;q=0.8","6744814c173b9afac78cf039","683db9eb0562dbf637994deb","68808657047845708a61ef3a","2","1","6744814c173b9afac78cf039","2","1","2025-07-23T06:58:57.217Z","","","","","","","","","","","MotivationQ","","50","","","","","","","","","","","","","","","","","","","","","","","","","","","","",""
"","","","","ctl-task-cpt","14","208816","0.0-5.0-0.1","166","1","2025-07-23 06:56:04","1f75c3e559b7213887762d5229550c2b","41.122.197.193","Mozilla/5.0 (Windows NT 10.0; Win64; x64) AppleWebKit/537.36 (KHTML, like Gecko) Chrome/138.0.0.0 Safari/537.36","WebKit","Chrome","138.0.0.0","Windows","10.0","https://app.prolific.com/","en-GB,en-US;q=0.9,en;q=0.8","6744814c173b9afac78cf039","683db9eb0562dbf637994deb","68808657047845708a61ef3a","2","1","6744814c173b9afac78cf039","2","1","2025-07-23T06:59:25.814Z","","","","","","","","","","","","","","win-only","2","g1:SE,g2:NW","0.9","2","0","183235.1","1726.5","6734.7","25586.3","1","4","4","6","1","1","1","9","8","0.06818181818181818","5008","3000","1335","[""down"",""right""]","{""num_key_presses"":6,""num_perfect"":5,""num_errors"":0,""num_randdir"":1,""num_randdir_good_moves"":0,""num_whilered"":0,""num_whileblue"":0,""num_blue"":1,""num_good_moves"":5}","[298.22232142857143,303.12857142857143,0.6,298.22232142857143,303.12857142857143,105.8,298.22232142857143,303.12857142857143,207.4,298.22232142857143,303.12857142857143,311.3,298.22232142857143,303.12857142857143,411.4,298.22232142857143,303.12857142857143,511.5,298.22232142857143,303.12857142857143,611.8,298.22232142857143,303.12857142857143,718.3,298.22232142857143,303.12857142857143,822.8,298.22232142857143,303.12857142857143,927.9,298.22232142857143,303.12857142857143,1028,298.22232142857143,303.12857142857143,1133.9,298.22232142857143,303.12857142857143,1234.7,298.22232142857143,303.12857142857143,1345.2,298.22232142857143,303.12857142857143,1445.3,298.22232142857143,303.12857142857143,1545.3,298.22232142857143,303.12857142857143,1645.4,298.22232142857143,303.12857142857143,1747.3,298.22232142857143,303.12857142857143,1847.4,298.22232142857143,303.12857142857143,1949.4,298.22232142857143,303.12857142857143,2052,298.22232142857143,303.12857142857143,2161.4,298.22232142857143,303.12857142857143,2262.3,298.22232142857143,303.12857142857143,2362.3,298.22232142857143,303.12857142857143,2462.4,298.22232142857143,303.12857142857143,2562.4,298.22232142857143,303.12857142857143,2662.4,298.22232142857143,303.12857142857143,2762.6,298.22232142857143,303.12857142857143,2864.6,298.22232142857143,303.12857142857143,2968.3,298.22232142857143,303.12857142857143,3076,298.22232142857143,303.12857142857143,3177.4,298.22232142857143,303.12857142857143,3285.4,298.22232142857143,303.12857142857143,3385.4,298.22232142857143,303.12857142857143,3495.5,298.22232142857143,303.12857142857143,3595.6,298.22232142857143,303.12857142857143,3695.8,298.22232142857143,303.12857142857143,3800.7,298.22232142857143,303.12857142857143,3906.4,298.22232142857143,303.12857142857143,4012.5,298.22232142857143,303.12857142857143,4114,298.22232142857143,303.12857142857143,4214.3,298.22232142857143,303.12857142857143,4325.8,298.22232142857143,303.12857142857143,4427,298.22232142857143,303.12857142857143,4536.2,298.22232142857143,303.12857142857143,4637.5,298.22232142857143,303.12857142857143,4746.5,298.22232142857143,303.12857142857143,4847.4,298.22232142857143,303.12857142857143,4947.4]","[4478.7,4478.7,2041.9,2007.8,429,""smooth"",""right"",""right"",""good_move"",7316.7,2834.7,2464.7,4482,370,""oops"",""right"",""up"",""bad_move"",10502.1,3184.3,2742.7,7317.8,441.6,""smooth"",""right"",""right"",""good_move"",13835.9,3333,2920.9,10502.9,412.1,""smooth"",""down"",""down"",""good_move"",16084.3,2247.6,1851.3,13836.7,396.3,""smooth"",""down"",""down"",""good_move"",18720.9,2631.8,2155.3,16089.2,476.4,""smooth"",""down"",""down"",""good_move""]","",""
"4122","","<div style=""width:500px;"">
  <p>What determined the result of this run?</p>
  </div>","100","html-slider-response","15","212941","0.0-5.0-1.1","166","1","2025-07-23 06:56:04","1f75c3e559b7213887762d5229550c2b","41.122.197.193","Mozilla/5.0 (Windows NT 10.0; Win64; x64) AppleWebKit/537.36 (KHTML, like Gecko) Chrome/138.0.0.0 Safari/537.36","WebKit","Chrome","138.0.0.0","Windows","10.0","https://app.prolific.com/","en-GB,en-US;q=0.9,en;q=0.8","6744814c173b9afac78cf039","683db9eb0562dbf637994deb","68808657047845708a61ef3a","2","1","6744814c173b9afac78cf039","2","1","2025-07-23T06:59:29.939Z","","","","","","","","","","","AttribQ","","50","","","","","","","","","","","","","","","","","","","","","","","","","","","","",""
"3888","","<div style=""width:500px;"">
  <p>How much control did you have over the ball?</p>
  </div>","100","html-slider-response","16","216835","0.0-5.0-2.1","166","1","2025-07-23 06:56:04","1f75c3e559b7213887762d5229550c2b","41.122.197.193","Mozilla/5.0 (Windows NT 10.0; Win64; x64) AppleWebKit/537.36 (KHTML, like Gecko) Chrome/138.0.0.0 Safari/537.36","WebKit","Chrome","138.0.0.0","Windows","10.0","https://app.prolific.com/","en-GB,en-US;q=0.9,en;q=0.8","6744814c173b9afac78cf039","683db9eb0562dbf637994deb","68808657047845708a61ef3a","2","1","6744814c173b9afac78cf039","2","1","2025-07-23T06:59:33.833Z","","","","","","","","","","","ControlQ","","50","","","","","","","","","","","","","","","","","","","","","","","","","","","","",""
"3530","","<div style=""width:500px;"">
  <p>How would you describe your current emotional state?</p>
  </div>","12","html-slider-response","17","220369","0.0-5.0-3.1","166","1","2025-07-23 06:56:04","1f75c3e559b7213887762d5229550c2b","41.122.197.193","Mozilla/5.0 (Windows NT 10.0; Win64; x64) AppleWebKit/537.36 (KHTML, like Gecko) Chrome/138.0.0.0 Safari/537.36","WebKit","Chrome","138.0.0.0","Windows","10.0","https://app.prolific.com/","en-GB,en-US;q=0.9,en;q=0.8","6744814c173b9afac78cf039","683db9eb0562dbf637994deb","68808657047845708a61ef3a","2","1","6744814c173b9afac78cf039","2","1","2025-07-23T06:59:37.367Z","","","","","","","","","","","StressQ","","50","","","","","","","","","","","","","","","","","","","","","","","","","","","","",""
"5215","","<div style=""width:500px;"">
  <p>What best describes how you currently feel?</p>
  </div>","81","html-slider-response","18","225587","0.0-5.0-4.1","166","1","2025-07-23 06:56:04","1f75c3e559b7213887762d5229550c2b","41.122.197.193","Mozilla/5.0 (Windows NT 10.0; Win64; x64) AppleWebKit/537.36 (KHTML, like Gecko) Chrome/138.0.0.0 Safari/537.36","WebKit","Chrome","138.0.0.0","Windows","10.0","https://app.prolific.com/","en-GB,en-US;q=0.9,en;q=0.8","6744814c173b9afac78cf039","683db9eb0562dbf637994deb","68808657047845708a61ef3a","2","1","6744814c173b9afac78cf039","2","1","2025-07-23T06:59:42.585Z","","","","","","","","","","","MotivationQ","","50","","","","","","","","","","","","","","","","","","","","","","","","","","","","",""
"","","","","ctl-task-cpt","19","258725","0.0-5.0-0.2","166","1","2025-07-23 06:56:04","1f75c3e559b7213887762d5229550c2b","41.122.197.193","Mozilla/5.0 (Windows NT 10.0; Win64; x64) AppleWebKit/537.36 (KHTML, like Gecko) Chrome/138.0.0.0 Safari/537.36","WebKit","Chrome","138.0.0.0","Windows","10.0","https://app.prolific.com/","en-GB,en-US;q=0.9,en;q=0.8","6744814c173b9afac78cf039","683db9eb0562dbf637994deb","68808657047845708a61ef3a","2","1","6744814c173b9afac78cf039","2","1","2025-07-23T07:00:15.724Z","","","","","","","","","","","","","","win-only","3","g1:SW,g2:NE","0.8","3","0","228605.8","2049.8","7062","30127.8","1","4","8","6","2","8","8","17","9","0.12878787878787878","5012.2","3000","1255","[""up"",""right""]","{""num_key_presses"":8,""num_perfect"":6,""num_errors"":0,""num_randdir"":2,""num_randdir_good_moves"":1,""num_whilered"":0,""num_whileblue"":0,""num_blue"":0,""num_good_moves"":7}","[295.22232142857143,289.12857142857143,0.5,295.22232142857143,289.12857142857143,101.4,295.22232142857143,289.12857142857143,201.4,295.22232142857143,289.12857142857143,302.2,295.22232142857143,289.12857142857143,407.3,295.22232142857143,289.12857142857143,507.8,295.22232142857143,289.12857142857143,609.9,295.22232142857143,289.12857142857143,722.1,295.22232142857143,289.12857142857143,824.9,295.22232142857143,289.12857142857143,926.1,295.22232142857143,289.12857142857143,1026.1,295.22232142857143,289.12857142857143,1139.7,295.22232142857143,289.12857142857143,1242.9,295.22232142857143,289.12857142857143,1351.3,295.22232142857143,289.12857142857143,1451.4,295.22232142857143,289.12857142857143,1563.3,295.22232142857143,289.12857142857143,1672.2,295.22232142857143,289.12857142857143,1777,295.22232142857143,289.12857142857143,1882.1,295.22232142857143,289.12857142857143,1989.6,295.22232142857143,289.12857142857143,2092.7,295.22232142857143,289.12857142857143,2201.5,295.22232142857143,289.12857142857143,2301.6,295.22232142857143,289.12857142857143,2408.4,295.22232142857143,289.12857142857143,2508.6,295.22232142857143,289.12857142857143,2608.8,295.22232142857143,289.12857142857143,2708.8,295.22232142857143,289.12857142857143,2811.4,295.22232142857143,289.12857142857143,2911.5,295.22232142857143,289.12857142857143,3012.5,295.22232142857143,289.12857142857143,3120.8,295.22232142857143,289.12857142857143,3226,295.22232142857143,289.12857142857143,3331.4,295.22232142857143,289.12857142857143,3434.8,295.22232142857143,289.12857142857143,3543.5,295.22232142857143,289.12857142857143,3643.6,295.22232142857143,289.12857142857143,3743.8,295.22232142857143,289.12857142857143,3851,295.22232142857143,289.12857142857143,3958.6,295.22232142857143,289.12857142857143,4058.7,295.22232142857143,289.12857142857143,4159.4,295.22232142857143,289.12857142857143,4264.9,295.22232142857143,289.12857142857143,4376.7,295.22232142857143,289.12857142857143,4476.9,295.22232142857143,289.12857142857143,4592.9,295.22232142857143,289.12857142857143,4696,295.22232142857143,289.12857142857143,4796.1,295.22232142857143,289.12857142857143,4896.2]","[1397.1,1397.1,1000,0,397.1,""smooth"",""right"",""right"",""good_move"",4600,3201.5,2810,1398.6,391.5,""smooth"",""right"",""right"",""good_move"",7544.5,2943.4,2549.2,4601.1,394.2,""smooth"",""right"",""right"",""good_move"",9957.1,2411.8,2062.4,7545.4,349.3,""smooth"",""up"",""up"",""good_move"",12887,2928.9,2549,9958.2,379.9,""smooth"",""up"",""up"",""good_move"",16347.8,3459.9,3121.4,12888,338.4,""oops"",""up"",""down"",""bad_move"",18909.5,2560.3,2162.7,16349.2,397.6,""oops"",""up"",""up"",""good_move"",22909.4,3999.1,3555.3,18910.3,443.8,""smooth"",""up"",""up"",""good_move""]","",""
"6622","","<div style=""width:500px;"">
  <p>What determined the result of this run?</p>
  </div>","100","html-slider-response","20","265350","0.0-5.0-1.2","166","1","2025-07-23 06:56:04","1f75c3e559b7213887762d5229550c2b","41.122.197.193","Mozilla/5.0 (Windows NT 10.0; Win64; x64) AppleWebKit/537.36 (KHTML, like Gecko) Chrome/138.0.0.0 Safari/537.36","WebKit","Chrome","138.0.0.0","Windows","10.0","https://app.prolific.com/","en-GB,en-US;q=0.9,en;q=0.8","6744814c173b9afac78cf039","683db9eb0562dbf637994deb","68808657047845708a61ef3a","2","1","6744814c173b9afac78cf039","2","1","2025-07-23T07:00:22.348Z","","","","","","","","","","","AttribQ","","50","","","","","","","","","","","","","","","","","","","","","","","","","","","","",""
"4376","","<div style=""width:500px;"">
  <p>How much control did you have over the ball?</p>
  </div>","63","html-slider-response","21","269730","0.0-5.0-2.2","166","1","2025-07-23 06:56:04","1f75c3e559b7213887762d5229550c2b","41.122.197.193","Mozilla/5.0 (Windows NT 10.0; Win64; x64) AppleWebKit/537.36 (KHTML, like Gecko) Chrome/138.0.0.0 Safari/537.36","WebKit","Chrome","138.0.0.0","Windows","10.0","https://app.prolific.com/","en-GB,en-US;q=0.9,en;q=0.8","6744814c173b9afac78cf039","683db9eb0562dbf637994deb","68808657047845708a61ef3a","2","1","6744814c173b9afac78cf039","2","1","2025-07-23T07:00:26.729Z","","","","","","","","","","","ControlQ","","50","","","","","","","","","","","","","","","","","","","","","","","","","","","","",""
"4193","","<div style=""width:500px;"">
  <p>How would you describe your current emotional state?</p>
  </div>","17","html-slider-response","22","273926","0.0-5.0-3.2","166","1","2025-07-23 06:56:04","1f75c3e559b7213887762d5229550c2b","41.122.197.193","Mozilla/5.0 (Windows NT 10.0; Win64; x64) AppleWebKit/537.36 (KHTML, like Gecko) Chrome/138.0.0.0 Safari/537.36","WebKit","Chrome","138.0.0.0","Windows","10.0","https://app.prolific.com/","en-GB,en-US;q=0.9,en;q=0.8","6744814c173b9afac78cf039","683db9eb0562dbf637994deb","68808657047845708a61ef3a","2","1","6744814c173b9afac78cf039","2","1","2025-07-23T07:00:30.924Z","","","","","","","","","","","StressQ","","50","","","","","","","","","","","","","","","","","","","","","","","","","","","","",""
"5442","","<div style=""width:500px;"">
  <p>What best describes how you currently feel?</p>
  </div>","83","html-slider-response","23","279369","0.0-5.0-4.2","166","1","2025-07-23 06:56:04","1f75c3e559b7213887762d5229550c2b","41.122.197.193","Mozilla/5.0 (Windows NT 10.0; Win64; x64) AppleWebKit/537.36 (KHTML, like Gecko) Chrome/138.0.0.0 Safari/537.36","WebKit","Chrome","138.0.0.0","Windows","10.0","https://app.prolific.com/","en-GB,en-US;q=0.9,en;q=0.8","6744814c173b9afac78cf039","683db9eb0562dbf637994deb","68808657047845708a61ef3a","2","1","6744814c173b9afac78cf039","2","1","2025-07-23T07:00:36.367Z","","","","","","","","","","","MotivationQ","","50","","","","","","","","","","","","","","","","","","","","","","","","","","","","",""
"","","","","ctl-task-cpt","24","315180","0.0-5.0-0.3","166","1","2025-07-23 06:56:04","1f75c3e559b7213887762d5229550c2b","41.122.197.193","Mozilla/5.0 (Windows NT 10.0; Win64; x64) AppleWebKit/537.36 (KHTML, like Gecko) Chrome/138.0.0.0 Safari/537.36","WebKit","Chrome","138.0.0.0","Windows","10.0","https://app.prolific.com/","en-GB,en-US;q=0.9,en;q=0.8","6744814c173b9afac78cf039","683db9eb0562dbf637994deb","68808657047845708a61ef3a","2","1","6744814c173b9afac78cf039","2","1","2025-07-23T07:01:12.178Z","","","","","","","","","","","","","","win-only","1","g1:NE,g2:SW","0.7","4","0","282386.3","2221.5","7222.9","32785.9","1","4","4","6","2","4","4","21","17","0.1590909090909091","5001.3","3000","1115","[""down"",""left""]","{""num_key_presses"":8,""num_perfect"":6,""num_errors"":0,""num_randdir"":2,""num_randdir_good_moves"":1,""num_whilered"":0,""num_whileblue"":0,""num_blue"":1,""num_good_moves"":7}","[294.22232142857143,293.12857142857143,4.7,294.22232142857143,293.12857142857143,105.2,294.22232142857143,293.12857142857143,205.4,294.22232142857143,293.12857142857143,320.7,294.22232142857143,293.12857142857143,427.3,294.22232142857143,293.12857142857143,529.6,294.22232142857143,293.12857142857143,630.6,294.22232142857143,293.12857142857143,731.4,294.22232142857143,293.12857142857143,845.6,294.22232142857143,293.12857142857143,948.1,294.22232142857143,293.12857142857143,1048.1,294.22232142857143,293.12857142857143,1149,294.22232142857143,293.12857142857143,1249.9,294.22232142857143,293.12857142857143,1350.3,294.22232142857143,293.12857142857143,1455.2,294.22232142857143,293.12857142857143,1555.2,294.22232142857143,293.12857142857143,1665,294.22232142857143,293.12857142857143,1766.4,294.22232142857143,293.12857142857143,1871.5,294.22232142857143,293.12857142857143,1975.2,294.22232142857143,293.12857142857143,2087.9,294.22232142857143,293.12857142857143,2195.9,294.22232142857143,293.12857142857143,2307.1,294.22232142857143,293.12857142857143,2412.8,294.22232142857143,293.12857142857143,2515.2,294.22232142857143,293.12857142857143,2616.3,294.22232142857143,293.12857142857143,2725.4,294.22232142857143,293.12857142857143,2832.1,294.22232142857143,293.12857142857143,2934.9,294.22232142857143,293.12857142857143,3042.2,294.22232142857143,293.12857142857143,3148.3,294.22232142857143,293.12857142857143,3248.9,294.22232142857143,293.12857142857143,3349.3,294.22232142857143,293.12857142857143,3449.6,294.22232142857143,293.12857142857143,3555.2,294.22232142857143,293.12857142857143,3662.6,294.22232142857143,293.12857142857143,3766.7,294.22232142857143,293.12857142857143,3881.6,294.22232142857143,293.12857142857143,3981.9,294.22232142857143,293.12857142857143,4099.4,294.22232142857143,293.12857142857143,4201.1,294.22232142857143,293.12857142857143,4316.6,294.22232142857143,293.12857142857143,4424.6,294.22232142857143,293.12857142857143,4529.5,294.22232142857143,293.12857142857143,4648.8,294.22232142857143,293.12857142857143,4767.4,294.22232142857143,293.12857142857143,4869.6,294.22232142857143,293.12857142857143,4975.8]","[1630.6,1630.6,1000,0,630.6,""smooth"",""left"",""left"",""good_move"",4790.5,3155.9,2777.8,1634.7,378,""oops"",""left"",""down"",""good_move"",10700.3,5908.8,2165.7,8067.8,466.8,""smooth"",""left"",""left"",""good_move"",13730.5,3009.5,2583.7,10721,425.8,""smooth"",""left"",""left"",""good_move"",16505.6,2774.3,2358.2,13731.3,416.1,""smooth"",""down"",""down"",""good_move"",19515.7,3009.2,2606.5,16506.7,402.6,""oops"",""down"",""up"",""bad_move"",22064.5,2547.3,2151.2,19517.2,396.1,""smooth"",""down"",""down"",""good_move"",25410.4,3345.1,2993.8,22065.4,351.2,""smooth"",""down"",""down"",""good_move""]","",""
"5812","","<div style=""width:500px;"">
  <p>What determined the result of this run?</p>
  </div>","100","html-slider-response","25","320994","0.0-5.0-1.3","166","1","2025-07-23 06:56:04","1f75c3e559b7213887762d5229550c2b","41.122.197.193","Mozilla/5.0 (Windows NT 10.0; Win64; x64) AppleWebKit/537.36 (KHTML, like Gecko) Chrome/138.0.0.0 Safari/537.36","WebKit","Chrome","138.0.0.0","Windows","10.0","https://app.prolific.com/","en-GB,en-US;q=0.9,en;q=0.8","6744814c173b9afac78cf039","683db9eb0562dbf637994deb","68808657047845708a61ef3a","2","1","6744814c173b9afac78cf039","2","1","2025-07-23T07:01:17.993Z","","","","","","","","","","","AttribQ","","50","","","","","","","","","","","","","","","","","","","","","","","","","","","","",""
"4417","","<div style=""width:500px;"">
  <p>How much control did you have over the ball?</p>
  </div>","55","html-slider-response","26","325413","0.0-5.0-2.3","166","1","2025-07-23 06:56:04","1f75c3e559b7213887762d5229550c2b","41.122.197.193","Mozilla/5.0 (Windows NT 10.0; Win64; x64) AppleWebKit/537.36 (KHTML, like Gecko) Chrome/138.0.0.0 Safari/537.36","WebKit","Chrome","138.0.0.0","Windows","10.0","https://app.prolific.com/","en-GB,en-US;q=0.9,en;q=0.8","6744814c173b9afac78cf039","683db9eb0562dbf637994deb","68808657047845708a61ef3a","2","1","6744814c173b9afac78cf039","2","1","2025-07-23T07:01:22.411Z","","","","","","","","","","","ControlQ","","50","","","","","","","","","","","","","","","","","","","","","","","","","","","","",""
"4283","","<div style=""width:500px;"">
  <p>How would you describe your current emotional state?</p>
  </div>","10","html-slider-response","27","329698","0.0-5.0-3.3","166","1","2025-07-23 06:56:04","1f75c3e559b7213887762d5229550c2b","41.122.197.193","Mozilla/5.0 (Windows NT 10.0; Win64; x64) AppleWebKit/537.36 (KHTML, like Gecko) Chrome/138.0.0.0 Safari/537.36","WebKit","Chrome","138.0.0.0","Windows","10.0","https://app.prolific.com/","en-GB,en-US;q=0.9,en;q=0.8","6744814c173b9afac78cf039","683db9eb0562dbf637994deb","68808657047845708a61ef3a","2","1","6744814c173b9afac78cf039","2","1","2025-07-23T07:01:26.696Z","","","","","","","","","","","StressQ","","50","","","","","","","","","","","","","","","","","","","","","","","","","","","","",""
"3621","","<div style=""width:500px;"">
  <p>What best describes how you currently feel?</p>
  </div>","86","html-slider-response","28","333320","0.0-5.0-4.3","166","1","2025-07-23 06:56:04","1f75c3e559b7213887762d5229550c2b","41.122.197.193","Mozilla/5.0 (Windows NT 10.0; Win64; x64) AppleWebKit/537.36 (KHTML, like Gecko) Chrome/138.0.0.0 Safari/537.36","WebKit","Chrome","138.0.0.0","Windows","10.0","https://app.prolific.com/","en-GB,en-US;q=0.9,en;q=0.8","6744814c173b9afac78cf039","683db9eb0562dbf637994deb","68808657047845708a61ef3a","2","1","6744814c173b9afac78cf039","2","1","2025-07-23T07:01:30.319Z","","","","","","","","","","","MotivationQ","","50","","","","","","","","","","","","","","","","","","","","","","","","","","","","",""
"","","","","ctl-task-cpt","29","375388","0.0-5.0-0.4","166","1","2025-07-23 06:56:04","1f75c3e559b7213887762d5229550c2b","41.122.197.193","Mozilla/5.0 (Windows NT 10.0; Win64; x64) AppleWebKit/537.36 (KHTML, like Gecko) Chrome/138.0.0.0 Safari/537.36","WebKit","Chrome","138.0.0.0","Windows","10.0","https://app.prolific.com/","en-GB,en-US;q=0.9,en;q=0.8","6744814c173b9afac78cf039","683db9eb0562dbf637994deb","68808657047845708a61ef3a","2","1","6744814c173b9afac78cf039","2","1","2025-07-23T07:02:12.386Z","","","","","","","","","","","","","","win-only","1","g1:NE,g2:SW","0.6","5","0","336336.2","1496.6","6509.3","39057.3","1","4","8","6","2","8","8","29","21","0.2196969696969697","5012.7","3000","555","[""down"",""left""]","{""num_key_presses"":12,""num_perfect"":8,""num_errors"":0,""num_randdir"":4,""num_randdir_good_moves"":1,""num_whilered"":0,""num_whileblue"":0,""num_blue"":0,""num_good_moves"":9}","[300.22232142857143,298.12857142857143,0.5,300.22232142857143,298.12857142857143,100,300.22232142857143,298.12857142857143,215.9,300.22232142857143,298.12857142857143,326.3,300.22232142857143,298.12857142857143,430.4,300.22232142857143,298.12857142857143,536.1,300.22232142857143,298.12857142857143,643.4,300.22232142857143,298.12857142857143,744.6,300.22232142857143,298.12857142857143,846.6,300.22232142857143,298.12857142857143,963.2,300.22232142857143,298.12857142857143,1078.4,300.22232142857143,298.12857142857143,1186.8,300.22232142857143,298.12857142857143,1315.6,300.22232142857143,298.12857142857143,1416.5,300.22232142857143,298.12857142857143,1596.1,300.22232142857143,298.12857142857143,1717.6,300.22232142857143,298.12857142857143,1820.5,300.22232142857143,298.12857142857143,1924.8,300.22232142857143,298.12857142857143,2029.7,300.22232142857143,298.12857142857143,2130.1,300.22232142857143,298.12857142857143,2233.7,300.22232142857143,298.12857142857143,2346,300.22232142857143,298.12857142857143,2454.8,300.22232142857143,298.12857142857143,2563.5,300.22232142857143,298.12857142857143,2681.5,300.22232142857143,298.12857142857143,2784.8,300.22232142857143,298.12857142857143,2884.9,300.22232142857143,298.12857142857143,2985.1,300.22232142857143,298.12857142857143,3085.4,300.22232142857143,298.12857142857143,3186,300.22232142857143,298.12857142857143,3317.4,300.22232142857143,298.12857142857143,3437.6,300.22232142857143,298.12857142857143,3562.4,300.22232142857143,298.12857142857143,3670.2,300.22232142857143,298.12857142857143,3792.3,300.22232142857143,298.12857142857143,3895.1,300.22232142857143,298.12857142857143,3995.2,300.22232142857143,298.12857142857143,4095.6,300.22232142857143,298.12857142857143,4216.5,300.22232142857143,298.12857142857143,4322.2,300.22232142857143,298.12857142857143,4424.1,300.22232142857143,298.12857142857143,4543.2,300.22232142857143,298.12857142857143,4650.2,300.22232142857143,298.12857142857143,4755.6,300.22232142857143,298.12857142857143,4862.9,300.22232142857143,298.12857142857143,4965.7]","[1479,1479,1000,0,479,""smooth"",""left"",""left"",""good_move"",4827.2,3347.3,2939.2,1479.9,408.1,""oops"",""left"",""right"",""bad_move"",7589,2761.4,2395.7,4827.6,365.7,""oops"",""left"",""up"",""bad_move"",10756.7,3167.2,2847.4,7589.5,319.8,""smooth"",""left"",""left"",""good_move"",13801.3,3044.1,2704.3,10757.2,339.8,""smooth"",""left"",""left"",""good_move"",16636.2,2834.7,2551.1,13801.5,283.6,""smooth"",""left"",""left"",""good_move"",18986.2,2350,1906.5,16636.3,443.5,""oops"",""down"",""up"",""bad_move"",22595.6,3609.2,3238,18986.4,371.2,""smooth"",""down"",""down"",""good_move"",25178.1,2582.1,2142.3,22596.1,439.8,""oops"",""down"",""down"",""good_move"",27625.9,2447.5,2048.4,25178.4,399.1,""smooth"",""down"",""down"",""good_move"",30190.6,2564.6,2211.8,27626,352.8,""smooth"",""down"",""down"",""good_move"",32390.9,2200.1,1885.8,30190.8,314.3,""smooth"",""down"",""down"",""good_move""]","",""
"4943","","<div style=""width:500px;"">
  <p>What determined the result of this run?</p>
  </div>","100","html-slider-response","30","380334","0.0-5.0-1.4","166","1","2025-07-23 06:56:04","1f75c3e559b7213887762d5229550c2b","41.122.197.193","Mozilla/5.0 (Windows NT 10.0; Win64; x64) AppleWebKit/537.36 (KHTML, like Gecko) Chrome/138.0.0.0 Safari/537.36","WebKit","Chrome","138.0.0.0","Windows","10.0","https://app.prolific.com/","en-GB,en-US;q=0.9,en;q=0.8","6744814c173b9afac78cf039","683db9eb0562dbf637994deb","68808657047845708a61ef3a","2","1","6744814c173b9afac78cf039","2","1","2025-07-23T07:02:17.332Z","","","","","","","","","","","AttribQ","","50","","","","","","","","","","","","","","","","","","","","","","","","","","","","",""
"3501","","<div style=""width:500px;"">
  <p>How much control did you have over the ball?</p>
  </div>","100","html-slider-response","31","383839","0.0-5.0-2.4","166","1","2025-07-23 06:56:04","1f75c3e559b7213887762d5229550c2b","41.122.197.193","Mozilla/5.0 (Windows NT 10.0; Win64; x64) AppleWebKit/537.36 (KHTML, like Gecko) Chrome/138.0.0.0 Safari/537.36","WebKit","Chrome","138.0.0.0","Windows","10.0","https://app.prolific.com/","en-GB,en-US;q=0.9,en;q=0.8","6744814c173b9afac78cf039","683db9eb0562dbf637994deb","68808657047845708a61ef3a","2","1","6744814c173b9afac78cf039","2","1","2025-07-23T07:02:20.838Z","","","","","","","","","","","ControlQ","","50","","","","","","","","","","","","","","","","","","","","","","","","","","","","",""
"4550","","<div style=""width:500px;"">
  <p>How would you describe your current emotional state?</p>
  </div>","29","html-slider-response","32","388392","0.0-5.0-3.4","166","1","2025-07-23 06:56:04","1f75c3e559b7213887762d5229550c2b","41.122.197.193","Mozilla/5.0 (Windows NT 10.0; Win64; x64) AppleWebKit/537.36 (KHTML, like Gecko) Chrome/138.0.0.0 Safari/537.36","WebKit","Chrome","138.0.0.0","Windows","10.0","https://app.prolific.com/","en-GB,en-US;q=0.9,en;q=0.8","6744814c173b9afac78cf039","683db9eb0562dbf637994deb","68808657047845708a61ef3a","2","1","6744814c173b9afac78cf039","2","1","2025-07-23T07:02:25.390Z","","","","","","","","","","","StressQ","","50","","","","","","","","","","","","","","","","","","","","","","","","","","","","",""
"4382","","<div style=""width:500px;"">
  <p>What best describes how you currently feel?</p>
  </div>","74","html-slider-response","33","392776","0.0-5.0-4.4","166","1","2025-07-23 06:56:04","1f75c3e559b7213887762d5229550c2b","41.122.197.193","Mozilla/5.0 (Windows NT 10.0; Win64; x64) AppleWebKit/537.36 (KHTML, like Gecko) Chrome/138.0.0.0 Safari/537.36","WebKit","Chrome","138.0.0.0","Windows","10.0","https://app.prolific.com/","en-GB,en-US;q=0.9,en;q=0.8","6744814c173b9afac78cf039","683db9eb0562dbf637994deb","68808657047845708a61ef3a","2","1","6744814c173b9afac78cf039","2","1","2025-07-23T07:02:29.775Z","","","","","","","","","","","MotivationQ","","50","","","","","","","","","","","","","","","","","","","","","","","","","","","","",""
"","","","","ctl-task-cpt","34","431822","0.0-5.0-0.5","166","1","2025-07-23 06:56:04","1f75c3e559b7213887762d5229550c2b","41.122.197.193","Mozilla/5.0 (Windows NT 10.0; Win64; x64) AppleWebKit/537.36 (KHTML, like Gecko) Chrome/138.0.0.0 Safari/537.36","WebKit","Chrome","138.0.0.0","Windows","10.0","https://app.prolific.com/","en-GB,en-US;q=0.9,en;q=0.8","6744814c173b9afac78cf039","683db9eb0562dbf637994deb","68808657047845708a61ef3a","2","1","6744814c173b9afac78cf039","2","1","2025-07-23T07:03:08.821Z","","","","","","","","","","","","","","win-only","2","g1:SE,g2:NW","0.5","6","0","395792.2","2275","7278.2","36034.6","1","4","4","6","1","1","1","30","29","0.22727272727272727","5003.2","3000","1280","[""down"",""right""]","{""num_key_presses"":8,""num_perfect"":5,""num_errors"":0,""num_randdir"":3,""num_randdir_good_moves"":1,""num_whilered"":0,""num_whileblue"":0,""num_blue"":2,""num_good_moves"":6}","[296.22232142857143,300.12857142857143,1,296.22232142857143,300.12857142857143,118.3,296.22232142857143,300.12857142857143,242.2,296.22232142857143,300.12857142857143,345.8,296.22232142857143,300.12857142857143,454.6,296.22232142857143,300.12857142857143,579.1,296.22232142857143,300.12857142857143,688.5,296.22232142857143,300.12857142857143,788.7,296.22232142857143,300.12857142857143,900.5,296.22232142857143,300.12857142857143,1049.2,296.22232142857143,300.12857142857143,1170.8,296.22232142857143,300.12857142857143,1304.6,296.22232142857143,300.12857142857143,1428,296.22232142857143,300.12857142857143,1536.6,296.22232142857143,300.12857142857143,1670.2,296.22232142857143,300.12857142857143,1785.8,296.22232142857143,300.12857142857143,1905.3,296.22232142857143,300.12857142857143,2008,296.22232142857143,300.12857142857143,2111.4,296.22232142857143,300.12857142857143,2220.6,296.22232142857143,300.12857142857143,2328.6,296.22232142857143,300.12857142857143,2441.5,296.22232142857143,300.12857142857143,2548.3,296.22232142857143,300.12857142857143,2680,296.22232142857143,300.12857142857143,2793.6,296.22232142857143,300.12857142857143,2896.9,296.22232142857143,300.12857142857143,3010.2,296.22232142857143,300.12857142857143,3112.1,296.22232142857143,300.12857142857143,3216.5,296.22232142857143,300.12857142857143,3326.1,296.22232142857143,300.12857142857143,3435.7,296.22232142857143,300.12857142857143,3536.8,296.22232142857143,300.12857142857143,3659.4,296.22232142857143,300.12857142857143,3762.1,296.22232142857143,300.12857142857143,3866.7,296.22232142857143,300.12857142857143,3973.5,296.22232142857143,300.12857142857143,4077.8,296.22232142857143,300.12857142857143,4206.3,296.22232142857143,300.12857142857143,4309.6,296.22232142857143,300.12857142857143,4423.1,296.22232142857143,300.12857142857143,4528,296.22232142857143,300.12857142857143,4628.3,296.22232142857143,300.12857142857143,4736.6,296.22232142857143,300.12857142857143,4864.7,296.22232142857143,300.12857142857143,4970.2]","[1410.3,1410.4,1000,0,410.4,""smooth"",""right"",""right"",""good_move"",4274.1,2863,2492.8,1411.2,370.2,""smooth"",""right"",""right"",""good_move"",7116,2841,2473.2,4275,367.8,""smooth"",""down"",""down"",""good_move"",13376.7,6255.5,2318.6,10603.2,454.9,""oops"",""down"",""up"",""bad_move"",16356.8,2979.3,2590.4,13377.5,388.9,""smooth"",""down"",""down"",""good_move"",23321.5,6961.2,2435.4,20413,473.1,""oops"",""down"",""left"",""bad_move"",25870,2547.4,2024.9,23322.7,522.4,""smooth"",""down"",""down"",""good_move"",28587.1,2716.2,2283.8,25870.9,432.4,""oops"",""right"",""right"",""good_move""]","",""
"5538","","<div style=""width:500px;"">
  <p>What determined the result of this run?</p>
  </div>","100","html-slider-response","35","437363","0.0-5.0-1.5","166","1","2025-07-23 06:56:04","1f75c3e559b7213887762d5229550c2b","41.122.197.193","Mozilla/5.0 (Windows NT 10.0; Win64; x64) AppleWebKit/537.36 (KHTML, like Gecko) Chrome/138.0.0.0 Safari/537.36","WebKit","Chrome","138.0.0.0","Windows","10.0","https://app.prolific.com/","en-GB,en-US;q=0.9,en;q=0.8","6744814c173b9afac78cf039","683db9eb0562dbf637994deb","68808657047845708a61ef3a","2","1","6744814c173b9afac78cf039","2","1","2025-07-23T07:03:14.361Z","","","","","","","","","","","AttribQ","","50","","","","","","","","","","","","","","","","","","","","","","","","","","","","",""
"5213","","<div style=""width:500px;"">
  <p>How much control did you have over the ball?</p>
  </div>","62","html-slider-response","36","442579","0.0-5.0-2.5","166","1","2025-07-23 06:56:04","1f75c3e559b7213887762d5229550c2b","41.122.197.193","Mozilla/5.0 (Windows NT 10.0; Win64; x64) AppleWebKit/537.36 (KHTML, like Gecko) Chrome/138.0.0.0 Safari/537.36","WebKit","Chrome","138.0.0.0","Windows","10.0","https://app.prolific.com/","en-GB,en-US;q=0.9,en;q=0.8","6744814c173b9afac78cf039","683db9eb0562dbf637994deb","68808657047845708a61ef3a","2","1","6744814c173b9afac78cf039","2","1","2025-07-23T07:03:19.577Z","","","","","","","","","","","ControlQ","","50","","","","","","","","","","","","","","","","","","","","","","","","","","","","",""
"51913","","<div style=""width:500px;"">
  <p>How would you describe your current emotional state?</p>
  </div>","23","html-slider-response","37","494495","0.0-5.0-3.5","166","1","2025-07-23 06:56:04","1f75c3e559b7213887762d5229550c2b","41.122.197.193","Mozilla/5.0 (Windows NT 10.0; Win64; x64) AppleWebKit/537.36 (KHTML, like Gecko) Chrome/138.0.0.0 Safari/537.36","WebKit","Chrome","138.0.0.0","Windows","10.0","https://app.prolific.com/","en-GB,en-US;q=0.9,en;q=0.8","6744814c173b9afac78cf039","683db9eb0562dbf637994deb","68808657047845708a61ef3a","2","1","6744814c173b9afac78cf039","2","1","2025-07-23T07:04:11.493Z","","","","","","","","","","","StressQ","","50","","","","","","","","","","","","","","","","","","","","","","","","","","","","",""
"4397","","<div style=""width:500px;"">
  <p>What best describes how you currently feel?</p>
  </div>","89","html-slider-response","38","498894","0.0-5.0-4.5","166","1","2025-07-23 06:56:04","1f75c3e559b7213887762d5229550c2b","41.122.197.193","Mozilla/5.0 (Windows NT 10.0; Win64; x64) AppleWebKit/537.36 (KHTML, like Gecko) Chrome/138.0.0.0 Safari/537.36","WebKit","Chrome","138.0.0.0","Windows","10.0","https://app.prolific.com/","en-GB,en-US;q=0.9,en;q=0.8","6744814c173b9afac78cf039","683db9eb0562dbf637994deb","68808657047845708a61ef3a","2","1","6744814c173b9afac78cf039","2","1","2025-07-23T07:04:15.892Z","","","","","","","","","","","MotivationQ","","50","","","","","","","","","","","","","","","","","","","","","","","","","","","","",""
"","","","","ctl-task-cpt","39","522164","0.0-5.0-0.6","166","1","2025-07-23 06:56:04","1f75c3e559b7213887762d5229550c2b","41.122.197.193","Mozilla/5.0 (Windows NT 10.0; Win64; x64) AppleWebKit/537.36 (KHTML, like Gecko) Chrome/138.0.0.0 Safari/537.36","WebKit","Chrome","138.0.0.0","Windows","10.0","https://app.prolific.com/","en-GB,en-US;q=0.9,en;q=0.8","6744814c173b9afac78cf039","683db9eb0562dbf637994deb","68808657047845708a61ef3a","2","1","6744814c173b9afac78cf039","2","1","2025-07-23T07:04:39.163Z","","","","","","","","","","","","","","win-only","2","g1:SE,g2:NW","0.4","7","0","501910.3","2106.5","7108.5","20239","1","4","8","6","1","1","1","31","30","0.23484848484848486","5002","3000","2225","[""down"",""right""]","{""num_key_presses"":4,""num_perfect"":4,""num_errors"":0,""num_randdir"":0,""num_randdir_good_moves"":0,""num_whilered"":0,""num_whileblue"":0,""num_blue"":1,""num_good_moves"":4}","[292.22232142857143,297.12857142857143,1.9,292.22232142857143,297.12857142857143,119.1,292.22232142857143,297.12857142857143,245.2,292.22232142857143,297.12857142857143,377.1,292.22232142857143,297.12857142857143,493,292.22232142857143,297.12857142857143,596,292.22232142857143,297.12857142857143,696.8,292.22232142857143,297.12857142857143,798.9,292.22232142857143,297.12857142857143,906.3,292.22232142857143,297.12857142857143,1013.9,292.22232142857143,297.12857142857143,1126.3,292.22232142857143,297.12857142857143,1242.7,292.22232142857143,297.12857142857143,1344.6,292.22232142857143,297.12857142857143,1451.5,292.22232142857143,297.12857142857143,1556.5,292.22232142857143,297.12857142857143,1658.2,292.22232142857143,297.12857142857143,1760.8,292.22232142857143,297.12857142857143,1861.4,292.22232142857143,297.12857142857143,1961.4,292.22232142857143,297.12857142857143,2071.8,292.22232142857143,297.12857142857143,2188.7,292.22232142857143,297.12857142857143,2294.6,292.22232142857143,297.12857142857143,2396,292.22232142857143,297.12857142857143,2500.7,292.22232142857143,297.12857142857143,2627,292.22232142857143,297.12857142857143,2727.6,292.22232142857143,297.12857142857143,2830.2,292.22232142857143,297.12857142857143,2935.1,292.22232142857143,297.12857142857143,3035.4,292.22232142857143,297.12857142857143,3142,292.22232142857143,297.12857142857143,3247,292.22232142857143,297.12857142857143,3381.1,292.22232142857143,297.12857142857143,3482.9,292.22232142857143,297.12857142857143,3585.9,292.22232142857143,297.12857142857143,3703.5,292.22232142857143,297.12857142857143,3822.2,292.22232142857143,297.12857142857143,3925.6,292.22232142857143,297.12857142857143,4025.8,292.22232142857143,297.12857142857143,4137,292.22232142857143,297.12857142857143,4270.5,292.22232142857143,297.12857142857143,4380.5,292.22232142857143,297.12857142857143,4483,292.22232142857143,297.12857142857143,4608.7,292.22232142857143,297.12857142857143,4716.8,292.22232142857143,297.12857142857143,4821,292.22232142857143,297.12857142857143,4924.5]","[1414.4,1414.5,1000,0,414.5,""smooth"",""right"",""right"",""good_move"",7415.2,6000.1,2192.7,4803.8,418.7,""smooth"",""right"",""right"",""good_move"",10024.3,2608.5,2236.6,7415.8,371.9,""smooth"",""down"",""down"",""good_move"",12947.6,2921.7,2527.7,10025.9,394,""smooth"",""down"",""down"",""good_move""]","",""
"8160","","<div style=""width:500px;"">
  <p>What determined the result of this run?</p>
  </div>","99","html-slider-response","40","530327","0.0-5.0-1.6","166","1","2025-07-23 06:56:04","1f75c3e559b7213887762d5229550c2b","41.122.197.193","Mozilla/5.0 (Windows NT 10.0; Win64; x64) AppleWebKit/537.36 (KHTML, like Gecko) Chrome/138.0.0.0 Safari/537.36","WebKit","Chrome","138.0.0.0","Windows","10.0","https://app.prolific.com/","en-GB,en-US;q=0.9,en;q=0.8","6744814c173b9afac78cf039","683db9eb0562dbf637994deb","68808657047845708a61ef3a","2","1","6744814c173b9afac78cf039","2","1","2025-07-23T07:04:47.325Z","","","","","","","","","","","AttribQ","","50","","","","","","","","","","","","","","","","","","","","","","","","","","","","",""
"5933","","<div style=""width:500px;"">
  <p>How much control did you have over the ball?</p>
  </div>","66","html-slider-response","41","536263","0.0-5.0-2.6","166","1","2025-07-23 06:56:04","1f75c3e559b7213887762d5229550c2b","41.122.197.193","Mozilla/5.0 (Windows NT 10.0; Win64; x64) AppleWebKit/537.36 (KHTML, like Gecko) Chrome/138.0.0.0 Safari/537.36","WebKit","Chrome","138.0.0.0","Windows","10.0","https://app.prolific.com/","en-GB,en-US;q=0.9,en;q=0.8","6744814c173b9afac78cf039","683db9eb0562dbf637994deb","68808657047845708a61ef3a","2","1","6744814c173b9afac78cf039","2","1","2025-07-23T07:04:53.261Z","","","","","","","","","","","ControlQ","","50","","","","","","","","","","","","","","","","","","","","","","","","","","","","",""
"7966","","<div style=""width:500px;"">
  <p>How would you describe your current emotional state?</p>
  </div>","44","html-slider-response","42","544232","0.0-5.0-3.6","166","1","2025-07-23 06:56:04","1f75c3e559b7213887762d5229550c2b","41.122.197.193","Mozilla/5.0 (Windows NT 10.0; Win64; x64) AppleWebKit/537.36 (KHTML, like Gecko) Chrome/138.0.0.0 Safari/537.36","WebKit","Chrome","138.0.0.0","Windows","10.0","https://app.prolific.com/","en-GB,en-US;q=0.9,en;q=0.8","6744814c173b9afac78cf039","683db9eb0562dbf637994deb","68808657047845708a61ef3a","2","1","6744814c173b9afac78cf039","2","1","2025-07-23T07:05:01.230Z","","","","","","","","","","","StressQ","","50","","","","","","","","","","","","","","","","","","","","","","","","","","","","",""
"6568","","<div style=""width:500px;"">
  <p>What best describes how you currently feel?</p>
  </div>","75","html-slider-response","43","550802","0.0-5.0-4.6","166","1","2025-07-23 06:56:04","1f75c3e559b7213887762d5229550c2b","41.122.197.193","Mozilla/5.0 (Windows NT 10.0; Win64; x64) AppleWebKit/537.36 (KHTML, like Gecko) Chrome/138.0.0.0 Safari/537.36","WebKit","Chrome","138.0.0.0","Windows","10.0","https://app.prolific.com/","en-GB,en-US;q=0.9,en;q=0.8","6744814c173b9afac78cf039","683db9eb0562dbf637994deb","68808657047845708a61ef3a","2","1","6744814c173b9afac78cf039","2","1","2025-07-23T07:05:07.801Z","","","","","","","","","","","MotivationQ","","50","","","","","","","","","","","","","","","","","","","","","","","","","","","","",""
"","","","","ctl-task-cpt","44","630524","0.0-5.0-0.7","166","1","2025-07-23 06:56:04","1f75c3e559b7213887762d5229550c2b","41.122.197.193","Mozilla/5.0 (Windows NT 10.0; Win64; x64) AppleWebKit/537.36 (KHTML, like Gecko) Chrome/138.0.0.0 Safari/537.36","WebKit","Chrome","138.0.0.0","Windows","10.0","https://app.prolific.com/","en-GB,en-US;q=0.9,en;q=0.8","6744814c173b9afac78cf039","683db9eb0562dbf637994deb","68808657047845708a61ef3a","2","1","6744814c173b9afac78cf039","2","1","2025-07-23T07:06:27.522Z","","","","","","","","","","","","","","win-only","3","g1:SW,g2:NE","0.3","8","0","553818.5","4422.8","9431.1","76664.8","1","4","4","6","1","-1","-1","30","31","0.22727272727272727","5008.3","3000","-1345","[""down"",""left""]","{""num_key_presses"":14,""num_perfect"":4,""num_errors"":0,""num_randdir"":10,""num_randdir_good_moves"":3,""num_whilered"":0,""num_whileblue"":0,""num_blue"":6,""num_good_moves"":7}","[299.22232142857143,303.12857142857143,2,299.22232142857143,303.12857142857143,105.3,299.22232142857143,303.12857142857143,220.7,299.22232142857143,303.12857142857143,348.2,299.22232142857143,303.12857142857143,486.7,299.22232142857143,303.12857142857143,617,299.22232142857143,303.12857142857143,726.5,299.22232142857143,303.12857142857143,828.2,299.22232142857143,303.12857142857143,933.3,299.22232142857143,303.12857142857143,1042.4,299.22232142857143,303.12857142857143,1180.7,299.22232142857143,303.12857142857143,1317.6,299.22232142857143,303.12857142857143,1428,299.22232142857143,303.12857142857143,1545.6,299.22232142857143,303.12857142857143,1647,299.22232142857143,303.12857142857143,1751,299.22232142857143,303.12857142857143,1856.3,299.22232142857143,303.12857142857143,1959.1,299.22232142857143,303.12857142857143,2065.1,299.22232142857143,303.12857142857143,2166,299.22232142857143,303.12857142857143,2297.3,299.22232142857143,303.12857142857143,2398.4,299.22232142857143,303.12857142857143,2498.9,299.22232142857143,303.12857142857143,2599.7,299.22232142857143,303.12857142857143,2721.6,299.22232142857143,303.12857142857143,2825.2,299.22232142857143,303.12857142857143,2928.6,299.22232142857143,303.12857142857143,3030.1,299.22232142857143,303.12857142857143,3137,299.22232142857143,303.12857142857143,3245.5,299.22232142857143,303.12857142857143,3357.9,299.22232142857143,303.12857142857143,3480.5,299.22232142857143,303.12857142857143,3584.3,299.22232142857143,303.12857142857143,3703.9,299.22232142857143,303.12857142857143,3810.8,299.22232142857143,303.12857142857143,3942,299.22232142857143,303.12857142857143,4044.8,299.22232142857143,303.12857142857143,4145.3,299.22232142857143,303.12857142857143,4282.5,299.22232142857143,303.12857142857143,4385.1,299.22232142857143,303.12857142857143,4489.8,299.22232142857143,303.12857142857143,4590.5,299.22232142857143,303.12857142857143,4691.1,299.22232142857143,303.12857142857143,4793,299.22232142857143,303.12857142857143,4902.5]","[1959.4,1959.4,1000,0,959.4,""oops"",""left"",""left"",""good_move"",13095.4,11126.7,3150.1,9497.4,447.9,""smooth"",""left"",""left"",""good_move"",19795.5,6699.3,2613.9,16709.3,472.3,""oops"",""down"",""up"",""bad_move"",22828.3,3032,2592,19796.3,440.1,""oops"",""down"",""down"",""good_move"",26104.2,3274.8,2769.7,22829.4,505.1,""smooth"",""down"",""down"",""good_move"",28377.8,2270.6,1815.3,26107.3,455.3,""oops"",""down"",""right"",""bad_move"",34716.3,6337.2,2849.6,31445.7,421,""oops"",""down"",""left"",""good_move"",37678,2961,2499.2,34717.1,461.8,""oops"",""down"",""right"",""bad_move"",44691.1,7011.3,3268.3,40902.1,520.7,""oops"",""down"",""right"",""bad_move"",47706.1,3014.4,2616.9,44691.8,397.4,""smooth"",""down"",""down"",""good_move"",54383.2,6676,2957.1,51021.2,404.9,""oops"",""left"",""up"",""bad_move"",57737.6,3353.2,2930.7,54384.4,422.5,""smooth"",""left"",""left"",""good_move"",60949.1,3209.6,2766,57739.5,443.6,""oops"",""left"",""right"",""bad_move"",64291.2,3341.1,2884.1,60950.1,457,""oops"",""down"",""up"",""bad_move""]","",""
"9011","","<div style=""width:500px;"">
  <p>What determined the result of this run?</p>
  </div>","23","html-slider-response","45","639537","0.0-5.0-1.7","166","1","2025-07-23 06:56:04","1f75c3e559b7213887762d5229550c2b","41.122.197.193","Mozilla/5.0 (Windows NT 10.0; Win64; x64) AppleWebKit/537.36 (KHTML, like Gecko) Chrome/138.0.0.0 Safari/537.36","WebKit","Chrome","138.0.0.0","Windows","10.0","https://app.prolific.com/","en-GB,en-US;q=0.9,en;q=0.8","6744814c173b9afac78cf039","683db9eb0562dbf637994deb","68808657047845708a61ef3a","2","1","6744814c173b9afac78cf039","2","1","2025-07-23T07:06:36.535Z","","","","","","","","","","","AttribQ","","50","","","","","","","","","","","","","","","","","","","","","","","","","","","","",""
"7956","","<div style=""width:500px;"">
  <p>How much control did you have over the ball?</p>
  </div>","0","html-slider-response","46","647495","0.0-5.0-2.7","166","1","2025-07-23 06:56:04","1f75c3e559b7213887762d5229550c2b","41.122.197.193","Mozilla/5.0 (Windows NT 10.0; Win64; x64) AppleWebKit/537.36 (KHTML, like Gecko) Chrome/138.0.0.0 Safari/537.36","WebKit","Chrome","138.0.0.0","Windows","10.0","https://app.prolific.com/","en-GB,en-US;q=0.9,en;q=0.8","6744814c173b9afac78cf039","683db9eb0562dbf637994deb","68808657047845708a61ef3a","2","1","6744814c173b9afac78cf039","2","1","2025-07-23T07:06:44.493Z","","","","","","","","","","","ControlQ","","50","","","","","","","","","","","","","","","","","","","","","","","","","","","","",""
"11379","","<div style=""width:500px;"">
  <p>How would you describe your current emotional state?</p>
  </div>","100","html-slider-response","47","658876","0.0-5.0-3.7","166","1","2025-07-23 06:56:04","1f75c3e559b7213887762d5229550c2b","41.122.197.193","Mozilla/5.0 (Windows NT 10.0; Win64; x64) AppleWebKit/537.36 (KHTML, like Gecko) Chrome/138.0.0.0 Safari/537.36","WebKit","Chrome","138.0.0.0","Windows","10.0","https://app.prolific.com/","en-GB,en-US;q=0.9,en;q=0.8","6744814c173b9afac78cf039","683db9eb0562dbf637994deb","68808657047845708a61ef3a","2","1","6744814c173b9afac78cf039","2","1","2025-07-23T07:06:55.875Z","","","","","","","","","","","StressQ","","50","","","","","","","","","","","","","","","","","","","","","","","","","","","","",""
"8096","","<div style=""width:500px;"">
  <p>What best describes how you currently feel?</p>
  </div>","0","html-slider-response","48","666976","0.0-5.0-4.7","166","1","2025-07-23 06:56:04","1f75c3e559b7213887762d5229550c2b","41.122.197.193","Mozilla/5.0 (Windows NT 10.0; Win64; x64) AppleWebKit/537.36 (KHTML, like Gecko) Chrome/138.0.0.0 Safari/537.36","WebKit","Chrome","138.0.0.0","Windows","10.0","https://app.prolific.com/","en-GB,en-US;q=0.9,en;q=0.8","6744814c173b9afac78cf039","683db9eb0562dbf637994deb","68808657047845708a61ef3a","2","1","6744814c173b9afac78cf039","2","1","2025-07-23T07:07:03.974Z","","","","","","","","","","","MotivationQ","","50","","","","","","","","","","","","","","","","","","","","","","","","","","","","",""
"","","","","ctl-task-cpt","49","765348","0.0-5.0-0.8","166","1","2025-07-23 06:56:04","1f75c3e559b7213887762d5229550c2b","41.122.197.193","Mozilla/5.0 (Windows NT 10.0; Win64; x64) AppleWebKit/537.36 (KHTML, like Gecko) Chrome/138.0.0.0 Safari/537.36","WebKit","Chrome","138.0.0.0","Windows","10.0","https://app.prolific.com/","en-GB,en-US;q=0.9,en;q=0.8","6744814c173b9afac78cf039","683db9eb0562dbf637994deb","68808657047845708a61ef3a","2","1","6744814c173b9afac78cf039","2","1","2025-07-23T07:08:42.346Z","","","","","","","","","","","","","","win-only","2","g1:SE,g2:NW","0.2","9","0","669993.4","10239.8","15244.3","95339.6","1","4","8","6","2","-8","-9","21","30","0.1590909090909091","5004.4","3000","-1070","[""left"",""up""]","{""num_key_presses"":19,""num_perfect"":4,""num_errors"":1,""num_randdir"":14,""num_randdir_good_moves"":5,""num_whilered"":0,""num_whileblue"":0,""num_blue"":7,""num_good_moves"":9}","[297.22232142857143,292.12857142857143,0.8,297.22232142857143,292.12857142857143,104,297.22232142857143,292.12857142857143,212.1,297.22232142857143,292.12857142857143,314.4,297.22232142857143,292.12857142857143,450.7,297.22232142857143,292.12857142857143,574.9,297.22232142857143,292.12857142857143,677,297.22232142857143,292.12857142857143,812.1,297.22232142857143,292.12857142857143,917.8,297.22232142857143,292.12857142857143,1020.6,297.22232142857143,292.12857142857143,1152.5,297.22232142857143,292.12857142857143,1261.7,297.22232142857143,292.12857142857143,1366,297.22232142857143,292.12857142857143,1476.3,297.22232142857143,292.12857142857143,1578,297.22232142857143,292.12857142857143,1678.6,297.22232142857143,292.12857142857143,1781.3,297.22232142857143,292.12857142857143,1884.6,297.22232142857143,292.12857142857143,1985.7,297.22232142857143,292.12857142857143,2090.3,297.22232142857143,292.12857142857143,2194.7,297.22232142857143,292.12857142857143,2300.3,297.22232142857143,292.12857142857143,2412.2,297.22232142857143,292.12857142857143,2551.4,297.22232142857143,292.12857142857143,2654.7,297.22232142857143,292.12857142857143,2766.6,297.22232142857143,292.12857142857143,2890.2,297.22232142857143,292.12857142857143,3011.2,297.22232142857143,292.12857142857143,3123.1,297.22232142857143,292.12857142857143,3231.7,297.22232142857143,292.12857142857143,3358.2,297.22232142857143,292.12857142857143,3499.8,297.22232142857143,292.12857142857143,3614.5,297.22232142857143,292.12857142857143,3729.3,297.22232142857143,292.12857142857143,3832.5,297.22232142857143,292.12857142857143,3937.4,297.22232142857143,292.12857142857143,4059.1,297.22232142857143,292.12857142857143,4183.9,297.22232142857143,292.12857142857143,4290.9,297.22232142857143,292.12857142857143,4412.3,297.22232142857143,292.12857142857143,4520.1,297.22232142857143,292.12857142857143,4621.5,297.22232142857143,292.12857142857143,4733.2,297.22232142857143,292.12857142857143,4845.5,297.22232142857143,292.12857142857143,4966.3]","[5332.6,5332.6,2909.4,2007.3,415.9,""oops"",""left"",""right"",""bad_move"",7940.7,2606.3,2172.2,5334.4,434.1,""oops"",""left"",""up"",""good_move"",11221.9,3280.1,2873.8,7941.9,406.2,""oops"",""left"",""up"",""good_move"",14328.4,3104.5,2754.2,11223.9,350.3,""smooth"",""left"",""left"",""good_move"",17660.7,3331.1,2930.9,14329.7,400.2,""oops"",""left"",""down"",""bad_move"",19703.9,2042,1664.8,17661.9,377.2,""smooth"",""left"",""left"",""good_move"",25414.6,5709,2125.7,22872.9,416,""oops"",""left"",""right"",""bad_move"",28034.3,2618.9,2255.8,25415.4,363.1,""oops"",""left"",""down"",""bad_move"",30748.6,2713.4,2270.7,28035.2,442.7,""oops"",""left"",""left"",""good_move"",33664.9,2915,2481.2,30749.9,433.8,""oops"",""left"",""right"",""bad_move"",39561.6,5894.3,1890.2,37166.9,504.5,""smooth"",""up"",""up"",""good_move"",43085,3521.9,3075.5,39563.1,446.4,""smooth"",""up"",""up"",""good_move"",46208.1,3121.2,2711.4,43086.9,409.8,""oops"",""up"",""right"",""bad_move"",52388.9,6179.1,2765.7,49074.8,548.4,""oops"",""up"",""down"",""bad_move"",59200.2,6810.4,2666.7,55932.9,600.6,""oops"",""up"",""down"",""bad_move"",65352.2,6151.3,2421.7,62516.1,414.4,""oops"",""left"",""left"",""good_move"",70917.5,5564.4,1958.1,69194.8,-235.4,""error"",""-"",""-"",""no_move"",74500.2,3580.9,2054.9,71952,493.3,""oops"",""left"",""up"",""good_move"",77477.9,2976.8,2479.6,74501.1,497.2,""oops"",""left"",""right"",""bad_move""]","",""
"5645","","<div style=""width:500px;"">
  <p>What determined the result of this run?</p>
  </div>","0","html-slider-response","50","770996","0.0-5.0-1.8","166","1","2025-07-23 06:56:04","1f75c3e559b7213887762d5229550c2b","41.122.197.193","Mozilla/5.0 (Windows NT 10.0; Win64; x64) AppleWebKit/537.36 (KHTML, like Gecko) Chrome/138.0.0.0 Safari/537.36","WebKit","Chrome","138.0.0.0","Windows","10.0","https://app.prolific.com/","en-GB,en-US;q=0.9,en;q=0.8","6744814c173b9afac78cf039","683db9eb0562dbf637994deb","68808657047845708a61ef3a","2","1","6744814c173b9afac78cf039","2","1","2025-07-23T07:08:47.994Z","","","","","","","","","","","AttribQ","","50","","","","","","","","","","","","","","","","","","","","","","","","","","","","",""
"5311","","<div style=""width:500px;"">
  <p>How much control did you have over the ball?</p>
  </div>","0","html-slider-response","51","776309","0.0-5.0-2.8","166","1","2025-07-23 06:56:04","1f75c3e559b7213887762d5229550c2b","41.122.197.193","Mozilla/5.0 (Windows NT 10.0; Win64; x64) AppleWebKit/537.36 (KHTML, like Gecko) Chrome/138.0.0.0 Safari/537.36","WebKit","Chrome","138.0.0.0","Windows","10.0","https://app.prolific.com/","en-GB,en-US;q=0.9,en;q=0.8","6744814c173b9afac78cf039","683db9eb0562dbf637994deb","68808657047845708a61ef3a","2","1","6744814c173b9afac78cf039","2","1","2025-07-23T07:08:53.308Z","","","","","","","","","","","ControlQ","","50","","","","","","","","","","","","","","","","","","","","","","","","","","","","",""
"8203","","<div style=""width:500px;"">
  <p>How would you describe your current emotional state?</p>
  </div>","100","html-slider-response","52","784520","0.0-5.0-3.8","166","1","2025-07-23 06:56:04","1f75c3e559b7213887762d5229550c2b","41.122.197.193","Mozilla/5.0 (Windows NT 10.0; Win64; x64) AppleWebKit/537.36 (KHTML, like Gecko) Chrome/138.0.0.0 Safari/537.36","WebKit","Chrome","138.0.0.0","Windows","10.0","https://app.prolific.com/","en-GB,en-US;q=0.9,en;q=0.8","6744814c173b9afac78cf039","683db9eb0562dbf637994deb","68808657047845708a61ef3a","2","1","6744814c173b9afac78cf039","2","1","2025-07-23T07:09:01.518Z","","","","","","","","","","","StressQ","","50","","","","","","","","","","","","","","","","","","","","","","","","","","","","",""
"6401","","<div style=""width:500px;"">
  <p>What best describes how you currently feel?</p>
  </div>","0","html-slider-response","53","790923","0.0-5.0-4.8","166","1","2025-07-23 06:56:04","1f75c3e559b7213887762d5229550c2b","41.122.197.193","Mozilla/5.0 (Windows NT 10.0; Win64; x64) AppleWebKit/537.36 (KHTML, like Gecko) Chrome/138.0.0.0 Safari/537.36","WebKit","Chrome","138.0.0.0","Windows","10.0","https://app.prolific.com/","en-GB,en-US;q=0.9,en;q=0.8","6744814c173b9afac78cf039","683db9eb0562dbf637994deb","68808657047845708a61ef3a","2","1","6744814c173b9afac78cf039","2","1","2025-07-23T07:09:07.922Z","","","","","","","","","","","MotivationQ","","50","","","","","","","","","","","","","","","","","","","","","","","","","","","","",""
"","","","","ctl-task-cpt","54","843599","0.0-5.0-0.9","166","1","2025-07-23 06:56:04","1f75c3e559b7213887762d5229550c2b","41.122.197.193","Mozilla/5.0 (Windows NT 10.0; Win64; x64) AppleWebKit/537.36 (KHTML, like Gecko) Chrome/138.0.0.0 Safari/537.36","WebKit","Chrome","138.0.0.0","Windows","10.0","https://app.prolific.com/","en-GB,en-US;q=0.9,en;q=0.8","6744814c173b9afac78cf039","683db9eb0562dbf637994deb","68808657047845708a61ef3a","2","1","6744814c173b9afac78cf039","2","1","2025-07-23T07:10:00.598Z","","","","","","","","","","","","","","win-only","1","g1:NE,g2:SW","0.4","10","0","793940.4","12250.9","17257.3","49651","1","4","4","6","2","4","4","25","21","0.1893939393939394","5006.4","3000","2050","[""down"",""left""]","{""num_key_presses"":6,""num_perfect"":2,""num_errors"":0,""num_randdir"":4,""num_randdir_good_moves"":4,""num_whilered"":0,""num_whileblue"":0,""num_blue"":4,""num_good_moves"":6}","[296.22232142857143,291.12857142857143,0.8,296.22232142857143,291.12857142857143,111.6,296.22232142857143,291.12857142857143,216.2,296.22232142857143,291.12857142857143,359.2,296.22232142857143,291.12857142857143,459.7,296.22232142857143,291.12857142857143,567.7,296.22232142857143,291.12857142857143,736.3,296.22232142857143,291.12857142857143,858.6,296.22232142857143,291.12857142857143,963.6,296.22232142857143,291.12857142857143,1073.1,296.22232142857143,291.12857142857143,1177.8,296.22232142857143,291.12857142857143,1289.5,296.22232142857143,291.12857142857143,1508,296.22232142857143,291.12857142857143,1610.3,296.22232142857143,291.12857142857143,1826.4,296.22232142857143,291.12857142857143,1927.7,296.22232142857143,291.12857142857143,2028.3,296.22232142857143,291.12857142857143,2170.3,296.22232142857143,291.12857142857143,2270.7,296.22232142857143,291.12857142857143,2488,296.22232142857143,291.12857142857143,2592.2,296.22232142857143,291.12857142857143,2702.5,296.22232142857143,291.12857142857143,2804.8,296.22232142857143,291.12857142857143,2932.4,296.22232142857143,291.12857142857143,3042.3,296.22232142857143,291.12857142857143,3150.9,296.22232142857143,291.12857142857143,3347.6,296.22232142857143,291.12857142857143,3452.3,296.22232142857143,291.12857142857143,3561.1,296.22232142857143,291.12857142857143,3662.3,296.22232142857143,291.12857142857143,3807.5,296.22232142857143,291.12857142857143,3917.6,296.22232142857143,291.12857142857143,4025.9,296.22232142857143,291.12857142857143,4205.9,296.22232142857143,291.12857142857143,4311.7,296.22232142857143,291.12857142857143,4423.7,296.22232142857143,291.12857142857143,4591.1,296.22232142857143,291.12857142857143,4694.7,296.22232142857143,291.12857142857143,4796.1,296.22232142857143,291.12857142857143,4942.9]","[4964.3,4964.3,2486.4,2017.6,460.3,""oops"",""left"",""down"",""good_move"",8040,3073.6,2577,4966.5,496.5,""oops"",""left"",""down"",""good_move"",10993.5,2951.8,2467.9,8041.7,483.9,""smooth"",""left"",""left"",""good_move"",17969.4,6970.2,2351.6,15065.9,552,""smooth"",""left"",""left"",""good_move"",29077.1,11107,3108,25409.7,559.4,""oops"",""left"",""down"",""good_move"",32134.7,3056.8,2605.8,29078,450.9,""oops"",""left"",""left"",""good_move""]","",""
"7441","","<div style=""width:500px;"">
  <p>What determined the result of this run?</p>
  </div>","1","html-slider-response","55","851043","0.0-5.0-1.9","166","1","2025-07-23 06:56:04","1f75c3e559b7213887762d5229550c2b","41.122.197.193","Mozilla/5.0 (Windows NT 10.0; Win64; x64) AppleWebKit/537.36 (KHTML, like Gecko) Chrome/138.0.0.0 Safari/537.36","WebKit","Chrome","138.0.0.0","Windows","10.0","https://app.prolific.com/","en-GB,en-US;q=0.9,en;q=0.8","6744814c173b9afac78cf039","683db9eb0562dbf637994deb","68808657047845708a61ef3a","2","1","6744814c173b9afac78cf039","2","1","2025-07-23T07:10:08.041Z","","","","","","","","","","","AttribQ","","50","","","","","","","","","","","","","","","","","","","","","","","","","","","","",""
"7376","","<div style=""width:500px;"">
  <p>How much control did you have over the ball?</p>
  </div>","0","html-slider-response","56","858422","0.0-5.0-2.9","166","1","2025-07-23 06:56:04","1f75c3e559b7213887762d5229550c2b","41.122.197.193","Mozilla/5.0 (Windows NT 10.0; Win64; x64) AppleWebKit/537.36 (KHTML, like Gecko) Chrome/138.0.0.0 Safari/537.36","WebKit","Chrome","138.0.0.0","Windows","10.0","https://app.prolific.com/","en-GB,en-US;q=0.9,en;q=0.8","6744814c173b9afac78cf039","683db9eb0562dbf637994deb","68808657047845708a61ef3a","2","1","6744814c173b9afac78cf039","2","1","2025-07-23T07:10:15.420Z","","","","","","","","","","","ControlQ","","50","","","","","","","","","","","","","","","","","","","","","","","","","","","","",""
"6252","","<div style=""width:500px;"">
  <p>How would you describe your current emotional state?</p>
  </div>","35","html-slider-response","57","864678","0.0-5.0-3.9","166","1","2025-07-23 06:56:04","1f75c3e559b7213887762d5229550c2b","41.122.197.193","Mozilla/5.0 (Windows NT 10.0; Win64; x64) AppleWebKit/537.36 (KHTML, like Gecko) Chrome/138.0.0.0 Safari/537.36","WebKit","Chrome","138.0.0.0","Windows","10.0","https://app.prolific.com/","en-GB,en-US;q=0.9,en;q=0.8","6744814c173b9afac78cf039","683db9eb0562dbf637994deb","68808657047845708a61ef3a","2","1","6744814c173b9afac78cf039","2","1","2025-07-23T07:10:21.676Z","","","","","","","","","","","StressQ","","50","","","","","","","","","","","","","","","","","","","","","","","","","","","","",""
"7420","","<div style=""width:500px;"">
  <p>What best describes how you currently feel?</p>
  </div>","90","html-slider-response","58","872102","0.0-5.0-4.9","166","1","2025-07-23 06:56:04","1f75c3e559b7213887762d5229550c2b","41.122.197.193","Mozilla/5.0 (Windows NT 10.0; Win64; x64) AppleWebKit/537.36 (KHTML, like Gecko) Chrome/138.0.0.0 Safari/537.36","WebKit","Chrome","138.0.0.0","Windows","10.0","https://app.prolific.com/","en-GB,en-US;q=0.9,en;q=0.8","6744814c173b9afac78cf039","683db9eb0562dbf637994deb","68808657047845708a61ef3a","2","1","6744814c173b9afac78cf039","2","1","2025-07-23T07:10:29.100Z","","","","","","","","","","","MotivationQ","","50","","","","","","","","","","","","","","","","","","","","","","","","","","","","",""
"","","","","ctl-task-cpt","59","920354","0.0-5.0-0.10","166","1","2025-07-23 06:56:04","1f75c3e559b7213887762d5229550c2b","41.122.197.193","Mozilla/5.0 (Windows NT 10.0; Win64; x64) AppleWebKit/537.36 (KHTML, like Gecko) Chrome/138.0.0.0 Safari/537.36","WebKit","Chrome","138.0.0.0","Windows","10.0","https://app.prolific.com/","en-GB,en-US;q=0.9,en;q=0.8","6744814c173b9afac78cf039","683db9eb0562dbf637994deb","68808657047845708a61ef3a","2","1","6744814c173b9afac78cf039","2","1","2025-07-23T07:11:17.353Z","","","","","","","","","","","","","","win-only","0","g1:NW,g2:SE","0.5","11","0","875121.1","11118.9","16125.3","45223.1","1","4","4","6","1","1","1","26","25","0.19696969696969696","5006.4","3000","2080","[""left"",""up""]","{""num_key_presses"":6,""num_perfect"":3,""num_errors"":0,""num_randdir"":3,""num_randdir_good_moves"":2,""num_whilered"":0,""num_whileblue"":0,""num_blue"":3,""num_good_moves"":5}","[292.22232142857143,299.12857142857143,1.9,292.22232142857143,299.12857142857143,113.8,292.22232142857143,299.12857142857143,223.5,292.22232142857143,299.12857142857143,431.8,292.22232142857143,299.12857142857143,541.8,292.22232142857143,299.12857142857143,734.9,292.22232142857143,299.12857142857143,845.2,292.22232142857143,299.12857142857143,953.4,292.22232142857143,299.12857142857143,1167.3,292.22232142857143,299.12857142857143,1270.3,292.22232142857143,299.12857142857143,1391.7,292.22232142857143,299.12857142857143,1493.4,292.22232142857143,299.12857142857143,1594,292.22232142857143,299.12857142857143,1719.9,292.22232142857143,299.12857142857143,1825.3,292.22232142857143,299.12857142857143,1930.3,292.22232142857143,299.12857142857143,2074.4,292.22232142857143,299.12857142857143,2180.1,292.22232142857143,299.12857142857143,2280.4,292.22232142857143,299.12857142857143,2487.2,292.22232142857143,299.12857142857143,2591.4,292.22232142857143,299.12857142857143,2812.9,292.22232142857143,299.12857142857143,2924.9,292.22232142857143,299.12857142857143,3120,292.22232142857143,299.12857142857143,3226.8,292.22232142857143,299.12857142857143,3332.9,292.22232142857143,299.12857142857143,3548.9,292.22232142857143,299.12857142857143,3656.2,292.22232142857143,299.12857142857143,3881.6,292.22232142857143,299.12857142857143,3982.6,292.22232142857143,299.12857142857143,4200.3,292.22232142857143,299.12857142857143,4346.1,292.22232142857143,299.12857142857143,4466.9,292.22232142857143,299.12857142857143,4568.2,292.22232142857143,299.12857142857143,4759.8,292.22232142857143,299.12857142857143,4864,292.22232142857143,299.12857142857143,4974.3]","[1527.9,1527.9,1000,0,527.9,""oops"",""left"",""right"",""bad_move"",4405.7,2875.3,2334.9,1530.4,540.4,""smooth"",""left"",""left"",""good_move"",10964.6,6557,2337.8,8019.8,607,""smooth"",""left"",""left"",""good_move"",14260.3,3294.7,2509.7,10965.7,785,""smooth"",""left"",""left"",""good_move"",25011.3,10749,2703.6,21706,601.7,""oops"",""up"",""up"",""good_move"",28681.2,3668.6,2968.8,25012.8,699.7,""oops"",""up"",""up"",""good_move""]","",""
"3128","","<div style=""width:500px;"">
  <p>What determined the result of this run?</p>
  </div>","70","html-slider-response","60","923486","0.0-5.0-1.10","166","1","2025-07-23 06:56:04","1f75c3e559b7213887762d5229550c2b","41.122.197.193","Mozilla/5.0 (Windows NT 10.0; Win64; x64) AppleWebKit/537.36 (KHTML, like Gecko) Chrome/138.0.0.0 Safari/537.36","WebKit","Chrome","138.0.0.0","Windows","10.0","https://app.prolific.com/","en-GB,en-US;q=0.9,en;q=0.8","6744814c173b9afac78cf039","683db9eb0562dbf637994deb","68808657047845708a61ef3a","2","1","6744814c173b9afac78cf039","2","1","2025-07-23T07:11:20.484Z","","","","","","","","","","","AttribQ","","50","","","","","","","","","","","","","","","","","","","","","","","","","","","","",""
"4274","","<div style=""width:500px;"">
  <p>How much control did you have over the ball?</p>
  </div>","54","html-slider-response","61","927765","0.0-5.0-2.10","166","1","2025-07-23 06:56:04","1f75c3e559b7213887762d5229550c2b","41.122.197.193","Mozilla/5.0 (Windows NT 10.0; Win64; x64) AppleWebKit/537.36 (KHTML, like Gecko) Chrome/138.0.0.0 Safari/537.36","WebKit","Chrome","138.0.0.0","Windows","10.0","https://app.prolific.com/","en-GB,en-US;q=0.9,en;q=0.8","6744814c173b9afac78cf039","683db9eb0562dbf637994deb","68808657047845708a61ef3a","2","1","6744814c173b9afac78cf039","2","1","2025-07-23T07:11:24.763Z","","","","","","","","","","","ControlQ","","50","","","","","","","","","","","","","","","","","","","","","","","","","","","","",""
"3031","","<div style=""width:500px;"">
  <p>How would you describe your current emotional state?</p>
  </div>","46","html-slider-response","62","930800","0.0-5.0-3.10","166","1","2025-07-23 06:56:04","1f75c3e559b7213887762d5229550c2b","41.122.197.193","Mozilla/5.0 (Windows NT 10.0; Win64; x64) AppleWebKit/537.36 (KHTML, like Gecko) Chrome/138.0.0.0 Safari/537.36","WebKit","Chrome","138.0.0.0","Windows","10.0","https://app.prolific.com/","en-GB,en-US;q=0.9,en;q=0.8","6744814c173b9afac78cf039","683db9eb0562dbf637994deb","68808657047845708a61ef3a","2","1","6744814c173b9afac78cf039","2","1","2025-07-23T07:11:27.799Z","","","","","","","","","","","StressQ","","50","","","","","","","","","","","","","","","","","","","","","","","","","","","","",""
"2906","","<div style=""width:500px;"">
  <p>What best describes how you currently feel?</p>
  </div>","45","html-slider-response","63","933711","0.0-5.0-4.10","166","1","2025-07-23 06:56:04","1f75c3e559b7213887762d5229550c2b","41.122.197.193","Mozilla/5.0 (Windows NT 10.0; Win64; x64) AppleWebKit/537.36 (KHTML, like Gecko) Chrome/138.0.0.0 Safari/537.36","WebKit","Chrome","138.0.0.0","Windows","10.0","https://app.prolific.com/","en-GB,en-US;q=0.9,en;q=0.8","6744814c173b9afac78cf039","683db9eb0562dbf637994deb","68808657047845708a61ef3a","2","1","6744814c173b9afac78cf039","2","1","2025-07-23T07:11:30.709Z","","","","","","","","","","","MotivationQ","","50","","","","","","","","","","","","","","","","","","","","","","","","","","","","",""
"","","","","ctl-task-cpt","64","984466","0.0-5.0-0.11","166","1","2025-07-23 06:56:04","1f75c3e559b7213887762d5229550c2b","41.122.197.193","Mozilla/5.0 (Windows NT 10.0; Win64; x64) AppleWebKit/537.36 (KHTML, like Gecko) Chrome/138.0.0.0 Safari/537.36","WebKit","Chrome","138.0.0.0","Windows","10.0","https://app.prolific.com/","en-GB,en-US;q=0.9,en;q=0.8","6744814c173b9afac78cf039","683db9eb0562dbf637994deb","68808657047845708a61ef3a","2","1","6744814c173b9afac78cf039","2","1","2025-07-23T07:12:21.464Z","","","","","","","","","","","","","","win-only","1","g1:NE,g2:SW","0.6","12","0","936729.9","2274.5","7299.3","47668","1","4","8","6","1","1","1","27","26","0.20454545454545456","5024.8","3000","2670","[""up"",""right""]","{""num_key_presses"":6,""num_perfect"":3,""num_errors"":0,""num_randdir"":3,""num_randdir_good_moves"":2,""num_whilered"":0,""num_whileblue"":0,""num_blue"":0,""num_good_moves"":5}","[296.22232142857143,295.12857142857143,0.7,296.22232142857143,295.12857142857143,116,296.22232142857143,295.12857142857143,233.8,296.22232142857143,295.12857142857143,355,296.22232142857143,295.12857142857143,476.7,296.22232142857143,295.12857142857143,588.3,296.22232142857143,295.12857142857143,704.6,296.22232142857143,295.12857142857143,823.3,296.22232142857143,295.12857142857143,944.5,296.22232142857143,295.12857142857143,1059.5,296.22232142857143,295.12857142857143,1177,296.22232142857143,295.12857142857143,1295.5,296.22232142857143,295.12857142857143,1408.2,296.22232142857143,295.12857142857143,1532.2,296.22232142857143,295.12857142857143,1658.2,296.22232142857143,295.12857142857143,1778.8,296.22232142857143,295.12857142857143,1899.3,296.22232142857143,295.12857142857143,2017.8,296.22232142857143,295.12857142857143,2143.4,296.22232142857143,295.12857142857143,2259.9,296.22232142857143,295.12857142857143,2378.8,296.22232142857143,295.12857142857143,2499.9,296.22232142857143,295.12857142857143,2617,296.22232142857143,295.12857142857143,2736.8,296.22232142857143,295.12857142857143,2857.2,296.22232142857143,295.12857142857143,2979.9,296.22232142857143,295.12857142857143,3101.8,296.22232142857143,295.12857142857143,3222.3,296.22232142857143,295.12857142857143,3346.9,296.22232142857143,295.12857142857143,3469.5,296.22232142857143,295.12857142857143,3590.4,296.22232142857143,295.12857142857143,3716.8,296.22232142857143,295.12857142857143,3830,296.22232142857143,295.12857142857143,3959.6,296.22232142857143,295.12857142857143,4082.9,296.22232142857143,295.12857142857143,4206.2,296.22232142857143,295.12857142857143,4328,296.22232142857143,295.12857142857143,4451.6,296.22232142857143,295.12857142857143,4573.1,296.22232142857143,295.12857142857143,4697.8,296.22232142857143,295.12857142857143,4817.1,296.22232142857143,295.12857142857143,4940.1]","[1526.1,1526.1,1000,0,526.1,""oops"",""right"",""up"",""good_move"",9281.9,7755,3417.3,1526.9,4337.7,""oops"",""right"",""right"",""good_move"",12623,3339.7,2124.6,9283.3,1215.1,""smooth"",""right"",""right"",""good_move"",15865.9,3242.1,2365.1,12623.9,877,""oops"",""up"",""left"",""bad_move"",26815.9,10948.8,2259.8,15867.1,8689,""smooth"",""up"",""up"",""good_move"",38087,11270,2295,26817,8975,""smooth"",""right"",""right"",""good_move""]","",""
"2624","","<div style=""width:500px;"">
  <p>What determined the result of this run?</p>
  </div>","58","html-slider-response","65","987097","0.0-5.0-1.11","166","1","2025-07-23 06:56:04","1f75c3e559b7213887762d5229550c2b","41.122.197.193","Mozilla/5.0 (Windows NT 10.0; Win64; x64) AppleWebKit/537.36 (KHTML, like Gecko) Chrome/138.0.0.0 Safari/537.36","WebKit","Chrome","138.0.0.0","Windows","10.0","https://app.prolific.com/","en-GB,en-US;q=0.9,en;q=0.8","6744814c173b9afac78cf039","683db9eb0562dbf637994deb","68808657047845708a61ef3a","2","1","6744814c173b9afac78cf039","2","1","2025-07-23T07:12:24.095Z","","","","","","","","","","","AttribQ","","50","","","","","","","","","","","","","","","","","","","","","","","","","","","","",""
"3436","","<div style=""width:500px;"">
  <p>How much control did you have over the ball?</p>
  </div>","55","html-slider-response","66","990539","0.0-5.0-2.11","166","1","2025-07-23 06:56:04","1f75c3e559b7213887762d5229550c2b","41.122.197.193","Mozilla/5.0 (Windows NT 10.0; Win64; x64) AppleWebKit/537.36 (KHTML, like Gecko) Chrome/138.0.0.0 Safari/537.36","WebKit","Chrome","138.0.0.0","Windows","10.0","https://app.prolific.com/","en-GB,en-US;q=0.9,en;q=0.8","6744814c173b9afac78cf039","683db9eb0562dbf637994deb","68808657047845708a61ef3a","2","1","6744814c173b9afac78cf039","2","1","2025-07-23T07:12:27.537Z","","","","","","","","","","","ControlQ","","50","","","","","","","","","","","","","","","","","","","","","","","","","","","","",""
"4287","","<div style=""width:500px;"">
  <p>How would you describe your current emotional state?</p>
  </div>","47","html-slider-response","67","994833","0.0-5.0-3.11","166","1","2025-07-23 06:56:04","1f75c3e559b7213887762d5229550c2b","41.122.197.193","Mozilla/5.0 (Windows NT 10.0; Win64; x64) AppleWebKit/537.36 (KHTML, like Gecko) Chrome/138.0.0.0 Safari/537.36","WebKit","Chrome","138.0.0.0","Windows","10.0","https://app.prolific.com/","en-GB,en-US;q=0.9,en;q=0.8","6744814c173b9afac78cf039","683db9eb0562dbf637994deb","68808657047845708a61ef3a","2","1","6744814c173b9afac78cf039","2","1","2025-07-23T07:12:31.831Z","","","","","","","","","","","StressQ","","50","","","","","","","","","","","","","","","","","","","","","","","","","","","","",""
"2728","","<div style=""width:500px;"">
  <p>What best describes how you currently feel?</p>
  </div>","46","html-slider-response","68","997567","0.0-5.0-4.11","166","1","2025-07-23 06:56:04","1f75c3e559b7213887762d5229550c2b","41.122.197.193","Mozilla/5.0 (Windows NT 10.0; Win64; x64) AppleWebKit/537.36 (KHTML, like Gecko) Chrome/138.0.0.0 Safari/537.36","WebKit","Chrome","138.0.0.0","Windows","10.0","https://app.prolific.com/","en-GB,en-US;q=0.9,en;q=0.8","6744814c173b9afac78cf039","683db9eb0562dbf637994deb","68808657047845708a61ef3a","2","1","6744814c173b9afac78cf039","2","1","2025-07-23T07:12:34.565Z","","","","","","","","","","","MotivationQ","","50","","","","","","","","","","","","","","","","","","","","","","","","","","","","",""
"","","","","ctl-task-cpt","69","1112925","0.0-5.0-0.12","166","1","2025-07-23 06:56:04","1f75c3e559b7213887762d5229550c2b","41.122.197.193","Mozilla/5.0 (Windows NT 10.0; Win64; x64) AppleWebKit/537.36 (KHTML, like Gecko) Chrome/138.0.0.0 Safari/537.36","WebKit","Chrome","138.0.0.0","Windows","10.0","https://app.prolific.com/","en-GB,en-US;q=0.9,en;q=0.8","6744814c173b9afac78cf039","683db9eb0562dbf637994deb","68808657047845708a61ef3a","2","1","6744814c173b9afac78cf039","2","1","2025-07-23T07:14:29.923Z","","","","","","","","","","","","","","win-only","1","g1:NE,g2:SW","0.7","13","0","1000586.1","1642.3","6692.7","112286.5","1","4","4","6","2","4","4","31","27","0.23484848484848486","5050.4","3000","1610","[""down"",""left""]","{""num_key_presses"":18,""num_perfect"":13,""num_errors"":0,""num_randdir"":5,""num_randdir_good_moves"":0,""num_whilered"":0,""num_whileblue"":0,""num_blue"":1,""num_good_moves"":13}","[299.22232142857143,287.12857142857143,0.6,299.22232142857143,287.12857142857143,169.3,299.22232142857143,287.12857142857143,334.9,299.22232142857143,287.12857142857143,486.2,299.22232142857143,287.12857142857143,635,299.22232142857143,287.12857142857143,786.3,299.22232142857143,287.12857142857143,988.4,299.22232142857143,287.12857142857143,1136.2,299.22232142857143,287.12857142857143,1287.5,299.22232142857143,287.12857142857143,1434,299.22232142857143,287.12857142857143,1580.7,299.22232142857143,287.12857142857143,1730.9,299.22232142857143,287.12857142857143,1876.1,299.22232142857143,287.12857142857143,2023.8,299.22232142857143,287.12857142857143,2174.4,299.22232142857143,287.12857142857143,2321.8,299.22232142857143,287.12857142857143,2470.2,299.22232142857143,287.12857142857143,2614.9,299.22232142857143,287.12857142857143,2764.7,299.22232142857143,287.12857142857143,2910.8,299.22232142857143,287.12857142857143,3059.7,299.22232142857143,287.12857142857143,3206.4,299.22232142857143,287.12857142857143,3353,299.22232142857143,287.12857142857143,3500,299.22232142857143,287.12857142857143,3646.9,299.22232142857143,287.12857142857143,3793.9,299.22232142857143,287.12857142857143,3938.2,299.22232142857143,287.12857142857143,4084.2,299.22232142857143,287.12857142857143,4230.2,299.22232142857143,287.12857142857143,4379.3,299.22232142857143,287.12857142857143,4528,299.22232142857143,287.12857142857143,4674.8,299.22232142857143,287.12857142857143,4827.1,299.22232142857143,287.12857142857143,4975.4]","[1700,1700,1000,0,700,""smooth"",""left"",""left"",""good_move"",15123.2,13421.2,2454.5,1702,10966.7,""oops"",""left"",""right"",""bad_move"",18564.8,3440,2846,15124.9,594,""smooth"",""left"",""left"",""good_move"",32287.3,13721.7,2229,18565.6,11492.7,""smooth"",""down"",""down"",""good_move"",36119.2,3831.1,2953.8,32288.1,877.3,""oops"",""down"",""up"",""bad_move"",50773.5,14653.5,2507,36120,12146.5,""oops"",""down"",""right"",""bad_move"",54443.5,3668.8,2377.7,50774.7,1291.1,""smooth"",""down"",""down"",""good_move"",57318.8,2874.5,1535.9,54444.4,1338.5,""smooth"",""down"",""down"",""good_move"",60550,3230.5,2589.7,57319.6,640.7,""smooth"",""down"",""down"",""good_move"",63636,3085.2,2393.6,60550.9,691.5,""smooth"",""down"",""down"",""good_move"",66520.6,2883.8,1905.9,63636.8,977.9,""smooth"",""down"",""down"",""good_move"",69793,3271.5,2726.9,66521.5,544.6,""smooth"",""left"",""left"",""good_move"",81406.3,11612.5,2455,69793.9,9157.4,""oops"",""left"",""right"",""bad_move"",88256.3,6848.9,2697,84735.9,823.4,""oops"",""left"",""right"",""bad_move"",90949.7,2691.8,2012.6,88257.9,679.2,""smooth"",""left"",""left"",""good_move"",95105.8,4153.6,2599.5,90952.2,1554.2,""smooth"",""left"",""left"",""good_move"",99133.2,4026.4,1836.3,95106.9,2190,""smooth"",""left"",""left"",""good_move"",105503.9,6368.8,2776.7,99135.2,3592.1,""smooth"",""left"",""left"",""good_move""]","",""
"13161","","<div style=""width:500px;"">
  <p>What determined the result of this run?</p>
  </div>","55","html-slider-response","70","1126091","0.0-5.0-1.12","166","1","2025-07-23 06:56:04","1f75c3e559b7213887762d5229550c2b","41.122.197.193","Mozilla/5.0 (Windows NT 10.0; Win64; x64) AppleWebKit/537.36 (KHTML, like Gecko) Chrome/138.0.0.0 Safari/537.36","WebKit","Chrome","138.0.0.0","Windows","10.0","https://app.prolific.com/","en-GB,en-US;q=0.9,en;q=0.8","6744814c173b9afac78cf039","683db9eb0562dbf637994deb","68808657047845708a61ef3a","2","1","6744814c173b9afac78cf039","2","1","2025-07-23T07:14:43.089Z","","","","","","","","","","","AttribQ","","50","","","","","","","","","","","","","","","","","","","","","","","","","","","","",""
"4070","","<div style=""width:500px;"">
  <p>How much control did you have over the ball?</p>
  </div>","44","html-slider-response","71","1130166","0.0-5.0-2.12","166","1","2025-07-23 06:56:04","1f75c3e559b7213887762d5229550c2b","41.122.197.193","Mozilla/5.0 (Windows NT 10.0; Win64; x64) AppleWebKit/537.36 (KHTML, like Gecko) Chrome/138.0.0.0 Safari/537.36","WebKit","Chrome","138.0.0.0","Windows","10.0","https://app.prolific.com/","en-GB,en-US;q=0.9,en;q=0.8","6744814c173b9afac78cf039","683db9eb0562dbf637994deb","68808657047845708a61ef3a","2","1","6744814c173b9afac78cf039","2","1","2025-07-23T07:14:47.164Z","","","","","","","","","","","ControlQ","","50","","","","","","","","","","","","","","","","","","","","","","","","","","","","",""
"3103","","<div style=""width:500px;"">
  <p>How would you describe your current emotional state?</p>
  </div>","58","html-slider-response","72","1133273","0.0-5.0-3.12","166","1","2025-07-23 06:56:04","1f75c3e559b7213887762d5229550c2b","41.122.197.193","Mozilla/5.0 (Windows NT 10.0; Win64; x64) AppleWebKit/537.36 (KHTML, like Gecko) Chrome/138.0.0.0 Safari/537.36","WebKit","Chrome","138.0.0.0","Windows","10.0","https://app.prolific.com/","en-GB,en-US;q=0.9,en;q=0.8","6744814c173b9afac78cf039","683db9eb0562dbf637994deb","68808657047845708a61ef3a","2","1","6744814c173b9afac78cf039","2","1","2025-07-23T07:14:50.272Z","","","","","","","","","","","StressQ","","50","","","","","","","","","","","","","","","","","","","","","","","","","","","","",""
"4281","","<div style=""width:500px;"">
  <p>What best describes how you currently feel?</p>
  </div>","54","html-slider-response","73","1137562","0.0-5.0-4.12","166","1","2025-07-23 06:56:04","1f75c3e559b7213887762d5229550c2b","41.122.197.193","Mozilla/5.0 (Windows NT 10.0; Win64; x64) AppleWebKit/537.36 (KHTML, like Gecko) Chrome/138.0.0.0 Safari/537.36","WebKit","Chrome","138.0.0.0","Windows","10.0","https://app.prolific.com/","en-GB,en-US;q=0.9,en;q=0.8","6744814c173b9afac78cf039","683db9eb0562dbf637994deb","68808657047845708a61ef3a","2","1","6744814c173b9afac78cf039","2","1","2025-07-23T07:14:54.560Z","","","","","","","","","","","MotivationQ","","50","","","","","","","","","","","","","","","","","","","","","","","","","","","","",""
"","","","","ctl-task-cpt","74","1200317","0.0-5.0-0.13","166","1","2025-07-23 06:56:04","1f75c3e559b7213887762d5229550c2b","41.122.197.193","Mozilla/5.0 (Windows NT 10.0; Win64; x64) AppleWebKit/537.36 (KHTML, like Gecko) Chrome/138.0.0.0 Safari/537.36","WebKit","Chrome","138.0.0.0","Windows","10.0","https://app.prolific.com/","en-GB,en-US;q=0.9,en;q=0.8","6744814c173b9afac78cf039","683db9eb0562dbf637994deb","68808657047845708a61ef3a","2","1","6744814c173b9afac78cf039","2","1","2025-07-23T07:15:57.315Z","","","","","","","","","","","","","","win-only","0","g1:NW,g2:SE","0.8","14","0","1140581.6","1796.2","6818.7","59727.4","1","4","8","6","1","1","1","32","31","0.24242424242424243","5022.4","3000","2565","[""left"",""up""]","{""num_key_presses"":6,""num_perfect"":5,""num_errors"":0,""num_randdir"":1,""num_randdir_good_moves"":0,""num_whilered"":0,""num_whileblue"":0,""num_blue"":1,""num_good_moves"":5}","[299.22232142857143,301.12857142857143,0.7,299.22232142857143,301.12857142857143,167.6,299.22232142857143,301.12857142857143,313.4,299.22232142857143,301.12857142857143,461.4,299.22232142857143,301.12857142857143,609.4,299.22232142857143,301.12857142857143,766.8,299.22232142857143,301.12857142857143,918.6,299.22232142857143,301.12857142857143,1067.2,299.22232142857143,301.12857142857143,1225.6,299.22232142857143,301.12857142857143,1371.4,299.22232142857143,301.12857142857143,1523.4,299.22232142857143,301.12857142857143,1670,299.22232142857143,301.12857142857143,1813.9,299.22232142857143,301.12857142857143,1958.9,299.22232142857143,301.12857142857143,2106.2,299.22232142857143,301.12857142857143,2252,299.22232142857143,301.12857142857143,2398.6,299.22232142857143,301.12857142857143,2542.4,299.22232142857143,301.12857142857143,2686.7,299.22232142857143,301.12857142857143,2830.6,299.22232142857143,301.12857142857143,2978.9,299.22232142857143,301.12857142857143,3128.3,299.22232142857143,301.12857142857143,3274.9,299.22232142857143,301.12857142857143,3422.3,299.22232142857143,301.12857142857143,3567.7,299.22232142857143,301.12857142857143,3714.3,299.22232142857143,301.12857142857143,3857.2,299.22232142857143,301.12857142857143,4004.9,299.22232142857143,301.12857142857143,4155.9,299.22232142857143,301.12857142857143,4303.4,299.22232142857143,301.12857142857143,4449.6,299.22232142857143,301.12857142857143,4595.5,299.22232142857143,301.12857142857143,4734.4,299.22232142857143,301.12857142857143,4877.7]","[1712,1712,1000,0,712,""smooth"",""left"",""left"",""good_move"",14988,13275.4,2954.1,1712.7,10321.3,""smooth"",""left"",""left"",""good_move"",29969.4,14980.8,2836.1,14988.6,12144.7,""smooth"",""up"",""up"",""good_move"",45171.7,15200.9,2739.1,41904.3,528.3,""oops"",""up"",""down"",""bad_move"",48600.7,3428,3000.4,45172.7,427.6,""smooth"",""up"",""up"",""good_move"",52490.1,3887.3,1925.1,48602.8,1962.2,""smooth"",""up"",""up"",""good_move""]","",""
"3712","","<div style=""width:500px;"">
  <p>What determined the result of this run?</p>
  </div>","66","html-slider-response","75","1204031","0.0-5.0-1.13","166","1","2025-07-23 06:56:04","1f75c3e559b7213887762d5229550c2b","41.122.197.193","Mozilla/5.0 (Windows NT 10.0; Win64; x64) AppleWebKit/537.36 (KHTML, like Gecko) Chrome/138.0.0.0 Safari/537.36","WebKit","Chrome","138.0.0.0","Windows","10.0","https://app.prolific.com/","en-GB,en-US;q=0.9,en;q=0.8","6744814c173b9afac78cf039","683db9eb0562dbf637994deb","68808657047845708a61ef3a","2","1","6744814c173b9afac78cf039","2","1","2025-07-23T07:16:01.030Z","","","","","","","","","","","AttribQ","","50","","","","","","","","","","","","","","","","","","","","","","","","","","","","",""
"6266","","<div style=""width:500px;"">
  <p>How much control did you have over the ball?</p>
