"rt","response_timestamp","stimulus","response","trial_type","trial_index","time_elapsed","internal_node_id","run_id","condition","recorded_at","source_code_version","ip","user_agent","device","browser","browser_version","platform","platform_version","referer","accept_language","PROLIFIC_PID","STUDY_ID","SESSION_ID","WEEK","BATCH","prolific_id","week","batch","realtime","success","responses","item_order","radio_event_ids","radio_event_times","key_event_times","mouse_event_times","straightlining","zigzagging","honeypot","eventType","view_history","slider_start","which_type","canvas_config","goals_layout","control_level","trial_number","tutorial_trial_number","trial_start_time","phase1_start_time","phase2_start_time","phase3_start_time","goal_1_value","goal_1_distance","goal_2_value","goal_2_distance","goal_selected","outcome","outcome_total","participant_final_score","participant_initial_score","participant_final_score_prop","goal_choice_rt","allocated_time","allocated_time_remaining","goal_direction","counts","mouse_movements","key_presses","question_order","question_id"
"2486","1753870122396","<p style='font-size:40px;line-height:1.25'><strong>Welcome to the experiment!</strong></p><p style='font-size:1.1em;line-height:1.25'>Thank you for participanting in our experiment again! You will be asked to play the Dysfunctional Ball Game again. We will briefly recap the rules before we start.</p><p style='font-size:1.1em;line-height:1.25'>Press <strong>Next</strong> to continue.</p>","0","custom-html-button-response","0","2499","0.0-0.0","284","1","2025-07-30 10:08:35","1f75c3e559b7213887762d5229550c2b","220.244.163.79","Mozilla/5.0 (Windows NT 10.0; Win64; x64; rv:141.0) Gecko/20100101 Firefox/141.0","","Firefox","141.0","Windows","10.0","https://app.prolific.com/","en-US,en;q=0.5","642cb1f7f42c4e0a6c5d4eef","6877631c9844ddd5501205fc","6889ef16cc6f1a8ea9c45410","3","1","642cb1f7f42c4e0a6c5d4eef","3","1","2025-07-30T10:08:42.399Z","","","","","","","","","","","","","","","","","","","","","","","","","","","","","","","","","","","","","","","","","",""
"1292","","","","fullscreen","1","4810","0.0-1.0","284","1","2025-07-30 10:08:35","1f75c3e559b7213887762d5229550c2b","220.244.163.79","Mozilla/5.0 (Windows NT 10.0; Win64; x64; rv:141.0) Gecko/20100101 Firefox/141.0","","Firefox","141.0","Windows","10.0","https://app.prolific.com/","en-US,en;q=0.5","642cb1f7f42c4e0a6c5d4eef","6877631c9844ddd5501205fc","6889ef16cc6f1a8ea9c45410","3","1","642cb1f7f42c4e0a6c5d4eef","3","1","","true","","","","","","","","","","","","","","","","","","","","","","","","","","","","","","","","","","","","","","","","",""
"2578","1753870127289","<p style='font-size:1.1em;line-height:1.25'>In the following, we will ask you a few questions relating to your feelings in the last 24 hours.<br></p><p style='font-size:1.1em;line-height:1.25'>Press the <strong>Next</strong> button to continue.</p>","0","custom-html-button-response","2","7390","0.0-2.0-0.0","284","1","2025-07-30 10:08:35","1f75c3e559b7213887762d5229550c2b","220.244.163.79","Mozilla/5.0 (Windows NT 10.0; Win64; x64; rv:141.0) Gecko/20100101 Firefox/141.0","","Firefox","141.0","Windows","10.0","https://app.prolific.com/","en-US,en;q=0.5","642cb1f7f42c4e0a6c5d4eef","6877631c9844ddd5501205fc","6889ef16cc6f1a8ea9c45410","3","1","642cb1f7f42c4e0a6c5d4eef","3","1","2025-07-30T10:08:47.290Z","","","","","","","","","","","","","","","","","","","","","","","","","","","","","","","","","","","","","","","","","",""
"58698","","","","survey-template","3","66096","0.0-2.0-1.0","284","1","2025-07-30 10:08:35","1f75c3e559b7213887762d5229550c2b","220.244.163.79","Mozilla/5.0 (Windows NT 10.0; Win64; x64; rv:141.0) Gecko/20100101 Firefox/141.0","","Firefox","141.0","Windows","10.0","https://app.prolific.com/","en-US,en;q=0.5","642cb1f7f42c4e0a6c5d4eef","6877631c9844ddd5501205fc","6889ef16cc6f1a8ea9c45410","3","1","642cb1f7f42c4e0a6c5d4eef","3","1","2025-07-30T10:09:45.996Z","","{""Q01"":""0"",""Q02"":""0"",""Q03"":""0"",""Q04"":""2"",""Q05"":""0"",""Q06"":""0"",""Q07"":""0"",""Q08"":""0"",""Q09"":""0"",""Q10"":""3"",""Q11"":""1"",""Q12"":""0"",""Q13"":""5"",""Q14"":""1"",""Q15"":""0"",""Q16"":""1"",""Q17"":""1"",""Q18"":""0"",""Q19"":""2"",""Q20"":""3"",""Q21"":""0"",""Q22"":""0""}","[0,1,2,3,4,5,6,7,8,9,10,11,12,13,14,15,16,17,18,19,20,21]","[""Q01"",""Q02"",""Q03"",""Q04"",""Q05"",""Q06"",""Q04"",""Q07"",""Q08"",""Q09"",""Q10"",""Q11"",""Q12"",""Q13"",""Q14"",""Q15"",""Q16"",""Q16"",""Q17"",""Q18"",""Q19"",""Q20"",""Q21"",""Q22""]","[3049,4321,5938,7417,8572,11617,12601,17714,18942,20318,23171,24882,26779,28348,29881,32400,34343,35797,38062,40320,46625,49876,54575,57482]","[]","[0,3049,4321,5938,7417,8572,9734,10680,11617,12601,17714,18942,20318,23171,24882,26779,28348,29881,32400,34343,35797,38062,40320,46625,49876,54575,57482,58695]","0.5909090909090909","0.2857142857142857","0","drsp","","","","","","","","","","","","","","","","","","","","","","","","","","","","","","",""
"11203","","","","survey-template","4","77307","0.0-2.0-2.0","284","1","2025-07-30 10:08:35","1f75c3e559b7213887762d5229550c2b","220.244.163.79","Mozilla/5.0 (Windows NT 10.0; Win64; x64; rv:141.0) Gecko/20100101 Firefox/141.0","","Firefox","141.0","Windows","10.0","https://app.prolific.com/","en-US,en;q=0.5","642cb1f7f42c4e0a6c5d4eef","6877631c9844ddd5501205fc","6889ef16cc6f1a8ea9c45410","3","1","642cb1f7f42c4e0a6c5d4eef","3","1","2025-07-30T10:09:57.207Z","","{""Q01"":""2"",""Q02"":""3"",""Q03"":""0""}","[0,1,2]","[""Q01"",""Q02"",""Q02"",""Q03""]","[4852,6066,7496,9809]","[]","[3795,4852,6066,6793,7496,9809,11202]","0.6666666666666666","0","0","stress","","","","","","","","","","","","","","","","","","","","","","","","","","","","","","",""
"11643","","","","instructions","5","88954","0.0-3.0-0.0","284","1","2025-07-30 10:08:35","1f75c3e559b7213887762d5229550c2b","220.244.163.79","Mozilla/5.0 (Windows NT 10.0; Win64; x64; rv:141.0) Gecko/20100101 Firefox/141.0","","Firefox","141.0","Windows","10.0","https://app.prolific.com/","en-US,en;q=0.5","642cb1f7f42c4e0a6c5d4eef","6877631c9844ddd5501205fc","6889ef16cc6f1a8ea9c45410","3","1","642cb1f7f42c4e0a6c5d4eef","3","1","","","","","","","","","","","","","[{""page_index"":0,""viewing_time"":11643}]","","","","","","","","","","","","","","","","","","","","","","","","","","","","","",""
"4193","","<p>Before you start with this game please answer the following three questions yourself. </p>
  <p>Through this game, we measure several aspects of your cognitive performance, such as reaction times, multi-tasking capabilities </p>
  <p>and the ability to assess the situation you are in.</p>
  <p></p>
  <p><b>How good do you usually are in such tasks?</b></p>","60","html-slider-response","6","93150","0.0-4.0-0.0","284","1","2025-07-30 10:08:35","1f75c3e559b7213887762d5229550c2b","220.244.163.79","Mozilla/5.0 (Windows NT 10.0; Win64; x64; rv:141.0) Gecko/20100101 Firefox/141.0","","Firefox","141.0","Windows","10.0","https://app.prolific.com/","en-US,en;q=0.5","642cb1f7f42c4e0a6c5d4eef","6877631c9844ddd5501205fc","6889ef16cc6f1a8ea9c45410","3","1","642cb1f7f42c4e0a6c5d4eef","3","1","2025-07-30T10:10:13.050Z","","","","","","","","","","","PreSkillQ","","50","","","","","","","","","","","","","","","","","","","","","","","","","","","","",""
"5391","","<div style=""width:500px;"">
  <p>How well do you think you will perform in this task compared to other participants?</p>
  </div>","50","html-slider-response","7","98547","0.0-4.0-1.0","284","1","2025-07-30 10:08:35","1f75c3e559b7213887762d5229550c2b","220.244.163.79","Mozilla/5.0 (Windows NT 10.0; Win64; x64; rv:141.0) Gecko/20100101 Firefox/141.0","","Firefox","141.0","Windows","10.0","https://app.prolific.com/","en-US,en;q=0.5","642cb1f7f42c4e0a6c5d4eef","6877631c9844ddd5501205fc","6889ef16cc6f1a8ea9c45410","3","1","642cb1f7f42c4e0a6c5d4eef","3","1","2025-07-30T10:10:18.447Z","","","","","","","","","","","PrePerfQ","","50","","","","","","","","","","","","","","","","","","","","","","","","","","","","",""
"3454","","<div style=""width:500px;"">
  <p>What best describes how you currently feel?</p>
  </div>","37","html-slider-response","8","102006","0.0-4.0-2.0","284","1","2025-07-30 10:08:35","1f75c3e559b7213887762d5229550c2b","220.244.163.79","Mozilla/5.0 (Windows NT 10.0; Win64; x64; rv:141.0) Gecko/20100101 Firefox/141.0","","Firefox","141.0","Windows","10.0","https://app.prolific.com/","en-US,en;q=0.5","642cb1f7f42c4e0a6c5d4eef","6877631c9844ddd5501205fc","6889ef16cc6f1a8ea9c45410","3","1","642cb1f7f42c4e0a6c5d4eef","3","1","2025-07-30T10:10:21.906Z","","","","","","","","","","","PreMotivationQ","","50","","","","","","","","","","","","","","","","","","","","","","","","","","","","",""
"","","","","ctl-task-cpt","9","127703","0.0-5.0-0.0","284","1","2025-07-30 10:08:35","1f75c3e559b7213887762d5229550c2b","220.244.163.79","Mozilla/5.0 (Windows NT 10.0; Win64; x64; rv:141.0) Gecko/20100101 Firefox/141.0","","Firefox","141.0","Windows","10.0","https://app.prolific.com/","en-US,en;q=0.5","642cb1f7f42c4e0a6c5d4eef","6877631c9844ddd5501205fc","6889ef16cc6f1a8ea9c45410","3","1","642cb1f7f42c4e0a6c5d4eef","3","1","2025-07-30T10:10:47.604Z","","","","","","","","","","","","","","win-only","0","g1:NW,g2:SE","1","1","0","108533","1270","6278","22676","1","4","8","6","2","8","8","8","0","0.06060606060606061","4212","3000","2310","[""down"",""right""]","{""num_key_presses"":6,""num_perfect"":6,""num_errors"":0,""num_randdir"":0,""num_randdir_good_moves"":0,""num_whilered"":0,""num_whileblue"":0,""num_blue"":0,""num_good_moves"":6}","[422.8214133126395,428.8214362008231,0,422.8214133126395,428.8214362008231,100,422.8214133126395,428.8214362008231,211,422.8214133126395,428.8214362008231,325,560.3214133126395,340.0714362008231,434,999.0714133126395,76.3214362008231,544,1024.0714133126396,75.0714362008231,654,1024.0714133126396,75.0714362008231,767,1024.0714133126396,75.0714362008231,879,1024.0714133126396,75.0714362008231,992,1024.0714133126396,75.0714362008231,1101,1024.0714133126396,75.0714362008231,1201,1024.0714133126396,75.0714362008231,1311,1024.0714133126396,75.0714362008231,1424,1024.0714133126396,75.0714362008231,1535,1024.0714133126396,75.0714362008231,1648,1024.0714133126396,75.0714362008231,1758,1024.0714133126396,75.0714362008231,1869,1024.0714133126396,75.0714362008231,1982,1024.0714133126396,75.0714362008231,2094,1024.0714133126396,75.0714362008231,2207,1024.0714133126396,75.0714362008231,2316,1024.0714133126396,75.0714362008231,2427,1024.0714133126396,75.0714362008231,2537,1024.0714133126396,75.0714362008231,2650,1024.0714133126396,75.0714362008231,2762,1024.0714133126396,75.0714362008231,2874,1024.0714133126396,75.0714362008231,2984,1024.0714133126396,75.0714362008231,3096,1024.0714133126396,75.0714362008231,3207,1024.0714133126396,75.0714362008231,3319,1024.0714133126396,75.0714362008231,3431,1024.0714133126396,75.0714362008231,3545,1024.0714133126396,75.0714362008231,3656,921.5714133126395,300.0714362008231,3767,977.8214133126395,635.0714362008231,3878,926.5714133126395,723.8214362008231,3989,832.8214133126395,703.8214362008231,4100,804.0714133126395,723.8214362008231,4211,804.0714133126395,723.8214362008231,4325,804.0714133126395,723.8214362008231,4435,804.0714133126395,723.8214362008231,4546,804.0714133126395,723.8214362008231,4659,804.0714133126395,723.8214362008231,4768,804.0714133126395,723.8214362008231,4881,804.0714133126395,723.8214362008231,4992]","[1494,1494,1000,0,494,""smooth"",""down"",""down"",""good_move"",4922,3428,3047.9,1494,380.1,""smooth"",""down"",""down"",""good_move"",8072,3150,2828.4,4922,321.6,""smooth"",""right"",""right"",""good_move"",10128,2056,1659.4,8072,396.6,""smooth"",""right"",""right"",""good_move"",12816,2688,2325.6,10128,362.4,""smooth"",""right"",""right"",""good_move"",16103,3286,2930.5,12817,355.5,""smooth"",""down"",""down"",""good_move""]","",""
"2901","","<div style=""width:500px;"">
  <p>What determined the result of this run?</p>
  </div>","78","html-slider-response","10","130608","0.0-5.0-1.0","284","1","2025-07-30 10:08:35","1f75c3e559b7213887762d5229550c2b","220.244.163.79","Mozilla/5.0 (Windows NT 10.0; Win64; x64; rv:141.0) Gecko/20100101 Firefox/141.0","","Firefox","141.0","Windows","10.0","https://app.prolific.com/","en-US,en;q=0.5","642cb1f7f42c4e0a6c5d4eef","6877631c9844ddd5501205fc","6889ef16cc6f1a8ea9c45410","3","1","642cb1f7f42c4e0a6c5d4eef","3","1","2025-07-30T10:10:50.508Z","","","","","","","","","","","AttribQ","","50","","","","","","","","","","","","","","","","","","","","","","","","","","","","",""
"2149","","<div style=""width:500px;"">
  <p>How much control did you have over the ball?</p>
  </div>","76","html-slider-response","11","132760","0.0-5.0-2.0","284","1","2025-07-30 10:08:35","1f75c3e559b7213887762d5229550c2b","220.244.163.79","Mozilla/5.0 (Windows NT 10.0; Win64; x64; rv:141.0) Gecko/20100101 Firefox/141.0","","Firefox","141.0","Windows","10.0","https://app.prolific.com/","en-US,en;q=0.5","642cb1f7f42c4e0a6c5d4eef","6877631c9844ddd5501205fc","6889ef16cc6f1a8ea9c45410","3","1","642cb1f7f42c4e0a6c5d4eef","3","1","2025-07-30T10:10:52.660Z","","","","","","","","","","","ControlQ","","50","","","","","","","","","","","","","","","","","","","","","","","","","","","","",""
"3665","","<div style=""width:500px;"">
  <p>How would you describe your current emotional state?</p>
  </div>","49","html-slider-response","12","136427","0.0-5.0-3.0","284","1","2025-07-30 10:08:35","1f75c3e559b7213887762d5229550c2b","220.244.163.79","Mozilla/5.0 (Windows NT 10.0; Win64; x64; rv:141.0) Gecko/20100101 Firefox/141.0","","Firefox","141.0","Windows","10.0","https://app.prolific.com/","en-US,en;q=0.5","642cb1f7f42c4e0a6c5d4eef","6877631c9844ddd5501205fc","6889ef16cc6f1a8ea9c45410","3","1","642cb1f7f42c4e0a6c5d4eef","3","1","2025-07-30T10:10:56.327Z","","","","","","","","","","","StressQ","","50","","","","","","","","","","","","","","","","","","","","","","","","","","","","",""
"3307","","<div style=""width:500px;"">
  <p>What best describes how you currently feel?</p>
  </div>","46","html-slider-response","13","139738","0.0-5.0-4.0","284","1","2025-07-30 10:08:35","1f75c3e559b7213887762d5229550c2b","220.244.163.79","Mozilla/5.0 (Windows NT 10.0; Win64; x64; rv:141.0) Gecko/20100101 Firefox/141.0","","Firefox","141.0","Windows","10.0","https://app.prolific.com/","en-US,en;q=0.5","642cb1f7f42c4e0a6c5d4eef","6877631c9844ddd5501205fc","6889ef16cc6f1a8ea9c45410","3","1","642cb1f7f42c4e0a6c5d4eef","3","1","2025-07-30T10:10:59.638Z","","","","","","","","","","","MotivationQ","","50","","","","","","","","","","","","","","","","","","","","","","","","","","","","",""
"","","","","ctl-task-cpt","14","173533","0.0-5.0-0.1","284","1","2025-07-30 10:08:35","1f75c3e559b7213887762d5229550c2b","220.244.163.79","Mozilla/5.0 (Windows NT 10.0; Win64; x64; rv:141.0) Gecko/20100101 Firefox/141.0","","Firefox","141.0","Windows","10.0","https://app.prolific.com/","en-US,en;q=0.5","642cb1f7f42c4e0a6c5d4eef","6877631c9844ddd5501205fc","6889ef16cc6f1a8ea9c45410","3","1","642cb1f7f42c4e0a6c5d4eef","3","1","2025-07-30T10:11:33.433Z","","","","","","","","","","","","","","win-only","1","g1:NE,g2:SW","0.9","2","0","146262","2255","7259","30788","1","4","4","6","2","4","3","11","8","0.08333333333333333","2989","3000","2210","[""down"",""left""]","{""num_key_presses"":8,""num_perfect"":7,""num_errors"":1,""num_randdir"":0,""num_randdir_good_moves"":0,""num_whilered"":0,""num_whileblue"":1,""num_blue"":1,""num_good_moves"":7}","[415.3214133126395,418.8214362008231,1,415.3214133126395,418.8214362008231,108,415.3214133126395,418.8214362008231,207,415.3214133126395,418.8214362008231,318,415.3214133126395,418.8214362008231,428,415.3214133126395,418.8214362008231,539,415.3214133126395,418.8214362008231,651,415.3214133126395,418.8214362008231,763,415.3214133126395,418.8214362008231,874,415.3214133126395,418.8214362008231,987,415.3214133126395,418.8214362008231,1098,415.3214133126395,418.8214362008231,1211,415.3214133126395,418.8214362008231,1321,415.3214133126395,418.8214362008231,1433,415.3214133126395,418.8214362008231,1545,415.3214133126395,418.8214362008231,1657,415.3214133126395,418.8214362008231,1768,415.3214133126395,418.8214362008231,1881,415.3214133126395,418.8214362008231,1993,415.3214133126395,418.8214362008231,2104,415.3214133126395,418.8214362008231,2217,415.3214133126395,418.8214362008231,2328,415.3214133126395,418.8214362008231,2440,399.0714133126395,461.3214362008231,2552,267.8214133126395,681.3214362008231,2662,124.0714133126395,787.5714362008231,2772,51.57141331263951,807.5714362008231,2883,51.57141331263951,807.5714362008231,2996,51.57141331263951,807.5714362008231,3105,51.57141331263951,807.5714362008231,3217,51.57141331263951,807.5714362008231,3328,51.57141331263951,807.5714362008231,3440,51.57141331263951,807.5714362008231,3552,51.57141331263951,807.5714362008231,3665,51.57141331263951,807.5714362008231,3777,51.57141331263951,807.5714362008231,3887,51.57141331263951,807.5714362008231,3999,51.57141331263951,807.5714362008231,4112,51.57141331263951,807.5714362008231,4222,51.57141331263951,807.5714362008231,4334,51.57141331263951,807.5714362008231,4446,51.57141331263951,807.5714362008231,4558,51.57141331263951,807.5714362008231,4669,51.57141331263951,807.5714362008231,4782,51.57141331263951,807.5714362008231,4894]","[1472,1472,1000,0,472,""smooth"",""left"",""left"",""good_move"",4611,3138,2645.5,1473,492.5,""smooth"",""left"",""left"",""good_move"",7670,3060,2377.9,4611,682.1,""smooth"",""left"",""left"",""good_move"",10686,3015,2497,7671,518,""smooth"",""down"",""down"",""good_move"",14112,3426,3132,10686,294,""smooth"",""down"",""down"",""good_move"",17307,3195,2886,14112,309,""while_blue"",""down"",""right"",""bad_move"",20191,2884,2494.1,17307,389.9,""smooth"",""left"",""left"",""good_move"",23234,3042,2618.3,20192,423.7,""smooth"",""down"",""down"",""good_move""]","",""
"4344","","<div style=""width:500px;"">
  <p>What determined the result of this run?</p>
  </div>","69","html-slider-response","15","177879","0.0-5.0-1.1","284","1","2025-07-30 10:08:35","1f75c3e559b7213887762d5229550c2b","220.244.163.79","Mozilla/5.0 (Windows NT 10.0; Win64; x64; rv:141.0) Gecko/20100101 Firefox/141.0","","Firefox","141.0","Windows","10.0","https://app.prolific.com/","en-US,en;q=0.5","642cb1f7f42c4e0a6c5d4eef","6877631c9844ddd5501205fc","6889ef16cc6f1a8ea9c45410","3","1","642cb1f7f42c4e0a6c5d4eef","3","1","2025-07-30T10:11:37.779Z","","","","","","","","","","","AttribQ","","50","","","","","","","","","","","","","","","","","","","","","","","","","","","","",""
"2584","","<div style=""width:500px;"">
  <p>How much control did you have over the ball?</p>
  </div>","77","html-slider-response","16","180467","0.0-5.0-2.1","284","1","2025-07-30 10:08:35","1f75c3e559b7213887762d5229550c2b","220.244.163.79","Mozilla/5.0 (Windows NT 10.0; Win64; x64; rv:141.0) Gecko/20100101 Firefox/141.0","","Firefox","141.0","Windows","10.0","https://app.prolific.com/","en-US,en;q=0.5","642cb1f7f42c4e0a6c5d4eef","6877631c9844ddd5501205fc","6889ef16cc6f1a8ea9c45410","3","1","642cb1f7f42c4e0a6c5d4eef","3","1","2025-07-30T10:11:40.367Z","","","","","","","","","","","ControlQ","","50","","","","","","","","","","","","","","","","","","","","","","","","","","","","",""
"2200","","<div style=""width:500px;"">
  <p>How would you describe your current emotional state?</p>
  </div>","50","html-slider-response","17","182670","0.0-5.0-3.1","284","1","2025-07-30 10:08:35","1f75c3e559b7213887762d5229550c2b","220.244.163.79","Mozilla/5.0 (Windows NT 10.0; Win64; x64; rv:141.0) Gecko/20100101 Firefox/141.0","","Firefox","141.0","Windows","10.0","https://app.prolific.com/","en-US,en;q=0.5","642cb1f7f42c4e0a6c5d4eef","6877631c9844ddd5501205fc","6889ef16cc6f1a8ea9c45410","3","1","642cb1f7f42c4e0a6c5d4eef","3","1","2025-07-30T10:11:42.570Z","","","","","","","","","","","StressQ","","50","","","","","","","","","","","","","","","","","","","","","","","","","","","","",""
"3092","","<div style=""width:500px;"">
  <p>What best describes how you currently feel?</p>
  </div>","50","html-slider-response","18","185765","0.0-5.0-4.1","284","1","2025-07-30 10:08:35","1f75c3e559b7213887762d5229550c2b","220.244.163.79","Mozilla/5.0 (Windows NT 10.0; Win64; x64; rv:141.0) Gecko/20100101 Firefox/141.0","","Firefox","141.0","Windows","10.0","https://app.prolific.com/","en-US,en;q=0.5","642cb1f7f42c4e0a6c5d4eef","6877631c9844ddd5501205fc","6889ef16cc6f1a8ea9c45410","3","1","642cb1f7f42c4e0a6c5d4eef","3","1","2025-07-30T10:11:45.666Z","","","","","","","","","","","MotivationQ","","50","","","","","","","","","","","","","","","","","","","","","","","","","","","","",""
"","","","","ctl-task-cpt","19","213061","0.0-5.0-0.2","284","1","2025-07-30 10:08:35","1f75c3e559b7213887762d5229550c2b","220.244.163.79","Mozilla/5.0 (Windows NT 10.0; Win64; x64; rv:141.0) Gecko/20100101 Firefox/141.0","","Firefox","141.0","Windows","10.0","https://app.prolific.com/","en-US,en;q=0.5","642cb1f7f42c4e0a6c5d4eef","6877631c9844ddd5501205fc","6889ef16cc6f1a8ea9c45410","3","1","642cb1f7f42c4e0a6c5d4eef","3","1","2025-07-30T10:12:12.961Z","","","","","","","","","","","","","","win-only","1","g1:NE,g2:SW","0.8","3","0","192291","1008","6016","24290","1","4","8","6","2","8","8","19","11","0.14393939393939395","2260","3000","2360","[""down"",""left""]","{""num_key_presses"":6,""num_perfect"":5,""num_errors"":0,""num_randdir"":1,""num_randdir_good_moves"":1,""num_whilered"":0,""num_whileblue"":0,""num_blue"":0,""num_good_moves"":6}","[412.8214133126395,408.8214362008231,0,412.8214133126395,408.8214362008231,112,412.8214133126395,408.8214362008231,223,412.8214133126395,408.8214362008231,335,412.8214133126395,408.8214362008231,447,412.8214133126395,408.8214362008231,558,412.8214133126395,408.8214362008231,669,177.8214133126395,643.8214362008231,779,65.3214133126395,837.5714362008231,890,65.3214133126395,836.3214362008231,1002,65.3214133126395,836.3214362008231,1114,65.3214133126395,836.3214362008231,1225,65.3214133126395,836.3214362008231,1337,65.3214133126395,836.3214362008231,1449,65.3214133126395,836.3214362008231,1559,65.3214133126395,836.3214362008231,1672,65.3214133126395,836.3214362008231,1783,65.3214133126395,836.3214362008231,1900,69.0714133126395,820.0714362008231,2007,61.57141331263951,793.8214362008231,2118,61.57141331263951,793.8214362008231,2230,61.57141331263951,793.8214362008231,2341,61.57141331263951,793.8214362008231,2452,61.57141331263951,793.8214362008231,2564,61.57141331263951,793.8214362008231,2674,61.57141331263951,793.8214362008231,2786,61.57141331263951,793.8214362008231,2901,61.57141331263951,793.8214362008231,3008,61.57141331263951,793.8214362008231,3120,61.57141331263951,793.8214362008231,3220,61.57141331263951,793.8214362008231,3332,61.57141331263951,793.8214362008231,3444,61.57141331263951,793.8214362008231,3555,61.57141331263951,793.8214362008231,3667,61.57141331263951,793.8214362008231,3780,61.57141331263951,793.8214362008231,3892,61.57141331263951,793.8214362008231,4004,61.57141331263951,793.8214362008231,4115,61.57141331263951,793.8214362008231,4228,61.57141331263951,793.8214362008231,4339,61.57141331263951,793.8214362008231,4450,61.57141331263951,793.8214362008231,4561,61.57141331263951,793.8214362008231,4672,61.57141331263951,793.8214362008231,4784,61.57141331263951,793.8214362008231,4896]","[1375,1375,1000,0,375,""smooth"",""down"",""down"",""good_move"",4838,3463,3132.3,1375,330.7,""oops"",""down"",""down"",""good_move"",8537,3699,3360,4838,339,""smooth"",""down"",""down"",""good_move"",11863,3326,2954.2,8537,371.8,""smooth"",""left"",""left"",""good_move"",14923,3060,2584.7,11863,475.3,""smooth"",""left"",""left"",""good_move"",17976,3053,2302.6,14923,750.4,""smooth"",""left"",""left"",""good_move""]","",""
"2704","","<div style=""width:500px;"">
  <p>What determined the result of this run?</p>
  </div>","69","html-slider-response","20","215770","0.0-5.0-1.2","284","1","2025-07-30 10:08:35","1f75c3e559b7213887762d5229550c2b","220.244.163.79","Mozilla/5.0 (Windows NT 10.0; Win64; x64; rv:141.0) Gecko/20100101 Firefox/141.0","","Firefox","141.0","Windows","10.0","https://app.prolific.com/","en-US,en;q=0.5","642cb1f7f42c4e0a6c5d4eef","6877631c9844ddd5501205fc","6889ef16cc6f1a8ea9c45410","3","1","642cb1f7f42c4e0a6c5d4eef","3","1","2025-07-30T10:12:15.670Z","","","","","","","","","","","AttribQ","","50","","","","","","","","","","","","","","","","","","","","","","","","","","","","",""
"2295","","<div style=""width:500px;"">
  <p>How much control did you have over the ball?</p>
  </div>","72","html-slider-response","21","218067","0.0-5.0-2.2","284","1","2025-07-30 10:08:35","1f75c3e559b7213887762d5229550c2b","220.244.163.79","Mozilla/5.0 (Windows NT 10.0; Win64; x64; rv:141.0) Gecko/20100101 Firefox/141.0","","Firefox","141.0","Windows","10.0","https://app.prolific.com/","en-US,en;q=0.5","642cb1f7f42c4e0a6c5d4eef","6877631c9844ddd5501205fc","6889ef16cc6f1a8ea9c45410","3","1","642cb1f7f42c4e0a6c5d4eef","3","1","2025-07-30T10:12:17.967Z","","","","","","","","","","","ControlQ","","50","","","","","","","","","","","","","","","","","","","","","","","","","","","","",""
"2440","","<div style=""width:500px;"">
  <p>How would you describe your current emotional state?</p>
  </div>","50","html-slider-response","22","220511","0.0-5.0-3.2","284","1","2025-07-30 10:08:35","1f75c3e559b7213887762d5229550c2b","220.244.163.79","Mozilla/5.0 (Windows NT 10.0; Win64; x64; rv:141.0) Gecko/20100101 Firefox/141.0","","Firefox","141.0","Windows","10.0","https://app.prolific.com/","en-US,en;q=0.5","642cb1f7f42c4e0a6c5d4eef","6877631c9844ddd5501205fc","6889ef16cc6f1a8ea9c45410","3","1","642cb1f7f42c4e0a6c5d4eef","3","1","2025-07-30T10:12:20.411Z","","","","","","","","","","","StressQ","","50","","","","","","","","","","","","","","","","","","","","","","","","","","","","",""
"1908","","<div style=""width:500px;"">
  <p>What best describes how you currently feel?</p>
  </div>","50","html-slider-response","23","222421","0.0-5.0-4.2","284","1","2025-07-30 10:08:35","1f75c3e559b7213887762d5229550c2b","220.244.163.79","Mozilla/5.0 (Windows NT 10.0; Win64; x64; rv:141.0) Gecko/20100101 Firefox/141.0","","Firefox","141.0","Windows","10.0","https://app.prolific.com/","en-US,en;q=0.5","642cb1f7f42c4e0a6c5d4eef","6877631c9844ddd5501205fc","6889ef16cc6f1a8ea9c45410","3","1","642cb1f7f42c4e0a6c5d4eef","3","1","2025-07-30T10:12:22.321Z","","","","","","","","","","","MotivationQ","","50","","","","","","","","","","","","","","","","","","","","","","","","","","","","",""
"","","","","ctl-task-cpt","24","275375","0.0-5.0-0.3","284","1","2025-07-30 10:08:35","1f75c3e559b7213887762d5229550c2b","220.244.163.79","Mozilla/5.0 (Windows NT 10.0; Win64; x64; rv:141.0) Gecko/20100101 Firefox/141.0","","Firefox","141.0","Windows","10.0","https://app.prolific.com/","en-US,en;q=0.5","642cb1f7f42c4e0a6c5d4eef","6877631c9844ddd5501205fc","6889ef16cc6f1a8ea9c45410","3","1","642cb1f7f42c4e0a6c5d4eef","3","1","2025-07-30T10:13:15.275Z","","","","","","","","","","","","","","win-only","3","g1:SW,g2:NE","0.7","4","0","228945","1155","6165","49936","1","4","4","6","2","4","2","21","19","0.1590909090909091","1207","3000","2060","[""up"",""right""]","{""num_key_presses"":10,""num_perfect"":6,""num_errors"":2,""num_randdir"":2,""num_randdir_good_moves"":1,""num_whilered"":0,""num_whileblue"":0,""num_blue"":5,""num_good_moves"":7}","[409.0714133126395,412.5714362008231,1,409.0714133126395,412.5714362008231,110,409.0714133126395,412.5714362008231,223,409.0714133126395,412.5714362008231,336,409.0714133126395,412.5714362008231,448,397.8214133126395,420.0714362008231,559,147.8214133126395,570.0714362008231,671,836.5714133126395,-49.9285637991769,783,835.3214133126395,-44.9285637991769,895,744.0714133126395,82.5714362008231,1005,732.8214133126395,93.8214362008231,1116,732.8214133126395,93.8214362008231,1227,732.8214133126395,93.8214362008231,1340,732.8214133126395,93.8214362008231,1451,732.8214133126395,93.8214362008231,1565,732.8214133126395,93.8214362008231,1675,732.8214133126395,93.8214362008231,1787,732.8214133126395,93.8214362008231,1899,732.8214133126395,93.8214362008231,2010,732.8214133126395,93.8214362008231,2121,732.8214133126395,93.8214362008231,2232,732.8214133126395,93.8214362008231,2344,732.8214133126395,93.8214362008231,2457,732.8214133126395,93.8214362008231,2569,732.8214133126395,93.8214362008231,2681,732.8214133126395,93.8214362008231,2793,732.8214133126395,93.8214362008231,2904,732.8214133126395,93.8214362008231,3021,732.8214133126395,93.8214362008231,3126,732.8214133126395,93.8214362008231,3241,732.8214133126395,93.8214362008231,3353,732.8214133126395,93.8214362008231,3467,732.8214133126395,93.8214362008231,3576,732.8214133126395,93.8214362008231,3687,732.8214133126395,93.8214362008231,3801,732.8214133126395,93.8214362008231,3911,732.8214133126395,93.8214362008231,4022,732.8214133126395,93.8214362008231,4135,732.8214133126395,93.8214362008231,4244,732.8214133126395,93.8214362008231,4355,732.8214133126395,93.8214362008231,4468,732.8214133126395,93.8214362008231,4579,732.8214133126395,93.8214362008231,4691,732.8214133126395,93.8214362008231,4802,732.8214133126395,93.8214362008231,4915]","[1357,1357,1000,0,357,""smooth"",""up"",""up"",""good_move"",18201,16844,2217.8,15548,435.2,""oops"",""up"",""right"",""good_move"",20995,2794,2322.1,18201,471.9,""oops"",""up"",""left"",""bad_move"",24042,3047,2004.5,20995,1042.5,""smooth"",""up"",""up"",""good_move"",27080,3038,1923.2,24042,1114.8,""smooth"",""up"",""up"",""good_move"",31270,4190,2266.1,30782,-1778.1,""error"",""-"",""-"",""no_move"",32663,1392,2285.3,32278,-1900.3,""error"",""-"",""-"",""no_move"",36563,3900,2450.8,33666,446.2,""smooth"",""right"",""right"",""good_move"",40146,3583,3235.9,36563,347.1,""smooth"",""right"",""right"",""good_move"",43479,3333,2975.1,40146,357.9,""smooth"",""right"",""right"",""good_move""]","",""
"2917","","<div style=""width:500px;"">
  <p>What determined the result of this run?</p>
  </div>","79","html-slider-response","25","278300","0.0-5.0-1.3","284","1","2025-07-30 10:08:35","1f75c3e559b7213887762d5229550c2b","220.244.163.79","Mozilla/5.0 (Windows NT 10.0; Win64; x64; rv:141.0) Gecko/20100101 Firefox/141.0","","Firefox","141.0","Windows","10.0","https://app.prolific.com/","en-US,en;q=0.5","642cb1f7f42c4e0a6c5d4eef","6877631c9844ddd5501205fc","6889ef16cc6f1a8ea9c45410","3","1","642cb1f7f42c4e0a6c5d4eef","3","1","2025-07-30T10:13:18.200Z","","","","","","","","","","","AttribQ","","50","","","","","","","","","","","","","","","","","","","","","","","","","","","","",""
"1797","","<div style=""width:500px;"">
  <p>How much control did you have over the ball?</p>
  </div>","73","html-slider-response","26","280099","0.0-5.0-2.3","284","1","2025-07-30 10:08:35","1f75c3e559b7213887762d5229550c2b","220.244.163.79","Mozilla/5.0 (Windows NT 10.0; Win64; x64; rv:141.0) Gecko/20100101 Firefox/141.0","","Firefox","141.0","Windows","10.0","https://app.prolific.com/","en-US,en;q=0.5","642cb1f7f42c4e0a6c5d4eef","6877631c9844ddd5501205fc","6889ef16cc6f1a8ea9c45410","3","1","642cb1f7f42c4e0a6c5d4eef","3","1","2025-07-30T10:13:19.999Z","","","","","","","","","","","ControlQ","","50","","","","","","","","","","","","","","","","","","","","","","","","","","","","",""
"1705","","<div style=""width:500px;"">
  <p>How would you describe your current emotional state?</p>
  </div>","48","html-slider-response","27","281806","0.0-5.0-3.3","284","1","2025-07-30 10:08:35","1f75c3e559b7213887762d5229550c2b","220.244.163.79","Mozilla/5.0 (Windows NT 10.0; Win64; x64; rv:141.0) Gecko/20100101 Firefox/141.0","","Firefox","141.0","Windows","10.0","https://app.prolific.com/","en-US,en;q=0.5","642cb1f7f42c4e0a6c5d4eef","6877631c9844ddd5501205fc","6889ef16cc6f1a8ea9c45410","3","1","642cb1f7f42c4e0a6c5d4eef","3","1","2025-07-30T10:13:21.706Z","","","","","","","","","","","StressQ","","50","","","","","","","","","","","","","","","","","","","","","","","","","","","","",""
"2154","","<div style=""width:500px;"">
  <p>What best describes how you currently feel?</p>
  </div>","46","html-slider-response","28","283963","0.0-5.0-4.3","284","1","2025-07-30 10:08:35","1f75c3e559b7213887762d5229550c2b","220.244.163.79","Mozilla/5.0 (Windows NT 10.0; Win64; x64; rv:141.0) Gecko/20100101 Firefox/141.0","","Firefox","141.0","Windows","10.0","https://app.prolific.com/","en-US,en;q=0.5","642cb1f7f42c4e0a6c5d4eef","6877631c9844ddd5501205fc","6889ef16cc6f1a8ea9c45410","3","1","642cb1f7f42c4e0a6c5d4eef","3","1","2025-07-30T10:13:23.863Z","","","","","","","","","","","MotivationQ","","50","","","","","","","","","","","","","","","","","","","","","","","","","","","","",""
"","","","","ctl-task-cpt","29","345588","0.0-5.0-0.4","284","1","2025-07-30 10:08:35","1f75c3e559b7213887762d5229550c2b","220.244.163.79","Mozilla/5.0 (Windows NT 10.0; Win64; x64; rv:141.0) Gecko/20100101 Firefox/141.0","","Firefox","141.0","Windows","10.0","https://app.prolific.com/","en-US,en;q=0.5","642cb1f7f42c4e0a6c5d4eef","6877631c9844ddd5501205fc","6889ef16cc6f1a8ea9c45410","3","1","642cb1f7f42c4e0a6c5d4eef","3","1","2025-07-30T10:14:25.489Z","","","","","","","","","","","","","","win-only","0","g1:NW,g2:SE","0.6","5","0","290487","1292","6298","58620","1","4","8","6","2","8","8","29","21","0.2196969696969697","1069","3000","1235","[""down"",""right""]","{""num_key_presses"":16,""num_perfect"":10,""num_errors"":0,""num_randdir"":6,""num_randdir_good_moves"":1,""num_whilered"":0,""num_whileblue"":0,""num_blue"":2,""num_good_moves"":11}","[415.3214133126395,413.8214362008231,0,415.3214133126395,413.8214362008231,105,415.3214133126395,413.8214362008231,215,415.3214133126395,413.8214362008231,328,415.3214133126395,413.8214362008231,441,415.3214133126395,413.8214362008231,551,661.5714133126395,601.3214362008231,663,864.0714133126395,761.3214362008231,775,854.0714133126395,753.8214362008231,885,799.0714133126395,751.3214362008231,996,799.0714133126395,751.3214362008231,1107,799.0714133126395,751.3214362008231,1219,799.0714133126395,751.3214362008231,1331,799.0714133126395,751.3214362008231,1443,799.0714133126395,751.3214362008231,1556,799.0714133126395,751.3214362008231,1667,799.0714133126395,751.3214362008231,1782,799.0714133126395,751.3214362008231,1892,799.0714133126395,751.3214362008231,2005,799.0714133126395,751.3214362008231,2113,799.0714133126395,751.3214362008231,2223,799.0714133126395,751.3214362008231,2334,799.0714133126395,751.3214362008231,2443,799.0714133126395,751.3214362008231,2556,799.0714133126395,751.3214362008231,2665,799.0714133126395,751.3214362008231,2776,799.0714133126395,751.3214362008231,2886,799.0714133126395,751.3214362008231,2998,799.0714133126395,751.3214362008231,3109,799.0714133126395,751.3214362008231,3218,799.0714133126395,751.3214362008231,3328,799.0714133126395,751.3214362008231,3440,799.0714133126395,751.3214362008231,3550,799.0714133126395,751.3214362008231,3660,799.0714133126395,751.3214362008231,3773,799.0714133126395,751.3214362008231,3882,799.0714133126395,751.3214362008231,3993,799.0714133126395,751.3214362008231,4103,799.0714133126395,751.3214362008231,4212,799.0714133126395,751.3214362008231,4324,799.0714133126395,751.3214362008231,4434,799.0714133126395,751.3214362008231,4545,799.0714133126395,751.3214362008231,4655,799.0714133126395,751.3214362008231,4765,799.0714133126395,751.3214362008231,4876,799.0714133126395,751.3214362008231,4988]","[4601,4601,2243.5,2005,352.5,""oops"",""down"",""left"",""bad_move"",8289,3688,3251.8,4602,435.2,""smooth"",""down"",""down"",""good_move"",10716,2426,2011.3,8290,414.7,""smooth"",""right"",""right"",""good_move"",13372,2655,2302.5,10717,352.5,""oops"",""right"",""up"",""bad_move"",16401,3029,2406.4,13372,622.6,""smooth"",""right"",""right"",""good_move"",18888,2487,2117.7,16401,369.3,""smooth"",""right"",""right"",""good_move"",21798,2909,2583,18889,326,""oops"",""right"",""left"",""bad_move"",24979,3181,2795.1,21798,385.9,""smooth"",""right"",""right"",""good_move"",28656,3677,3333.7,24979,343.3,""smooth"",""right"",""right"",""good_move"",31681,3025,2681.9,28656,343.1,""oops"",""down"",""down"",""good_move"",34656,2975,2635.1,31681,339.9,""oops"",""down"",""up"",""bad_move"",40795,6139,1994.6,38384,416.4,""smooth"",""down"",""down"",""good_move"",43676,2881,2504.5,40795,376.5,""oops"",""down"",""left"",""bad_move"",47080,3404,3027.9,43676,376.1,""smooth"",""down"",""down"",""good_move"",49777,2697,2340.1,47080,356.9,""smooth"",""right"",""right"",""good_move"",52027,2250,1876.4,49777,373.6,""smooth"",""down"",""down"",""good_move""]","",""
"3128","","<div style=""width:500px;"">
  <p>What determined the result of this run?</p>
  </div>","77","html-slider-response","30","348720","0.0-5.0-1.4","284","1","2025-07-30 10:08:35","1f75c3e559b7213887762d5229550c2b","220.244.163.79","Mozilla/5.0 (Windows NT 10.0; Win64; x64; rv:141.0) Gecko/20100101 Firefox/141.0","","Firefox","141.0","Windows","10.0","https://app.prolific.com/","en-US,en;q=0.5","642cb1f7f42c4e0a6c5d4eef","6877631c9844ddd5501205fc","6889ef16cc6f1a8ea9c45410","3","1","642cb1f7f42c4e0a6c5d4eef","3","1","2025-07-30T10:14:28.620Z","","","","","","","","","","","AttribQ","","50","","","","","","","","","","","","","","","","","","","","","","","","","","","","",""
"2009","","<div style=""width:500px;"">
  <p>How much control did you have over the ball?</p>
  </div>","75","html-slider-response","31","350731","0.0-5.0-2.4","284","1","2025-07-30 10:08:35","1f75c3e559b7213887762d5229550c2b","220.244.163.79","Mozilla/5.0 (Windows NT 10.0; Win64; x64; rv:141.0) Gecko/20100101 Firefox/141.0","","Firefox","141.0","Windows","10.0","https://app.prolific.com/","en-US,en;q=0.5","642cb1f7f42c4e0a6c5d4eef","6877631c9844ddd5501205fc","6889ef16cc6f1a8ea9c45410","3","1","642cb1f7f42c4e0a6c5d4eef","3","1","2025-07-30T10:14:30.631Z","","","","","","","","","","","ControlQ","","50","","","","","","","","","","","","","","","","","","","","","","","","","","","","",""
"3638","","<div style=""width:500px;"">
  <p>How would you describe your current emotional state?</p>
  </div>","50","html-slider-response","32","354373","0.0-5.0-3.4","284","1","2025-07-30 10:08:35","1f75c3e559b7213887762d5229550c2b","220.244.163.79","Mozilla/5.0 (Windows NT 10.0; Win64; x64; rv:141.0) Gecko/20100101 Firefox/141.0","","Firefox","141.0","Windows","10.0","https://app.prolific.com/","en-US,en;q=0.5","642cb1f7f42c4e0a6c5d4eef","6877631c9844ddd5501205fc","6889ef16cc6f1a8ea9c45410","3","1","642cb1f7f42c4e0a6c5d4eef","3","1","2025-07-30T10:14:34.273Z","","","","","","","","","","","StressQ","","50","","","","","","","","","","","","","","","","","","","","","","","","","","","","",""
"2280","","<div style=""width:500px;"">
  <p>What best describes how you currently feel?</p>
  </div>","44","html-slider-response","33","356655","0.0-5.0-4.4","284","1","2025-07-30 10:08:35","1f75c3e559b7213887762d5229550c2b","220.244.163.79","Mozilla/5.0 (Windows NT 10.0; Win64; x64; rv:141.0) Gecko/20100101 Firefox/141.0","","Firefox","141.0","Windows","10.0","https://app.prolific.com/","en-US,en;q=0.5","642cb1f7f42c4e0a6c5d4eef","6877631c9844ddd5501205fc","6889ef16cc6f1a8ea9c45410","3","1","642cb1f7f42c4e0a6c5d4eef","3","1","2025-07-30T10:14:36.555Z","","","","","","","","","","","MotivationQ","","50","","","","","","","","","","","","","","","","","","","","","","","","","","","","",""
"","","","","ctl-task-cpt","34","428471","0.0-5.0-0.5","284","1","2025-07-30 10:08:35","1f75c3e559b7213887762d5229550c2b","220.244.163.79","Mozilla/5.0 (Windows NT 10.0; Win64; x64; rv:141.0) Gecko/20100101 Firefox/141.0","","Firefox","141.0","Windows","10.0","https://app.prolific.com/","en-US,en;q=0.5","642cb1f7f42c4e0a6c5d4eef","6877631c9844ddd5501205fc","6889ef16cc6f1a8ea9c45410","3","1","642cb1f7f42c4e0a6c5d4eef","3","1","2025-07-30T10:15:48.371Z","","","","","","","","","","","","","","win-only","1","g1:NE,g2:SW","0.5","6","0","363182","1135","6150","68799","1","4","4","6","2","4","3","32","29","0.24242424242424243","963","3000","1185","[""down"",""left""]","{""num_key_presses"":16,""num_perfect"":8,""num_errors"":1,""num_randdir"":7,""num_randdir_good_moves"":3,""num_whilered"":0,""num_whileblue"":1,""num_blue"":5,""num_good_moves"":11}","[419.0714133126395,421.3214362008231,0,419.0714133126395,421.3214362008231,108,419.0714133126395,421.3214362008231,221,419.0714133126395,421.3214362008231,332,419.0714133126395,421.3214362008231,443,419.0714133126395,418.8214362008231,555,120.3214133126395,691.3214362008231,671,9.071413312639507,821.3214362008231,781,9.071413312639507,823.8214362008231,891,9.071413312639507,823.8214362008231,1000,9.071413312639507,823.8214362008231,1100,9.071413312639507,823.8214362008231,1213,9.071413312639507,823.8214362008231,1325,9.071413312639507,823.8214362008231,1439,9.071413312639507,823.8214362008231,1547,9.071413312639507,823.8214362008231,1659,9.071413312639507,823.8214362008231,1772,9.071413312639507,823.8214362008231,1884,9.071413312639507,823.8214362008231,1997,9.071413312639507,823.8214362008231,2107,9.071413312639507,823.8214362008231,2220,9.071413312639507,823.8214362008231,2330,9.071413312639507,823.8214362008231,2442,9.071413312639507,823.8214362008231,2555,9.071413312639507,823.8214362008231,2665,9.071413312639507,823.8214362008231,2777,9.071413312639507,823.8214362008231,2890,9.071413312639507,823.8214362008231,3000,9.071413312639507,823.8214362008231,3112,9.071413312639507,823.8214362008231,3224,9.071413312639507,823.8214362008231,3340,9.071413312639507,823.8214362008231,3448,9.071413312639507,823.8214362008231,3561,9.071413312639507,823.8214362008231,3671,9.071413312639507,823.8214362008231,3783,9.071413312639507,823.8214362008231,3896,9.071413312639507,823.8214362008231,4008,9.071413312639507,823.8214362008231,4117,9.071413312639507,823.8214362008231,4229,9.071413312639507,823.8214362008231,4340,9.071413312639507,823.8214362008231,4455,9.071413312639507,823.8214362008231,4565,9.071413312639507,823.8214362008231,4677,9.071413312639507,823.8214362008231,4790,9.071413312639507,823.8214362008231,4902]","[4970,4970,2592.7,2012,365.3,""oops"",""left"",""up"",""bad_move"",8104,3134,1974.9,4970,1159.1,""smooth"",""left"",""left"",""good_move"",11274,3170,2800.3,8104,369.7,""smooth"",""left"",""left"",""good_move"",14323,3049,1655.5,11274,1393.5,""oops"",""left"",""down"",""good_move"",17401,3077,2742,14324,335,""while_blue"",""left"",""up"",""bad_move"",21258,3857,3438.3,17401,418.7,""smooth"",""left"",""left"",""good_move"",28273,7015,2539.8,25275,458.2,""smooth"",""down"",""down"",""good_move"",38461,10188,2335.1,35653,472.9,""oops"",""down"",""right"",""bad_move"",41112,2651,2235.7,38461,415.3,""oops"",""down"",""left"",""good_move"",44268,3155,2245.4,41113,909.6,""oops"",""down"",""down"",""good_move"",47777,3509,3064.4,44268,444.6,""smooth"",""down"",""down"",""good_move"",50692,2915,2533,47778,381,""oops"",""down"",""up"",""bad_move"",53873,3181,2781.4,50692,399.6,""smooth"",""down"",""down"",""good_move"",56311,2438,2064.3,53873,373.7,""oops"",""down"",""up"",""bad_move"",59344,3032,2309.6,56312,722.4,""smooth"",""down"",""down"",""good_move"",62362,3017,2660.6,59345,356.4,""smooth"",""down"",""down"",""good_move""]","",""
"3077","","<div style=""width:500px;"">
  <p>What determined the result of this run?</p>
  </div>","68","html-slider-response","35","431552","0.0-5.0-1.5","284","1","2025-07-30 10:08:35","1f75c3e559b7213887762d5229550c2b","220.244.163.79","Mozilla/5.0 (Windows NT 10.0; Win64; x64; rv:141.0) Gecko/20100101 Firefox/141.0","","Firefox","141.0","Windows","10.0","https://app.prolific.com/","en-US,en;q=0.5","642cb1f7f42c4e0a6c5d4eef","6877631c9844ddd5501205fc","6889ef16cc6f1a8ea9c45410","3","1","642cb1f7f42c4e0a6c5d4eef","3","1","2025-07-30T10:15:51.452Z","","","","","","","","","","","AttribQ","","50","","","","","","","","","","","","","","","","","","","","","","","","","","","","",""
"2514","","<div style=""width:500px;"">
  <p>How much control did you have over the ball?</p>
  </div>","58","html-slider-response","36","434069","0.0-5.0-2.5","284","1","2025-07-30 10:08:35","1f75c3e559b7213887762d5229550c2b","220.244.163.79","Mozilla/5.0 (Windows NT 10.0; Win64; x64; rv:141.0) Gecko/20100101 Firefox/141.0","","Firefox","141.0","Windows","10.0","https://app.prolific.com/","en-US,en;q=0.5","642cb1f7f42c4e0a6c5d4eef","6877631c9844ddd5501205fc","6889ef16cc6f1a8ea9c45410","3","1","642cb1f7f42c4e0a6c5d4eef","3","1","2025-07-30T10:15:53.969Z","","","","","","","","","","","ControlQ","","50","","","","","","","","","","","","","","","","","","","","","","","","","","","","",""
"2868","","<div style=""width:500px;"">
  <p>How would you describe your current emotional state?</p>
  </div>","49","html-slider-response","37","436940","0.0-5.0-3.5","284","1","2025-07-30 10:08:35","1f75c3e559b7213887762d5229550c2b","220.244.163.79","Mozilla/5.0 (Windows NT 10.0; Win64; x64; rv:141.0) Gecko/20100101 Firefox/141.0","","Firefox","141.0","Windows","10.0","https://app.prolific.com/","en-US,en;q=0.5","642cb1f7f42c4e0a6c5d4eef","6877631c9844ddd5501205fc","6889ef16cc6f1a8ea9c45410","3","1","642cb1f7f42c4e0a6c5d4eef","3","1","2025-07-30T10:15:56.840Z","","","","","","","","","","","StressQ","","50","","","","","","","","","","","","","","","","","","","","","","","","","","","","",""
"1931","","<div style=""width:500px;"">
  <p>What best describes how you currently feel?</p>
  </div>","40","html-slider-response","38","438873","0.0-5.0-4.5","284","1","2025-07-30 10:08:35","1f75c3e559b7213887762d5229550c2b","220.244.163.79","Mozilla/5.0 (Windows NT 10.0; Win64; x64; rv:141.0) Gecko/20100101 Firefox/141.0","","Firefox","141.0","Windows","10.0","https://app.prolific.com/","en-US,en;q=0.5","642cb1f7f42c4e0a6c5d4eef","6877631c9844ddd5501205fc","6889ef16cc6f1a8ea9c45410","3","1","642cb1f7f42c4e0a6c5d4eef","3","1","2025-07-30T10:15:58.773Z","","","","","","","","","","","MotivationQ","","50","","","","","","","","","","","","","","","","","","","","","","","","","","","","",""
"","","","","ctl-task-cpt","39","546926","0.0-5.0-0.6","284","1","2025-07-30 10:08:35","1f75c3e559b7213887762d5229550c2b","220.244.163.79","Mozilla/5.0 (Windows NT 10.0; Win64; x64; rv:141.0) Gecko/20100101 Firefox/141.0","","Firefox","141.0","Windows","10.0","https://app.prolific.com/","en-US,en;q=0.5","642cb1f7f42c4e0a6c5d4eef","6877631c9844ddd5501205fc","6889ef16cc6f1a8ea9c45410","3","1","642cb1f7f42c4e0a6c5d4eef","3","1","2025-07-30T10:17:46.826Z","","","","","","","","","","","","","","win-only","2","g1:SE,g2:NW","0.4","7","0","445398","1519","6528","105047","1","4","8","6","2","-8","-8","24","32","0.18181818181818182","1213","3000","-940","[""left"",""up""]","{""num_key_presses"":25,""num_perfect"":10,""num_errors"":0,""num_randdir"":15,""num_randdir_good_moves"":4,""num_whilered"":0,""num_whileblue"":0,""num_blue"":6,""num_good_moves"":14}","[424.0714133126395,406.3214362008231,0,424.0714133126395,406.3214362008231,112,424.0714133126395,406.3214362008231,221,424.0714133126395,406.3214362008231,332,424.0714133126395,406.3214362008231,444,424.0714133126395,406.3214362008231,558,444.0714133126395,438.8214362008231,668,26.571413312639507,21.3214362008231,780,22.821413312639507,12.5714362008231,881,26.571413312639507,13.8214362008231,986,26.571413312639507,13.8214362008231,1099,26.571413312639507,13.8214362008231,1211,26.571413312639507,13.8214362008231,1323,26.571413312639507,13.8214362008231,1435,26.571413312639507,13.8214362008231,1547,26.571413312639507,13.8214362008231,1658,26.571413312639507,13.8214362008231,1769,26.571413312639507,13.8214362008231,1882,26.571413312639507,13.8214362008231,1993,26.571413312639507,13.8214362008231,2106,26.571413312639507,13.8214362008231,2218,26.571413312639507,13.8214362008231,2329,26.571413312639507,13.8214362008231,2441,26.571413312639507,13.8214362008231,2554,26.571413312639507,13.8214362008231,2665,26.571413312639507,13.8214362008231,2777,26.571413312639507,13.8214362008231,2890,26.571413312639507,13.8214362008231,3001,26.571413312639507,13.8214362008231,3112,26.571413312639507,13.8214362008231,3225,26.571413312639507,13.8214362008231,3335,26.571413312639507,13.8214362008231,3448,26.571413312639507,13.8214362008231,3559,26.571413312639507,13.8214362008231,3671,26.571413312639507,13.8214362008231,3783,26.571413312639507,13.8214362008231,3896,26.571413312639507,13.8214362008231,4006,26.571413312639507,13.8214362008231,4119,26.571413312639507,13.8214362008231,4228,26.571413312639507,13.8214362008231,4340,26.571413312639507,13.8214362008231,4451,26.571413312639507,13.8214362008231,4561,26.571413312639507,13.8214362008231,4673,26.571413312639507,13.8214362008231,4785,26.571413312639507,13.8214362008231,4898]","[1379,1379,1000,0,379,""smooth"",""up"",""up"",""good_move"",4777,3398,3005.4,1379,392.6,""smooth"",""up"",""up"",""good_move"",7857,3079,1865.2,4778,1213.8,""oops"",""up"",""right"",""bad_move"",10891,3034,2667.9,7857,366.1,""oops"",""up"",""down"",""bad_move"",18142,7251,2904.2,14898,339.8,""oops"",""up"",""down"",""bad_move"",21852,3710,3314,18142,396,""oops"",""up"",""right"",""bad_move"",24291,2439,1968.7,21852,470.3,""oops"",""up"",""left"",""good_move"",27491,3200,2827.6,24291,372.4,""smooth"",""up"",""up"",""good_move"",30502,3011,2053.7,27492,956.3,""oops"",""up"",""up"",""good_move"",33576,3074,2656.6,30502,417.4,""smooth"",""up"",""up"",""good_move"",37312,3735,3228.5,33577,506.5,""smooth"",""left"",""left"",""good_move"",41079,3767,3431.5,37312,335.5,""oops"",""left"",""down"",""bad_move"",48009,6930,2717.3,44938,353.7,""smooth"",""left"",""left"",""good_move"",54484,6475,2367.2,51729,387.8,""smooth"",""left"",""left"",""good_move"",57612,3128,2712,54484,416,""oops"",""left"",""left"",""good_move"",66696,9083,2319.7,63969,407.3,""oops"",""up"",""down"",""bad_move"",69589,2893,2293.7,66696,599.3,""oops"",""up"",""down"",""bad_move"",75125,5536,1899.2,72847,378.8,""smooth"",""up"",""up"",""good_move"",78268,3143,2008.2,75125,1134.8,""oops"",""up"",""down"",""bad_move"",80703,2435,2066.3,78268,368.7,""oops"",""up"",""up"",""good_move"",83749,3045,2151.4,80704,893.6,""oops"",""up"",""right"",""bad_move"",86341,2592,2231.8,83749,360.2,""smooth"",""up"",""up"",""good_move"",89613,3272,2921.7,86341,350.3,""smooth"",""left"",""left"",""good_move"",92633,3020,1616.9,89613,1403.1,""oops"",""up"",""down"",""bad_move"",95508,2875,2488,92634,386,""oops"",""up"",""right"",""bad_move""]","",""
"5438","","<div style=""width:500px;"">
  <p>What determined the result of this run?</p>
  </div>","18","html-slider-response","40","552370","0.0-5.0-1.6","284","1","2025-07-30 10:08:35","1f75c3e559b7213887762d5229550c2b","220.244.163.79","Mozilla/5.0 (Windows NT 10.0; Win64; x64; rv:141.0) Gecko/20100101 Firefox/141.0","","Firefox","141.0","Windows","10.0","https://app.prolific.com/","en-US,en;q=0.5","642cb1f7f42c4e0a6c5d4eef","6877631c9844ddd5501205fc","6889ef16cc6f1a8ea9c45410","3","1","642cb1f7f42c4e0a6c5d4eef","3","1","2025-07-30T10:17:52.270Z","","","","","","","","","","","AttribQ","","50","","","","","","","","","","","","","","","","","","","","","","","","","","","","",""
"2304","","<div style=""width:500px;"">
  <p>How much control did you have over the ball?</p>
  </div>","18","html-slider-response","41","554676","0.0-5.0-2.6","284","1","2025-07-30 10:08:35","1f75c3e559b7213887762d5229550c2b","220.244.163.79","Mozilla/5.0 (Windows NT 10.0; Win64; x64; rv:141.0) Gecko/20100101 Firefox/141.0","","Firefox","141.0","Windows","10.0","https://app.prolific.com/","en-US,en;q=0.5","642cb1f7f42c4e0a6c5d4eef","6877631c9844ddd5501205fc","6889ef16cc6f1a8ea9c45410","3","1","642cb1f7f42c4e0a6c5d4eef","3","1","2025-07-30T10:17:54.576Z","","","","","","","","","","","ControlQ","","50","","","","","","","","","","","","","","","","","","","","","","","","","","","","",""
"2796","","<div style=""width:500px;"">
  <p>How would you describe your current emotional state?</p>
  </div>","50","html-slider-response","42","557474","0.0-5.0-3.6","284","1","2025-07-30 10:08:35","1f75c3e559b7213887762d5229550c2b","220.244.163.79","Mozilla/5.0 (Windows NT 10.0; Win64; x64; rv:141.0) Gecko/20100101 Firefox/141.0","","Firefox","141.0","Windows","10.0","https://app.prolific.com/","en-US,en;q=0.5","642cb1f7f42c4e0a6c5d4eef","6877631c9844ddd5501205fc","6889ef16cc6f1a8ea9c45410","3","1","642cb1f7f42c4e0a6c5d4eef","3","1","2025-07-30T10:17:57.375Z","","","","","","","","","","","StressQ","","50","","","","","","","","","","","","","","","","","","","","","","","","","","","","",""
"2288","","<div style=""width:500px;"">
  <p>What best describes how you currently feel?</p>
  </div>","42","html-slider-response","43","559766","0.0-5.0-4.6","284","1","2025-07-30 10:08:35","1f75c3e559b7213887762d5229550c2b","220.244.163.79","Mozilla/5.0 (Windows NT 10.0; Win64; x64; rv:141.0) Gecko/20100101 Firefox/141.0","","Firefox","141.0","Windows","10.0","https://app.prolific.com/","en-US,en;q=0.5","642cb1f7f42c4e0a6c5d4eef","6877631c9844ddd5501205fc","6889ef16cc6f1a8ea9c45410","3","1","642cb1f7f42c4e0a6c5d4eef","3","1","2025-07-30T10:17:59.667Z","","","","","","","","","","","MotivationQ","","50","","","","","","","","","","","","","","","","","","","","","","","","","","","","",""
"","","","","ctl-task-cpt","44","622881","0.0-5.0-0.7","284","1","2025-07-30 10:08:35","1f75c3e559b7213887762d5229550c2b","220.244.163.79","Mozilla/5.0 (Windows NT 10.0; Win64; x64; rv:141.0) Gecko/20100101 Firefox/141.0","","Firefox","141.0","Windows","10.0","https://app.prolific.com/","en-US,en;q=0.5","642cb1f7f42c4e0a6c5d4eef","6877631c9844ddd5501205fc","6889ef16cc6f1a8ea9c45410","3","1","642cb1f7f42c4e0a6c5d4eef","3","1","2025-07-30T10:19:02.782Z","","","","","","","","","","","","","","win-only","2","g1:SE,g2:NW","0.3","8","0","566291","2146","7161","60107","1","4","4","6","2","4","4","28","24","0.21212121212121213","820","3000","1635","[""left"",""up""]","{""num_key_presses"":12,""num_perfect"":3,""num_errors"":0,""num_randdir"":9,""num_randdir_good_moves"":6,""num_whilered"":0,""num_whileblue"":0,""num_blue"":5,""num_good_moves"":9}","[420.3214133126395,405.0714362008231,0,420.3214133126395,405.0714362008231,106,420.3214133126395,405.0714362008231,217,420.3214133126395,405.0714362008231,330,420.3214133126395,405.0714362008231,438,99.0714133126395,112.5714362008231,550,94.0714133126395,103.8214362008231,662,92.8214133126395,101.3214362008231,772,92.8214133126395,101.3214362008231,884,92.8214133126395,101.3214362008231,984,92.8214133126395,101.3214362008231,1094,92.8214133126395,101.3214362008231,1206,92.8214133126395,101.3214362008231,1318,92.8214133126395,101.3214362008231,1430,92.8214133126395,101.3214362008231,1542,92.8214133126395,101.3214362008231,1655,92.8214133126395,101.3214362008231,1766,92.8214133126395,101.3214362008231,1879,92.8214133126395,101.3214362008231,1992,92.8214133126395,101.3214362008231,2104,92.8214133126395,101.3214362008231,2217,92.8214133126395,101.3214362008231,2329,92.8214133126395,101.3214362008231,2442,92.8214133126395,101.3214362008231,2553,92.8214133126395,101.3214362008231,2663,92.8214133126395,101.3214362008231,2776,92.8214133126395,101.3214362008231,2886,92.8214133126395,101.3214362008231,2999,92.8214133126395,101.3214362008231,3115,92.8214133126395,101.3214362008231,3220,92.8214133126395,101.3214362008231,3331,92.8214133126395,101.3214362008231,3445,92.8214133126395,101.3214362008231,3553,92.8214133126395,101.3214362008231,3653,92.8214133126395,101.3214362008231,3764,92.8214133126395,101.3214362008231,3876,92.8214133126395,101.3214362008231,3988,92.8214133126395,101.3214362008231,4099,92.8214133126395,101.3214362008231,4211,92.8214133126395,101.3214362008231,4323,92.8214133126395,101.3214362008231,4440,92.8214133126395,101.3214362008231,4551,92.8214133126395,101.3214362008231,4663,92.8214133126395,101.3214362008231,4774,92.8214133126395,101.3214362008231,4887,92.8214133126395,101.3214362008231,4999]","[7608,7608,1750.9,5436,421.1,""oops"",""left"",""left"",""good_move"",10662,3054,2181.5,7608,872.5,""oops"",""left"",""right"",""bad_move"",14105,3443,3029.7,10662,413.3,""smooth"",""left"",""left"",""good_move"",17163,3058,2588.7,14105,469.3,""smooth"",""left"",""left"",""good_move"",23881,6717,2498.4,20988,394.6,""oops"",""left"",""left"",""good_move"",26978,3097,2719.7,23881,377.3,""smooth"",""up"",""up"",""good_move"",30058,3080,2562.2,26978,517.8,""oops"",""up"",""down"",""bad_move"",33699,3641,3289.2,30058,351.8,""oops"",""up"",""up"",""good_move"",40315,6616,2257.3,37635,422.7,""oops"",""up"",""up"",""good_move"",43364,3049,2464.6,40315,584.4,""oops"",""up"",""right"",""bad_move"",49486,6122,2354.8,46806,325.2,""oops"",""up"",""left"",""good_move"",52659,3173,2747.7,49486,425.3,""oops"",""up"",""up"",""good_move""]","",""
"2699","","<div style=""width:500px;"">
  <p>What determined the result of this run?</p>
  </div>","34","html-slider-response","45","625584","0.0-5.0-1.7","284","1","2025-07-30 10:08:35","1f75c3e559b7213887762d5229550c2b","220.244.163.79","Mozilla/5.0 (Windows NT 10.0; Win64; x64; rv:141.0) Gecko/20100101 Firefox/141.0","","Firefox","141.0","Windows","10.0","https://app.prolific.com/","en-US,en;q=0.5","642cb1f7f42c4e0a6c5d4eef","6877631c9844ddd5501205fc","6889ef16cc6f1a8ea9c45410","3","1","642cb1f7f42c4e0a6c5d4eef","3","1","2025-07-30T10:19:05.484Z","","","","","","","","","","","AttribQ","","50","","","","","","","","","","","","","","","","","","","","","","","","","","","","",""
"1918","","<div style=""width:500px;"">
  <p>How much control did you have over the ball?</p>
  </div>","35","html-slider-response","46","627503","0.0-5.0-2.7","284","1","2025-07-30 10:08:35","1f75c3e559b7213887762d5229550c2b","220.244.163.79","Mozilla/5.0 (Windows NT 10.0; Win64; x64; rv:141.0) Gecko/20100101 Firefox/141.0","","Firefox","141.0","Windows","10.0","https://app.prolific.com/","en-US,en;q=0.5","642cb1f7f42c4e0a6c5d4eef","6877631c9844ddd5501205fc","6889ef16cc6f1a8ea9c45410","3","1","642cb1f7f42c4e0a6c5d4eef","3","1","2025-07-30T10:19:07.404Z","","","","","","","","","","","ControlQ","","50","","","","","","","","","","","","","","","","","","","","","","","","","","","","",""
"4807","","<div style=""width:500px;"">
  <p>How would you describe your current emotional state?</p>
  </div>","50","html-slider-response","47","632313","0.0-5.0-3.7","284","1","2025-07-30 10:08:35","1f75c3e559b7213887762d5229550c2b","220.244.163.79","Mozilla/5.0 (Windows NT 10.0; Win64; x64; rv:141.0) Gecko/20100101 Firefox/141.0","","Firefox","141.0","Windows","10.0","https://app.prolific.com/","en-US,en;q=0.5","642cb1f7f42c4e0a6c5d4eef","6877631c9844ddd5501205fc","6889ef16cc6f1a8ea9c45410","3","1","642cb1f7f42c4e0a6c5d4eef","3","1","2025-07-30T10:19:12.213Z","","","","","","","","","","","StressQ","","50","","","","","","","","","","","","","","","","","","","","","","","","","","","","",""
"5448","","<div style=""width:500px;"">
  <p>What best describes how you currently feel?</p>
  </div>","42","html-slider-response","48","637763","0.0-5.0-4.7","284","1","2025-07-30 10:08:35","1f75c3e559b7213887762d5229550c2b","220.244.163.79","Mozilla/5.0 (Windows NT 10.0; Win64; x64; rv:141.0) Gecko/20100101 Firefox/141.0","","Firefox","141.0","Windows","10.0","https://app.prolific.com/","en-US,en;q=0.5","642cb1f7f42c4e0a6c5d4eef","6877631c9844ddd5501205fc","6889ef16cc6f1a8ea9c45410","3","1","642cb1f7f42c4e0a6c5d4eef","3","1","2025-07-30T10:19:17.663Z","","","","","","","","","","","MotivationQ","","50","","","","","","","","","","","","","","","","","","","","","","","","","","","","",""
"","","","","ctl-task-cpt","49","759731","0.0-5.0-0.8","284","1","2025-07-30 10:08:35","1f75c3e559b7213887762d5229550c2b","220.244.163.79","Mozilla/5.0 (Windows NT 10.0; Win64; x64; rv:141.0) Gecko/20100101 Firefox/141.0","","Firefox","141.0","Windows","10.0","https://app.prolific.com/","en-US,en;q=0.5","642cb1f7f42c4e0a6c5d4eef","6877631c9844ddd5501205fc","6889ef16cc6f1a8ea9c45410","3","1","642cb1f7f42c4e0a6c5d4eef","3","1","2025-07-30T10:21:19.632Z","","","","","","","","","","","","","","win-only","2","g1:SE,g2:NW","0.2","9","0","644287","1795","6802","118953","1","4","4","6","2","-4","-5","23","28","0.17424242424242425","1018","3000","-940","[""left"",""up""]","{""num_key_presses"":28,""num_perfect"":5,""num_errors"":1,""num_randdir"":22,""num_randdir_good_moves"":10,""num_whilered"":0,""num_whileblue"":1,""num_blue"":8,""num_good_moves"":15}","[414.0714133126395,421.3214362008231,0,414.0714133126395,421.3214362008231,112,414.0714133126395,421.3214362008231,222,414.0714133126395,421.3214362008231,336,414.0714133126395,421.3214362008231,446,257.8214133126395,233.8214362008231,558,104.0714133126395,48.8214362008231,670,104.0714133126395,58.8214362008231,779,94.0714133126395,61.3214362008231,890,94.0714133126395,61.3214362008231,1003,94.0714133126395,61.3214362008231,1114,94.0714133126395,61.3214362008231,1227,94.0714133126395,61.3214362008231,1338,94.0714133126395,61.3214362008231,1447,94.0714133126395,61.3214362008231,1559,94.0714133126395,61.3214362008231,1670,94.0714133126395,61.3214362008231,1785,94.0714133126395,61.3214362008231,1896,94.0714133126395,61.3214362008231,2006,94.0714133126395,61.3214362008231,2119,94.0714133126395,61.3214362008231,2229,94.0714133126395,61.3214362008231,2343,94.0714133126395,61.3214362008231,2453,94.0714133126395,61.3214362008231,2563,94.0714133126395,61.3214362008231,2675,94.0714133126395,61.3214362008231,2787,94.0714133126395,61.3214362008231,2898,94.0714133126395,61.3214362008231,3012,94.0714133126395,61.3214362008231,3125,94.0714133126395,61.3214362008231,3236,94.0714133126395,61.3214362008231,3346,94.0714133126395,61.3214362008231,3458,94.0714133126395,61.3214362008231,3571,94.0714133126395,61.3214362008231,3682,94.0714133126395,61.3214362008231,3795,94.0714133126395,61.3214362008231,3907,94.0714133126395,61.3214362008231,4018,94.0714133126395,61.3214362008231,4128,94.0714133126395,61.3214362008231,4239,94.0714133126395,61.3214362008231,4352,94.0714133126395,61.3214362008231,4461,94.0714133126395,61.3214362008231,4574,94.0714133126395,61.3214362008231,4686,94.0714133126395,61.3214362008231,4798,94.0714133126395,61.3214362008231,4911]","[1420,1420,1000,0,420,""oops"",""up"",""down"",""bad_move"",3835,2415,2054,1420,361,""smooth"",""up"",""up"",""good_move"",6976,3140,2493.6,3836,646.4,""oops"",""up"",""up"",""good_move"",10013,3036,1667.7,6977,1368.3,""smooth"",""up"",""up"",""good_move"",16811,6797,2704.1,13718,388.9,""oops"",""up"",""left"",""good_move"",20162,3351,2982.9,16811,368.1,""oops"",""up"",""up"",""good_move"",23214,3051,2141.8,20163,909.2,""oops"",""left"",""right"",""bad_move"",33462,10247,2636.5,30506,319.5,""oops"",""left"",""right"",""bad_move"",36056,2593,2203.1,33463,389.9,""oops"",""left"",""left"",""good_move"",42564,6507,2389.4,39859,315.6,""oops"",""left"",""right"",""bad_move"",45407,2842,2379.5,42565,462.5,""oops"",""left"",""down"",""bad_move"",48946,3539,3202,45407,337,""while_blue"",""left"",""right"",""bad_move"",52183,3237,2874.1,48946,362.9,""smooth"",""left"",""left"",""good_move"",55243,3059,2340.1,52184,718.9,""oops"",""left"",""left"",""good_move"",58692,3449,3077.7,55243,371.3,""oops"",""left"",""up"",""good_move"",61723,3030,2539.1,58693,490.9,""oops"",""left"",""left"",""good_move"",64744,3021,2355,61723,666,""oops"",""left"",""left"",""good_move"",68315,3570,3104.8,64746,464.2,""oops"",""left"",""down"",""bad_move"",77700,9385,3098.8,74234,367.2,""smooth"",""left"",""left"",""good_move"",80832,3131,2691.3,77701,439.7,""oops"",""up"",""down"",""bad_move"",84213,3381,3025.6,80832,355.4,""oops"",""up"",""up"",""good_move"",87283,3070,2366.4,84213,703.6,""oops"",""up"",""down"",""bad_move"",93430,6147,2213.9,90871,345.1,""oops"",""up"",""down"",""bad_move"",96079,2649,2258.4,93430,390.6,""oops"",""up"",""up"",""good_move"",99084,3005,2377.4,96079,627.6,""oops"",""up"",""down"",""bad_move"",102163,3079,2743.5,99084,335.5,""oops"",""up"",""down"",""bad_move"",105778,3615,3218.5,102163,396.5,""smooth"",""up"",""up"",""good_move"",109386,3608,3322.2,105778,285.8,""oops"",""up"",""down"",""bad_move""]","",""
"4140","","<div style=""width:500px;"">
  <p>What determined the result of this run?</p>
  </div>","26","html-slider-response","50","763878","0.0-5.0-1.8","284","1","2025-07-30 10:08:35","1f75c3e559b7213887762d5229550c2b","220.244.163.79","Mozilla/5.0 (Windows NT 10.0; Win64; x64; rv:141.0) Gecko/20100101 Firefox/141.0","","Firefox","141.0","Windows","10.0","https://app.prolific.com/","en-US,en;q=0.5","642cb1f7f42c4e0a6c5d4eef","6877631c9844ddd5501205fc","6889ef16cc6f1a8ea9c45410","3","1","642cb1f7f42c4e0a6c5d4eef","3","1","2025-07-30T10:21:23.778Z","","","","","","","","","","","AttribQ","","50","","","","","","","","","","","","","","","","","","","","","","","","","","","","",""
"2384","","<div style=""width:500px;"">
  <p>How much control did you have over the ball?</p>
  </div>","21","html-slider-response","51","766265","0.0-5.0-2.8","284","1","2025-07-30 10:08:35","1f75c3e559b7213887762d5229550c2b","220.244.163.79","Mozilla/5.0 (Windows NT 10.0; Win64; x64; rv:141.0) Gecko/20100101 Firefox/141.0","","Firefox","141.0","Windows","10.0","https://app.prolific.com/","en-US,en;q=0.5","642cb1f7f42c4e0a6c5d4eef","6877631c9844ddd5501205fc","6889ef16cc6f1a8ea9c45410","3","1","642cb1f7f42c4e0a6c5d4eef","3","1","2025-07-30T10:21:26.166Z","","","","","","","","","","","ControlQ","","50","","","","","","","","","","","","","","","","","","","","","","","","","","","","",""
"4698","","<div style=""width:500px;"">
  <p>How would you describe your current emotional state?</p>
  </div>","50","html-slider-response","52","770968","0.0-5.0-3.8","284","1","2025-07-30 10:08:35","1f75c3e559b7213887762d5229550c2b","220.244.163.79","Mozilla/5.0 (Windows NT 10.0; Win64; x64; rv:141.0) Gecko/20100101 Firefox/141.0","","Firefox","141.0","Windows","10.0","https://app.prolific.com/","en-US,en;q=0.5","642cb1f7f42c4e0a6c5d4eef","6877631c9844ddd5501205fc","6889ef16cc6f1a8ea9c45410","3","1","642cb1f7f42c4e0a6c5d4eef","3","1","2025-07-30T10:21:30.868Z","","","","","","","","","","","StressQ","","50","","","","","","","","","","","","","","","","","","","","","","","","","","","","",""
"2318","","<div style=""width:500px;"">
  <p>What best describes how you currently feel?</p>
  </div>","39","html-slider-response","53","773288","0.0-5.0-4.8","284","1","2025-07-30 10:08:35","1f75c3e559b7213887762d5229550c2b","220.244.163.79","Mozilla/5.0 (Windows NT 10.0; Win64; x64; rv:141.0) Gecko/20100101 Firefox/141.0","","Firefox","141.0","Windows","10.0","https://app.prolific.com/","en-US,en;q=0.5","642cb1f7f42c4e0a6c5d4eef","6877631c9844ddd5501205fc","6889ef16cc6f1a8ea9c45410","3","1","642cb1f7f42c4e0a6c5d4eef","3","1","2025-07-30T10:21:33.188Z","","","","","","","","","","","MotivationQ","","50","","","","","","","","","","","","","","","","","","","","","","","","","","","","",""
"","","","","ctl-task-cpt","54","806505","0.0-5.0-0.9","284","1","2025-07-30 10:08:35","1f75c3e559b7213887762d5229550c2b","220.244.163.79","Mozilla/5.0 (Windows NT 10.0; Win64; x64; rv:141.0) Gecko/20100101 Firefox/141.0","","Firefox","141.0","Windows","10.0","https://app.prolific.com/","en-US,en;q=0.5","642cb1f7f42c4e0a6c5d4eef","6877631c9844ddd5501205fc","6889ef16cc6f1a8ea9c45410","3","1","642cb1f7f42c4e0a6c5d4eef","3","1","2025-07-30T10:22:06.405Z","","","","","","","","","","","","","","win-only","2","g1:SE,g2:NW","0.4","10","0","779812","2301","7306","30202","1","4","8","6","2","8","8","31","23","0.23484848484848486","849","3000","2105","[""left"",""up""]","{""num_key_presses"":8,""num_perfect"":4,""num_errors"":0,""num_randdir"":4,""num_randdir_good_moves"":3,""num_whilered"":0,""num_whileblue"":0,""num_blue"":0,""num_good_moves"":7}","[417.8214133126395,418.8214362008231,0,417.8214133126395,418.8214362008231,106,417.8214133126395,418.8214362008231,219,417.8214133126395,418.8214362008231,332,417.8214133126395,418.8214362008231,441,135.3214133126395,93.8214362008231,551,109.0714133126395,65.0714362008231,664,91.5714133126395,48.8214362008231,764,91.5714133126395,48.8214362008231,869,91.5714133126395,48.8214362008231,980,91.5714133126395,48.8214362008231,1093,91.5714133126395,48.8214362008231,1203,91.5714133126395,48.8214362008231,1316,91.5714133126395,48.8214362008231,1428,91.5714133126395,48.8214362008231,1536,91.5714133126395,48.8214362008231,1650,91.5714133126395,48.8214362008231,1765,91.5714133126395,48.8214362008231,1872,91.5714133126395,48.8214362008231,1984,91.5714133126395,48.8214362008231,2095,91.5714133126395,48.8214362008231,2211,91.5714133126395,48.8214362008231,2319,91.5714133126395,48.8214362008231,2432,91.5714133126395,48.8214362008231,2545,91.5714133126395,48.8214362008231,2655,91.5714133126395,48.8214362008231,2770,91.5714133126395,48.8214362008231,2880,91.5714133126395,48.8214362008231,2990,91.5714133126395,48.8214362008231,3103,91.5714133126395,48.8214362008231,3213,91.5714133126395,48.8214362008231,3326,91.5714133126395,48.8214362008231,3438,91.5714133126395,48.8214362008231,3549,91.5714133126395,48.8214362008231,3663,91.5714133126395,48.8214362008231,3774,91.5714133126395,48.8214362008231,3886,91.5714133126395,48.8214362008231,3998,91.5714133126395,48.8214362008231,4112,91.5714133126395,48.8214362008231,4220,91.5714133126395,48.8214362008231,4333,91.5714133126395,48.8214362008231,4445,91.5714133126395,48.8214362008231,4556,91.5714133126395,48.8214362008231,4668,91.5714133126395,48.8214362008231,4781,91.5714133126395,48.8214362008231,4894]","[1397,1397,1000,0,397,""smooth"",""up"",""up"",""good_move"",4529,3132,2472.1,1397,659.9,""oops"",""up"",""up"",""good_move"",7585,3056,2242.9,4529,813.1,""smooth"",""up"",""up"",""good_move"",10631,3046,2088,7585,958,""oops"",""left"",""left"",""good_move"",13662,3031,2397.8,10631,633.2,""oops"",""left"",""down"",""bad_move"",16094,2431,2056.8,13663,374.2,""smooth"",""left"",""left"",""good_move"",19155,3061,1933.4,16094,1127.6,""smooth"",""left"",""left"",""good_move"",22624,3469,3139.3,19155,329.7,""oops"",""up"",""up"",""good_move""]","",""
"3970","","<div style=""width:500px;"">
  <p>What determined the result of this run?</p>
  </div>","67","html-slider-response","55","810478","0.0-5.0-1.9","284","1","2025-07-30 10:08:35","1f75c3e559b7213887762d5229550c2b","220.244.163.79","Mozilla/5.0 (Windows NT 10.0; Win64; x64; rv:141.0) Gecko/20100101 Firefox/141.0","","Firefox","141.0","Windows","10.0","https://app.prolific.com/","en-US,en;q=0.5","642cb1f7f42c4e0a6c5d4eef","6877631c9844ddd5501205fc","6889ef16cc6f1a8ea9c45410","3","1","642cb1f7f42c4e0a6c5d4eef","3","1","2025-07-30T10:22:10.378Z","","","","","","","","","","","AttribQ","","50","","","","","","","","","","","","","","","","","","","","","","","","","","","","",""
"2984","","<div style=""width:500px;"">
  <p>How much control did you have over the ball?</p>
  </div>","68","html-slider-response","56","813464","0.0-5.0-2.9","284","1","2025-07-30 10:08:35","1f75c3e559b7213887762d5229550c2b","220.244.163.79","Mozilla/5.0 (Windows NT 10.0; Win64; x64; rv:141.0) Gecko/20100101 Firefox/141.0","","Firefox","141.0","Windows","10.0","https://app.prolific.com/","en-US,en;q=0.5","642cb1f7f42c4e0a6c5d4eef","6877631c9844ddd5501205fc","6889ef16cc6f1a8ea9c45410","3","1","642cb1f7f42c4e0a6c5d4eef","3","1","2025-07-30T10:22:13.365Z","","","","","","","","","","","ControlQ","","50","","","","","","","","","","","","","","","","","","","","","","","","","","","","",""
"2862","","<div style=""width:500px;"">
  <p>How would you describe your current emotional state?</p>
  </div>","50","html-slider-response","57","816329","0.0-5.0-3.9","284","1","2025-07-30 10:08:35","1f75c3e559b7213887762d5229550c2b","220.244.163.79","Mozilla/5.0 (Windows NT 10.0; Win64; x64; rv:141.0) Gecko/20100101 Firefox/141.0","","Firefox","141.0","Windows","10.0","https://app.prolific.com/","en-US,en;q=0.5","642cb1f7f42c4e0a6c5d4eef","6877631c9844ddd5501205fc","6889ef16cc6f1a8ea9c45410","3","1","642cb1f7f42c4e0a6c5d4eef","3","1","2025-07-30T10:22:16.229Z","","","","","","","","","","","StressQ","","50","","","","","","","","","","","","","","","","","","","","","","","","","","","","",""
"2922","","<div style=""width:500px;"">
  <p>What best describes how you currently feel?</p>
  </div>","35","html-slider-response","58","819255","0.0-5.0-4.9","284","1","2025-07-30 10:08:35","1f75c3e559b7213887762d5229550c2b","220.244.163.79","Mozilla/5.0 (Windows NT 10.0; Win64; x64; rv:141.0) Gecko/20100101 Firefox/141.0","","Firefox","141.0","Windows","10.0","https://app.prolific.com/","en-US,en;q=0.5","642cb1f7f42c4e0a6c5d4eef","6877631c9844ddd5501205fc","6889ef16cc6f1a8ea9c45410","3","1","642cb1f7f42c4e0a6c5d4eef","3","1","2025-07-30T10:22:19.155Z","","","","","","","","","","","MotivationQ","","50","","","","","","","","","","","","","","","","","","","","","","","","","","","","",""
"","","","","ctl-task-cpt","59","879728","0.0-5.0-0.10","284","1","2025-07-30 10:08:35","1f75c3e559b7213887762d5229550c2b","220.244.163.79","Mozilla/5.0 (Windows NT 10.0; Win64; x64; rv:141.0) Gecko/20100101 Firefox/141.0","","Firefox","141.0","Windows","10.0","https://app.prolific.com/","en-US,en;q=0.5","642cb1f7f42c4e0a6c5d4eef","6877631c9844ddd5501205fc","6889ef16cc6f1a8ea9c45410","3","1","642cb1f7f42c4e0a6c5d4eef","3","1","2025-07-30T10:23:19.629Z","","","","","","","","","","","","","","win-only","0","g1:NW,g2:SE","0.5","11","0","825781","1782","6789","57454","1","4","4","6","2","4","3","34","31","0.25757575757575757","1364","3000","1595","[""down"",""right""]","{""num_key_presses"":14,""num_perfect"":7,""num_errors"":1,""num_randdir"":6,""num_randdir_good_moves"":3,""num_whilered"":0,""num_whileblue"":1,""num_blue"":4,""num_good_moves"":10}","[421.5714133126395,411.3214362008231,0,421.5714133126395,411.3214362008231,117,421.5714133126395,411.3214362008231,221,421.5714133126395,411.3214362008231,336,421.5714133126395,411.3214362008231,448,421.5714133126395,411.3214362008231,555,207.8214133126395,163.8214362008231,670,485.3214133126395,448.8214362008231,780,699.0714133126395,668.8214362008231,891,709.0714133126395,693.8214362008231,1002,707.8214133126395,715.0714362008231,1114,710.3214133126395,725.0714362008231,1223,710.3214133126395,725.0714362008231,1339,710.3214133126395,725.0714362008231,1450,710.3214133126395,725.0714362008231,1563,710.3214133126395,725.0714362008231,1671,710.3214133126395,725.0714362008231,1784,710.3214133126395,725.0714362008231,1896,710.3214133126395,725.0714362008231,2008,710.3214133126395,725.0714362008231,2120,710.3214133126395,725.0714362008231,2230,710.3214133126395,725.0714362008231,2343,710.3214133126395,725.0714362008231,2453,710.3214133126395,725.0714362008231,2566,710.3214133126395,725.0714362008231,2676,710.3214133126395,725.0714362008231,2789,710.3214133126395,725.0714362008231,2901,710.3214133126395,725.0714362008231,3012,710.3214133126395,725.0714362008231,3123,710.3214133126395,725.0714362008231,3236,710.3214133126395,725.0714362008231,3348,710.3214133126395,725.0714362008231,3460,710.3214133126395,725.0714362008231,3573,710.3214133126395,725.0714362008231,3682,710.3214133126395,725.0714362008231,3797,710.3214133126395,725.0714362008231,3906,710.3214133126395,725.0714362008231,4019,710.3214133126395,725.0714362008231,4131,710.3214133126395,725.0714362008231,4241,710.3214133126395,725.0714362008231,4353,710.3214133126395,725.0714362008231,4464,710.3214133126395,725.0714362008231,4578,710.3214133126395,725.0714362008231,4687,710.3214133126395,725.0714362008231,4800,710.3214133126395,725.0714362008231,4912]","[4859,4859,2521.4,2009,328.6,""smooth"",""down"",""down"",""good_move"",8454,3595,3213.5,4859,381.5,""smooth"",""down"",""down"",""good_move"",14632,6177,2476.8,11802,353.2,""smooth"",""right"",""right"",""good_move"",17841,3209,2771.1,14632,437.9,""smooth"",""right"",""right"",""good_move"",20970,3129,2766,17841,363,""oops"",""right"",""left"",""bad_move"",24008,3038,2493.3,20970,544.7,""oops"",""right"",""up"",""bad_move"",27131,3123,2733.4,24008,389.6,""smooth"",""right"",""right"",""good_move"",29586,2455,2085.7,27131,369.3,""oops"",""down"",""right"",""good_move"",32007,2421,2116,29586,305,""oops"",""down"",""up"",""bad_move"",35054,3047,2566.2,32007,480.8,""oops"",""down"",""down"",""good_move"",37313,2259,1838,35054,421,""while_blue"",""down"",""left"",""bad_move"",40548,3235,2878.5,37313,356.5,""smooth"",""down"",""down"",""good_move"",47380,6831,2652.6,44380,347.4,""smooth"",""right"",""right"",""good_move"",50371,2991,2603.4,47380,387.6,""oops"",""down"",""down"",""good_move""]","",""
"5875","","<div style=""width:500px;"">
  <p>What determined the result of this run?</p>
  </div>","57","html-slider-response","60","885607","0.0-5.0-1.10","284","1","2025-07-30 10:08:35","1f75c3e559b7213887762d5229550c2b","220.244.163.79","Mozilla/5.0 (Windows NT 10.0; Win64; x64; rv:141.0) Gecko/20100101 Firefox/141.0","","Firefox","141.0","Windows","10.0","https://app.prolific.com/","en-US,en;q=0.5","642cb1f7f42c4e0a6c5d4eef","6877631c9844ddd5501205fc","6889ef16cc6f1a8ea9c45410","3","1","642cb1f7f42c4e0a6c5d4eef","3","1","2025-07-30T10:23:25.507Z","","","","","","","","","","","AttribQ","","50","","","","","","","","","","","","","","","","","","","","","","","","","","","","",""
"2770","","<div style=""width:500px;"">
  <p>How much control did you have over the ball?</p>
  </div>","54","html-slider-response","61","888381","0.0-5.0-2.10","284","1","2025-07-30 10:08:35","1f75c3e559b7213887762d5229550c2b","220.244.163.79","Mozilla/5.0 (Windows NT 10.0; Win64; x64; rv:141.0) Gecko/20100101 Firefox/141.0","","Firefox","141.0","Windows","10.0","https://app.prolific.com/","en-US,en;q=0.5","642cb1f7f42c4e0a6c5d4eef","6877631c9844ddd5501205fc","6889ef16cc6f1a8ea9c45410","3","1","642cb1f7f42c4e0a6c5d4eef","3","1","2025-07-30T10:23:28.281Z","","","","","","","","","","","ControlQ","","50","","","","","","","","","","","","","","","","","","","","","","","","","","","","",""
"3197","","<div style=""width:500px;"">
  <p>How would you describe your current emotional state?</p>
  </div>","55","html-slider-response","62","891581","0.0-5.0-3.10","284","1","2025-07-30 10:08:35","1f75c3e559b7213887762d5229550c2b","220.244.163.79","Mozilla/5.0 (Windows NT 10.0; Win64; x64; rv:141.0) Gecko/20100101 Firefox/141.0","","Firefox","141.0","Windows","10.0","https://app.prolific.com/","en-US,en;q=0.5","642cb1f7f42c4e0a6c5d4eef","6877631c9844ddd5501205fc","6889ef16cc6f1a8ea9c45410","3","1","642cb1f7f42c4e0a6c5d4eef","3","1","2025-07-30T10:23:31.481Z","","","","","","","","","","","StressQ","","50","","","","","","","","","","","","","","","","","","","","","","","","","","","","",""
"2220","","<div style=""width:500px;"">
  <p>What best describes how you currently feel?</p>
  </div>","40","html-slider-response","63","893802","0.0-5.0-4.10","284","1","2025-07-30 10:08:35","1f75c3e559b7213887762d5229550c2b","220.244.163.79","Mozilla/5.0 (Windows NT 10.0; Win64; x64; rv:141.0) Gecko/20100101 Firefox/141.0","","Firefox","141.0","Windows","10.0","https://app.prolific.com/","en-US,en;q=0.5","642cb1f7f42c4e0a6c5d4eef","6877631c9844ddd5501205fc","6889ef16cc6f1a8ea9c45410","3","1","642cb1f7f42c4e0a6c5d4eef","3","1","2025-07-30T10:23:33.702Z","","","","","","","","","","","MotivationQ","","50","","","","","","","","","","","","","","","","","","","","","","","","","","","","",""
"","","","","ctl-task-cpt","64","943878","0.0-5.0-0.11","284","1","2025-07-30 10:08:35","1f75c3e559b7213887762d5229550c2b","220.244.163.79","Mozilla/5.0 (Windows NT 10.0; Win64; x64; rv:141.0) Gecko/20100101 Firefox/141.0","","Firefox","141.0","Windows","10.0","https://app.prolific.com/","en-US,en;q=0.5","642cb1f7f42c4e0a6c5d4eef","6877631c9844ddd5501205fc","6889ef16cc6f1a8ea9c45410","3","1","642cb1f7f42c4e0a6c5d4eef","3","1","2025-07-30T10:24:23.778Z","","","","","","","","","","","","","","win-only","3","g1:SW,g2:NE","0.6","12","0","900328","2697","7712","47063","1","4","8","6","2","8","8","42","34","0.3181818181818182","1111","3000","1630","[""up"",""right""]","{""num_key_presses"":12,""num_perfect"":7,""num_errors"":0,""num_randdir"":5,""num_randdir_good_moves"":2,""num_whilered"":0,""num_whileblue"":0,""num_blue"":1,""num_good_moves"":9}","[414.0714133126395,418.8214362008231,0,414.0714133126395,418.8214362008231,101,414.0714133126395,418.8214362008231,212,414.0714133126395,418.8214362008231,326,414.0714133126395,418.8214362008231,438,644.0714133126395,181.3214362008231,546,782.8214133126395,28.8214362008231,655,779.0714133126395,32.5714362008231,757,746.5714133126395,71.3214362008231,864,746.5714133126395,71.3214362008231,973,746.5714133126395,71.3214362008231,1073,746.5714133126395,71.3214362008231,1181,746.5714133126395,71.3214362008231,1282,746.5714133126395,71.3214362008231,1394,746.5714133126395,71.3214362008231,1506,746.5714133126395,71.3214362008231,1608,746.5714133126395,71.3214362008231,1713,746.5714133126395,71.3214362008231,1827,746.5714133126395,71.3214362008231,1939,746.5714133126395,71.3214362008231,2048,746.5714133126395,71.3214362008231,2160,746.5714133126395,71.3214362008231,2273,746.5714133126395,71.3214362008231,2382,746.5714133126395,71.3214362008231,2494,746.5714133126395,71.3214362008231,2610,746.5714133126395,71.3214362008231,2717,746.5714133126395,71.3214362008231,2828,746.5714133126395,71.3214362008231,2941,746.5714133126395,71.3214362008231,3042,746.5714133126395,71.3214362008231,3148,746.5714133126395,71.3214362008231,3259,746.5714133126395,71.3214362008231,3375,746.5714133126395,71.3214362008231,3483,746.5714133126395,71.3214362008231,3596,746.5714133126395,71.3214362008231,3708,746.5714133126395,71.3214362008231,3817,746.5714133126395,71.3214362008231,3930,746.5714133126395,71.3214362008231,4043,746.5714133126395,71.3214362008231,4156,746.5714133126395,71.3214362008231,4267,746.5714133126395,71.3214362008231,4378,746.5714133126395,71.3214362008231,4488,746.5714133126395,71.3214362008231,4599,746.5714133126395,71.3214362008231,4712,746.5714133126395,71.3214362008231,4824,746.5714133126395,71.3214362008231,4924]","[1433,1433,1000,0,433,""smooth"",""up"",""up"",""good_move"",4536,3103,1648.9,1433,1454.1,""smooth"",""up"",""up"",""good_move"",7616,3080,2514.4,4536,565.6,""oops"",""up"",""down"",""bad_move"",10694,3078,2726.9,7616,351.1,""smooth"",""up"",""up"",""good_move"",14121,3427,2971.6,10694,455.4,""smooth"",""up"",""up"",""good_move"",17551,3430,3010.9,14121,419.1,""oops"",""right"",""left"",""bad_move"",20650,3099,2574,17551,525,""smooth"",""right"",""right"",""good_move"",23408,2758,2405,20650,353,""smooth"",""right"",""right"",""good_move"",30301,6892,3023.3,26937,340.7,""oops"",""right"",""left"",""bad_move"",33368,3067,2287.2,30301,779.8,""oops"",""right"",""right"",""good_move"",36337,2969,2658,33368,311,""smooth"",""right"",""right"",""good_move"",39059,2722,2388.5,36337,333.5,""oops"",""right"",""right"",""good_move""]","",""
"4766","","<div style=""width:500px;"">
  <p>What determined the result of this run?</p>
  </div>","65","html-slider-response","65","948645","0.0-5.0-1.11","284","1","2025-07-30 10:08:35","1f75c3e559b7213887762d5229550c2b","220.244.163.79","Mozilla/5.0 (Windows NT 10.0; Win64; x64; rv:141.0) Gecko/20100101 Firefox/141.0","","Firefox","141.0","Windows","10.0","https://app.prolific.com/","en-US,en;q=0.5","642cb1f7f42c4e0a6c5d4eef","6877631c9844ddd5501205fc","6889ef16cc6f1a8ea9c45410","3","1","642cb1f7f42c4e0a6c5d4eef","3","1","2025-07-30T10:24:28.545Z","","","","","","","","","","","AttribQ","","50","","","","","","","","","","","","","","","","","","","","","","","","","","","","",""
"3530","","<div style=""width:500px;"">
  <p>How much control did you have over the ball?</p>
  </div>","63","html-slider-response","66","952177","0.0-5.0-2.11","284","1","2025-07-30 10:08:35","1f75c3e559b7213887762d5229550c2b","220.244.163.79","Mozilla/5.0 (Windows NT 10.0; Win64; x64; rv:141.0) Gecko/20100101 Firefox/141.0","","Firefox","141.0","Windows","10.0","https://app.prolific.com/","en-US,en;q=0.5","642cb1f7f42c4e0a6c5d4eef","6877631c9844ddd5501205fc","6889ef16cc6f1a8ea9c45410","3","1","642cb1f7f42c4e0a6c5d4eef","3","1","2025-07-30T10:24:32.077Z","","","","","","","","","","","ControlQ","","50","","","","","","","","","","","","","","","","","","","","","","","","","","","","",""
"2905","","<div style=""width:500px;"">
  <p>How would you describe your current emotional state?</p>
  </div>","50","html-slider-response","67","955084","0.0-5.0-3.11","284","1","2025-07-30 10:08:35","1f75c3e559b7213887762d5229550c2b","220.244.163.79","Mozilla/5.0 (Windows NT 10.0; Win64; x64; rv:141.0) Gecko/20100101 Firefox/141.0","","Firefox","141.0","Windows","10.0","https://app.prolific.com/","en-US,en;q=0.5","642cb1f7f42c4e0a6c5d4eef","6877631c9844ddd5501205fc","6889ef16cc6f1a8ea9c45410","3","1","642cb1f7f42c4e0a6c5d4eef","3","1","2025-07-30T10:24:34.984Z","","","","","","","","","","","StressQ","","50","","","","","","","","","","","","","","","","","","","","","","","","","","","","",""
"2660","","<div style=""width:500px;"">
  <p>What best describes how you currently feel?</p>
  </div>","41","html-slider-response","68","957746","0.0-5.0-4.11","284","1","2025-07-30 10:08:35","1f75c3e559b7213887762d5229550c2b","220.244.163.79","Mozilla/5.0 (Windows NT 10.0; Win64; x64; rv:141.0) Gecko/20100101 Firefox/141.0","","Firefox","141.0","Windows","10.0","https://app.prolific.com/","en-US,en;q=0.5","642cb1f7f42c4e0a6c5d4eef","6877631c9844ddd5501205fc","6889ef16cc6f1a8ea9c45410","3","1","642cb1f7f42c4e0a6c5d4eef","3","1","2025-07-30T10:24:37.646Z","","","","","","","","","","","MotivationQ","","50","","","","","","","","","","","","","","","","","","","","","","","","","","","","",""
"","","","","ctl-task-cpt","69","998195","0.0-5.0-0.12","284","1","2025-07-30 10:08:35","1f75c3e559b7213887762d5229550c2b","220.244.163.79","Mozilla/5.0 (Windows NT 10.0; Win64; x64; rv:141.0) Gecko/20100101 Firefox/141.0","","Firefox","141.0","Windows","10.0","https://app.prolific.com/","en-US,en;q=0.5","642cb1f7f42c4e0a6c5d4eef","6877631c9844ddd5501205fc","6889ef16cc6f1a8ea9c45410","3","1","642cb1f7f42c4e0a6c5d4eef","3","1","2025-07-30T10:25:18.095Z","","","","","","","","","","","","","","win-only","0","g1:NW,g2:SE","0.7","13","0","964271","1951","6955","37439","1","4","4","6","2","4","4","46","42","0.3484848484848485","1257","3000","2070","[""down"",""right""]","{""num_key_presses"":8,""num_perfect"":5,""num_errors"":0,""num_randdir"":3,""num_randdir_good_moves"":2,""num_whilered"":0,""num_whileblue"":0,""num_blue"":2,""num_good_moves"":7}","[419.0714133126395,415.0714362008231,0,419.0714133126395,415.0714362008231,114,419.0714133126395,415.0714362008231,225,419.0714133126395,415.0714362008231,335,419.0714133126395,415.0714362008231,445,417.8214133126395,401.3214362008231,556,886.5714133126395,858.8214362008231,667,901.5714133126395,873.8214362008231,777,842.8214133126395,865.0714362008231,887,799.0714133126395,818.8214362008231,1000,799.0714133126395,818.8214362008231,1111,799.0714133126395,818.8214362008231,1222,799.0714133126395,818.8214362008231,1334,799.0714133126395,818.8214362008231,1447,799.0714133126395,818.8214362008231,1559,799.0714133126395,818.8214362008231,1670,799.0714133126395,818.8214362008231,1782,799.0714133126395,818.8214362008231,1895,799.0714133126395,818.8214362008231,2004,799.0714133126395,818.8214362008231,2115,799.0714133126395,818.8214362008231,2227,799.0714133126395,818.8214362008231,2340,799.0714133126395,818.8214362008231,2451,799.0714133126395,818.8214362008231,2563,799.0714133126395,818.8214362008231,2672,799.0714133126395,818.8214362008231,2786,799.0714133126395,818.8214362008231,2897,799.0714133126395,818.8214362008231,3010,799.0714133126395,818.8214362008231,3119,799.0714133126395,818.8214362008231,3230,799.0714133126395,818.8214362008231,3341,799.0714133126395,818.8214362008231,3453,799.0714133126395,818.8214362008231,3564,799.0714133126395,818.8214362008231,3678,799.0714133126395,818.8214362008231,3790,799.0714133126395,818.8214362008231,3902,799.0714133126395,818.8214362008231,4013,799.0714133126395,818.8214362008231,4123,799.0714133126395,818.8214362008231,4239,799.0714133126395,818.8214362008231,4349,799.0714133126395,818.8214362008231,4462,799.0714133126395,818.8214362008231,4573,799.0714133126395,818.8214362008231,4684,799.0714133126395,818.8214362008231,4795,799.0714133126395,818.8214362008231,4907]","[1406,1406,1000,0,406,""oops"",""down"",""down"",""good_move"",4700,3294,2931.3,1406,362.7,""smooth"",""down"",""down"",""good_move"",6997,2297,1911,4700,386,""oops"",""right"",""down"",""good_move"",13370,6372,2628.6,10419,322.4,""smooth"",""right"",""right"",""good_move"",20352,6982,3013,16966,373,""smooth"",""right"",""right"",""good_move"",24109,3757,3379.3,20352,377.7,""oops"",""right"",""left"",""bad_move"",26757,2647,2086.5,24110,560.5,""smooth"",""right"",""right"",""good_move"",30229,3472,3098.8,26757,373.2,""smooth"",""right"",""right"",""good_move""]","",""
"4546","","<div style=""width:500px;"">
  <p>What determined the result of this run?</p>
  </div>","61","html-slider-response","70","1002743","0.0-5.0-1.12","284","1","2025-07-30 10:08:35","1f75c3e559b7213887762d5229550c2b","220.244.163.79","Mozilla/5.0 (Windows NT 10.0; Win64; x64; rv:141.0) Gecko/20100101 Firefox/141.0","","Firefox","141.0","Windows","10.0","https://app.prolific.com/","en-US,en;q=0.5","642cb1f7f42c4e0a6c5d4eef","6877631c9844ddd5501205fc","6889ef16cc6f1a8ea9c45410","3","1","642cb1f7f42c4e0a6c5d4eef","3","1","2025-07-30T10:25:22.643Z","","","","","","","","","","","AttribQ","","50","","","","","","","","","","","","","","","","","","","","","","","","","","","","",""
"2053","","<div style=""width:500px;"">
  <p>How much control did you have over the ball?</p>
  </div>","62","html-slider-response","71","1004800","0.0-5.0-2.12","284","1","2025-07-30 10:08:35","1f75c3e559b7213887762d5229550c2b","220.244.163.79","Mozilla/5.0 (Windows NT 10.0; Win64; x64; rv:141.0) Gecko/20100101 Firefox/141.0","","Firefox","141.0","Windows","10.0","https://app.prolific.com/","en-US,en;q=0.5","642cb1f7f42c4e0a6c5d4eef","6877631c9844ddd5501205fc","6889ef16cc6f1a8ea9c45410","3","1","642cb1f7f42c4e0a6c5d4eef","3","1","2025-07-30T10:25:24.700Z","","","","","","","","","","","ControlQ","","50","","","","","","","","","","","","","","","","","","","","","","","","","","","","",""
"2932","","<div style=""width:500px;"">
  <p>How would you describe your current emotional state?</p>
  </div>","50","html-slider-response","72","1007734","0.0-5.0-3.12","284","1","2025-07-30 10:08:35","1f75c3e559b7213887762d5229550c2b","220.244.163.79","Mozilla/5.0 (Windows NT 10.0; Win64; x64; rv:141.0) Gecko/20100101 Firefox/141.0","","Firefox","141.0","Windows","10.0","https://app.prolific.com/","en-US,en;q=0.5","642cb1f7f42c4e0a6c5d4eef","6877631c9844ddd5501205fc","6889ef16cc6f1a8ea9c45410","3","1","642cb1f7f42c4e0a6c5d4eef","3","1","2025-07-30T10:25:27.634Z","","","","","","","","","","","StressQ","","50","","","","","","","","","","","","","","","","","","","","","","","","","","","","",""
"2485","","<div style=""width:500px;"">
  <p>What best describes how you currently feel?</p>
  </div>","37","html-slider-response","73","1010221","0.0-5.0-4.12","284","1","2025-07-30 10:08:35","1f75c3e559b7213887762d5229550c2b","220.244.163.79","Mozilla/5.0 (Windows NT 10.0; Win64; x64; rv:141.0) Gecko/20100101 Firefox/141.0","","Firefox","141.0","Windows","10.0","https://app.prolific.com/","en-US,en;q=0.5","642cb1f7f42c4e0a6c5d4eef","6877631c9844ddd5501205fc","6889ef16cc6f1a8ea9c45410","3","1","642cb1f7f42c4e0a6c5d4eef","3","1","2025-07-30T10:25:30.121Z","","","","","","","","","","","MotivationQ","","50","","","","","","","","","","","","","","","","","","","","","","","","","","","","",""
"","","","","ctl-task-cpt","74","1041915","0.0-5.0-0.13","284","1","2025-07-30 10:08:35","1f75c3e559b7213887762d5229550c2b","220.244.163.79","Mozilla/5.0 (Windows NT 10.0; Win64; x64; rv:141.0) Gecko/20100101 Firefox/141.0","","Firefox","141.0","Windows","10.0","https://app.prolific.com/","en-US,en;q=0.5","642cb1f7f42c4e0a6c5d4eef","6877631c9844ddd5501205fc","6889ef16cc6f1a8ea9c45410","3","1","642cb1f7f42c4e0a6c5d4eef","3","1","2025-07-30T10:26:01.815Z","","","","","","","","","","","","","","win-only","0","g1:NW,g2:SE","0.8","14","0","1016746","2652","7656","28675","1","4","8","6","2","8","8","54","46","0.4090909090909091","1044","3000","2070","[""down"",""right""]","{""num_key_presses"":8,""num_perfect"":6,""num_errors"":0,""num_randdir"":2,""num_randdir_good_moves"":1,""num_whilered"":0,""num_whileblue"":0,""num_blue"":0,""num_good_moves"":7}","[410.3214133126395,418.8214362008231,0,410.3214133126395,418.8214362008231,106,410.3214133126395,418.8214362008231,223,410.3214133126395,418.8214362008231,331,410.3214133126395,418.8214362008231,444,625.3214133126395,632.5714362008231,556,837.8214133126395,828.8214362008231,666,820.3214133126395,796.3214362008231,776,804.0714133126395,776.3214362008231,888,804.0714133126395,776.3214362008231,995,804.0714133126395,776.3214362008231,1095,804.0714133126395,776.3214362008231,1207,804.0714133126395,776.3214362008231,1320,804.0714133126395,776.3214362008231,1428,804.0714133126395,776.3214362008231,1541,804.0714133126395,776.3214362008231,1654,804.0714133126395,776.3214362008231,1765,804.0714133126395,776.3214362008231,1877,804.0714133126395,776.3214362008231,1988,804.0714133126395,776.3214362008231,2102,804.0714133126395,776.3214362008231,2213,804.0714133126395,776.3214362008231,2325,804.0714133126395,776.3214362008231,2436,804.0714133126395,776.3214362008231,2547,804.0714133126395,776.3214362008231,2661,804.0714133126395,776.3214362008231,2773,804.0714133126395,776.3214362008231,2884,804.0714133126395,776.3214362008231,2996,804.0714133126395,776.3214362008231,3108,804.0714133126395,776.3214362008231,3221,804.0714133126395,776.3214362008231,3330,804.0714133126395,776.3214362008231,3441,804.0714133126395,776.3214362008231,3554,804.0714133126395,776.3214362008231,3664,804.0714133126395,776.3214362008231,3774,804.0714133126395,776.3214362008231,3885,804.0714133126395,776.3214362008231,3995,804.0714133126395,776.3214362008231,4106,804.0714133126395,776.3214362008231,4220,804.0714133126395,776.3214362008231,4331,804.0714133126395,776.3214362008231,4444,804.0714133126395,776.3214362008231,4554,804.0714133126395,776.3214362008231,4666,804.0714133126395,776.3214362008231,4778,804.0714133126395,776.3214362008231,4890]","[1406,1406,1000,0,406,""smooth"",""down"",""down"",""good_move"",3907,2501,2130.1,1406,370.9,""oops"",""down"",""right"",""good_move"",6960,3053,2729.4,3907,323.6,""smooth"",""down"",""down"",""good_move"",10191,3231,2875.5,6960,355.5,""smooth"",""down"",""down"",""good_move"",12354,2162,1754.6,10192,407.4,""oops"",""right"",""up"",""bad_move"",15425,3071,2631.6,12354,439.4,""smooth"",""right"",""right"",""good_move"",18398,2973,2551.6,15425,421.4,""smooth"",""right"",""right"",""good_move"",20721,2321,1942.5,18400,378.5,""smooth"",""down"",""down"",""good_move""]","",""
"3463","","<div style=""width:500px;"">
  <p>What determined the result of this run?</p>
  </div>","62","html-slider-response","75","1045384","0.0-5.0-1.13","284","1","2025-07-30 10:08:35","1f75c3e559b7213887762d5229550c2b","220.244.163.79","Mozilla/5.0 (Windows NT 10.0; Win64; x64; rv:141.0) Gecko/20100101 Firefox/141.0","","Firefox","141.0","Windows","10.0","https://app.prolific.com/","en-US,en;q=0.5","642cb1f7f42c4e0a6c5d4eef","6877631c9844ddd5501205fc","6889ef16cc6f1a8ea9c45410","3","1","642cb1f7f42c4e0a6c5d4eef","3","1","2025-07-30T10:26:05.284Z","","","","","","","","","","","AttribQ","","50","","","","","","","","","","","","","","","","","","","","","","","","","","","","",""
"1895","","<div style=""width:500px;"">
  <p>How much control did you have over the ball?</p>
  </div>","62","html-slider-response","76","1047281","0.0-5.0-2.13","284","1","2025-07-30 10:08:35","1f75c3e559b7213887762d5229550c2b","220.244.163.79","Mozilla/5.0 (Windows NT 10.0; Win64; x64; rv:141.0) Gecko/20100101 Firefox/141.0","","Firefox","141.0","Windows","10.0","https://app.prolific.com/","en-US,en;q=0.5","642cb1f7f42c4e0a6c5d4eef","6877631c9844ddd5501205fc","6889ef16cc6f1a8ea9c45410","3","1","642cb1f7f42c4e0a6c5d4eef","3","1","2025-07-30T10:26:07.181Z","","","","","","","","","","","ControlQ","","50","","","","","","","","","","","","","","","","","","","","","","","","","","","","",""
"2567","","<div style=""width:500px;"">
  <p>How would you describe your current emotional state?</p>
  </div>","50","html-slider-response","77","1049851","0.0-5.0-3.13","284","1","2025-07-30 10:08:35","1f75c3e559b7213887762d5229550c2b","220.244.163.79","Mozilla/5.0 (Windows NT 10.0; Win64; x64; rv:141.0) Gecko/20100101 Firefox/141.0","","Firefox","141.0","Windows","10.0","https://app.prolific.com/","en-US,en;q=0.5","642cb1f7f42c4e0a6c5d4eef","6877631c9844ddd5501205fc","6889ef16cc6f1a8ea9c45410","3","1","642cb1f7f42c4e0a6c5d4eef","3","1","2025-07-30T10:26:09.751Z","","","","","","","","","","","StressQ","","50","","","","","","","","","","","","","","","","","","","","","","","","","","","","",""
"2045","","<div style=""width:500px;"">
  <p>What best describes how you currently feel?</p>
  </div>","42","html-slider-response","78","1051897","0.0-5.0-4.13","284","1","2025-07-30 10:08:35","1f75c3e559b7213887762d5229550c2b","220.244.163.79","Mozilla/5.0 (Windows NT 10.0; Win64; x64; rv:141.0) Gecko/20100101 Firefox/141.0","","Firefox","141.0","Windows","10.0","https://app.prolific.com/","en-US,en;q=0.5","642cb1f7f42c4e0a6c5d4eef","6877631c9844ddd5501205fc","6889ef16cc6f1a8ea9c45410","3","1","642cb1f7f42c4e0a6c5d4eef","3","1","2025-07-30T10:26:11.798Z","","","","","","","","","","","MotivationQ","","50","","","","","","","","","","","","","","","","","","","","","","","","","","","","",""
