"rt","response_timestamp","stimulus","response","trial_type","trial_index","time_elapsed","internal_node_id","run_id","condition","recorded_at","source_code_version","ip","user_agent","device","browser","browser_version","platform","platform_version","referer","accept_language","PROLIFIC_PID","STUDY_ID","SESSION_ID","WEEK","prolific_id","week","realtime","success","responses","item_order","radio_event_ids","radio_event_times","key_event_times","mouse_event_times","straightlining","zigzagging","honeypot","eventType","view_history","slider_start","which_type","canvas_config","goals_layout","control_level","trial_number","tutorial_trial_number","trial_start_time","phase1_start_time","phase2_start_time","phase3_start_time","goal_1_value","goal_1_distance","goal_2_value","goal_2_distance","goal_selected","outcome","outcome_total","participant_final_score","participant_initial_score","participant_final_score_prop","goal_choice_rt","allocated_time","allocated_time_remaining","goal_direction","counts","mouse_movements","key_presses","question_order","question_id"
"43205","1752050564062","<p style='font-size:40px;line-height:1.25'><strong>Welcome to the experiment!</strong></p><p style='font-size:1.1em;line-height:1.25'>Thank you for participanting in our experiment again! You will be asked to play the Dysfunctional Ball Game again. We will briefly recap the rules before we start.</p><p style='font-size:1.1em;line-height:1.25'>Press <strong>Next</strong> to continue.</p>","0","custom-html-button-response","0","43206","0.0-0.0","15","1","2025-07-09 08:41:59","01610cd0009c79a99da7d0a3353eb402","109.154.178.14","Mozilla/5.0 (Macintosh; Intel Mac OS X 10_15_7) AppleWebKit/537.36 (KHTML, like Gecko) Chrome/137.0.0.0 Safari/537.36","Macintosh","Chrome","137.0.0.0","OS X","10_15_7","https://app.prolific.com/","en-GB,en-US;q=0.9,en;q=0.8","6760580745ecb73102f83f3d","683db7602f5db6a34d12d064","686e2a935e571afad09eaadc","1","6760580745ecb73102f83f3d","1","2025-07-09T08:42:44.063Z","","","","","","","","","","","","","","","","","","","","","","","","","","","","","","","","","","","","","","","","","",""
"36900","","","","fullscreen","1","81107","0.0-1.0","15","1","2025-07-09 08:41:59","01610cd0009c79a99da7d0a3353eb402","109.154.178.14","Mozilla/5.0 (Macintosh; Intel Mac OS X 10_15_7) AppleWebKit/537.36 (KHTML, like Gecko) Chrome/137.0.0.0 Safari/537.36","Macintosh","Chrome","137.0.0.0","OS X","10_15_7","https://app.prolific.com/","en-GB,en-US;q=0.9,en;q=0.8","6760580745ecb73102f83f3d","683db7602f5db6a34d12d064","686e2a935e571afad09eaadc","1","6760580745ecb73102f83f3d","1","","true","","","","","","","","","","","","","","","","","","","","","","","","","","","","","","","","","","","","","","","","",""
"3704","1752050605670","<p style='font-size:1.1em;line-height:1.25'>In the following, we will ask you a few questions relating to your feelings in the last 24 hours.<br></p><p style='font-size:1.1em;line-height:1.25'>Press the <strong>Next</strong> button to continue.</p>","0","custom-html-button-response","2","84813","0.0-2.0-0.0","15","1","2025-07-09 08:41:59","01610cd0009c79a99da7d0a3353eb402","109.154.178.14","Mozilla/5.0 (Macintosh; Intel Mac OS X 10_15_7) AppleWebKit/537.36 (KHTML, like Gecko) Chrome/137.0.0.0 Safari/537.36","Macintosh","Chrome","137.0.0.0","OS X","10_15_7","https://app.prolific.com/","en-GB,en-US;q=0.9,en;q=0.8","6760580745ecb73102f83f3d","683db7602f5db6a34d12d064","686e2a935e571afad09eaadc","1","6760580745ecb73102f83f3d","1","2025-07-09T08:43:25.670Z","","","","","","","","","","","","","","","","","","","","","","","","","","","","","","","","","","","","","","","","","",""
"75902.69999998808","","","","survey-template","3","160718","0.0-2.0-1.0","15","1","2025-07-09 08:41:59","01610cd0009c79a99da7d0a3353eb402","109.154.178.14","Mozilla/5.0 (Macintosh; Intel Mac OS X 10_15_7) AppleWebKit/537.36 (KHTML, like Gecko) Chrome/137.0.0.0 Safari/537.36","Macintosh","Chrome","137.0.0.0","OS X","10_15_7","https://app.prolific.com/","en-GB,en-US;q=0.9,en;q=0.8","6760580745ecb73102f83f3d","683db7602f5db6a34d12d064","686e2a935e571afad09eaadc","1","6760580745ecb73102f83f3d","1","2025-07-09T08:44:41.575Z","","{""Q01"":""0"",""Q02"":""0"",""Q03"":""0"",""Q04"":""2"",""Q05"":""3"",""Q06"":""2"",""Q07"":""1"",""Q08"":""0"",""Q09"":""0"",""Q10"":""1"",""Q11"":""1"",""Q12"":""0"",""Q13"":""5"",""Q14"":""2"",""Q15"":""2"",""Q16"":""2"",""Q17"":""2"",""Q18"":""1"",""Q19"":""2"",""Q20"":""0"",""Q21"":""0"",""Q22"":""1""}","[0,1,2,3,4,5,6,7,8,9,10,11,12,13,14,15,16,17,18,19,20,21]","[""Q01"",""Q02"",""Q03"",""Q04"",""Q05"",""Q06"",""Q07"",""Q08"",""Q09"",""Q10"",""Q11"",""Q12"",""Q13"",""Q14"",""Q15"",""Q16"",""Q17"",""Q18"",""Q19"",""Q20"",""Q21"",""Q22"",""Q22""]","[4314.300000011921,5262.699999988079,6517.399999976158,7967.300000011921,11095.300000011921,13937.899999976158,15792.699999988079,17642.69999998808,18929.100000023842,24007.100000023842,35435.89999997616,37469.89999997616,39222.10000002384,49489.10000002384,52274.19999998808,54543.19999998808,56443.69999998808,57799,60169.5,63096.89999997616,64784.30000001192,65685.30000001192,69245.39999997616]","[]","[0.10000002384185791,4314.300000011921,5262.699999988079,6517.399999976158,7967.300000011921,10073.800000011921,11095.300000011921,13937.899999976158,15792.699999988079,17642.69999998808,18929.100000023842,24007.100000023842,35435.89999997616,37469.89999997616,39222.10000002384,49489.10000002384,52274.19999998808,54543.19999998808,56443.69999998808,57799,60169.5,63096.89999997616,64784.30000001192,65685.30000001192,69245.39999997616,75899.10000002384]","0.36363636363636365","0.47619047619047616","0","drsp","","","","","","","","","","","","","","","","","","","","","","","","","","","","","","",""
"8691.399999976158","","","","survey-template","4","169411","0.0-2.0-2.0","15","1","2025-07-09 08:41:59","01610cd0009c79a99da7d0a3353eb402","109.154.178.14","Mozilla/5.0 (Macintosh; Intel Mac OS X 10_15_7) AppleWebKit/537.36 (KHTML, like Gecko) Chrome/137.0.0.0 Safari/537.36","Macintosh","Chrome","137.0.0.0","OS X","10_15_7","https://app.prolific.com/","en-GB,en-US;q=0.9,en;q=0.8","6760580745ecb73102f83f3d","683db7602f5db6a34d12d064","686e2a935e571afad09eaadc","1","6760580745ecb73102f83f3d","1","2025-07-09T08:44:50.268Z","","{""Q01"":""3"",""Q02"":""1"",""Q03"":""2""}","[0,1,2]","[""Q01"",""Q02"",""Q03""]","[4003.699999988079,5837.099999964237,7469.699999988079]","[]","[4003.699999988079,5837.099999964237,7469.699999988079,8690.599999964237]","0.3333333333333333","0.5","0","stress","","","","","","","","","","","","","","","","","","","","","","","","","","","","","","",""
"32200","","","","instructions","5","201610","0.0-3.0-0.0","15","1","2025-07-09 08:41:59","01610cd0009c79a99da7d0a3353eb402","109.154.178.14","Mozilla/5.0 (Macintosh; Intel Mac OS X 10_15_7) AppleWebKit/537.36 (KHTML, like Gecko) Chrome/137.0.0.0 Safari/537.36","Macintosh","Chrome","137.0.0.0","OS X","10_15_7","https://app.prolific.com/","en-GB,en-US;q=0.9,en;q=0.8","6760580745ecb73102f83f3d","683db7602f5db6a34d12d064","686e2a935e571afad09eaadc","1","6760580745ecb73102f83f3d","1","","","","","","","","","","","","","[{""page_index"":0,""viewing_time"":32200}]","","","","","","","","","","","","","","","","","","","","","","","","","","","","","",""
"7534","","<p>Before you start with this game please answer the following three questions yourself. </p>
  <p>Through this game, we measure several aspects of your cognitive performance, such as reaction times, multi-tasking capabilities </p>
  <p>and the ability to assess the situation you are in.</p>
  <p></p>
  <p><b>How good do you usually are in such tasks?</b></p>","92","html-slider-response","6","209145","0.0-4.0-0.0","15","1","2025-07-09 08:41:59","01610cd0009c79a99da7d0a3353eb402","109.154.178.14","Mozilla/5.0 (Macintosh; Intel Mac OS X 10_15_7) AppleWebKit/537.36 (KHTML, like Gecko) Chrome/137.0.0.0 Safari/537.36","Macintosh","Chrome","137.0.0.0","OS X","10_15_7","https://app.prolific.com/","en-GB,en-US;q=0.9,en;q=0.8","6760580745ecb73102f83f3d","683db7602f5db6a34d12d064","686e2a935e571afad09eaadc","1","6760580745ecb73102f83f3d","1","2025-07-09T08:45:30.002Z","","","","","","","","","","","PreSkillQ","","50","","","","","","","","","","","","","","","","","","","","","","","","","","","","",""
"2746","","<div style=""width:500px;"">
  <p>How well do you think you will perform in this task compared to other participants?</p>
  </div>","90","html-slider-response","7","211892","0.0-4.0-1.0","15","1","2025-07-09 08:41:59","01610cd0009c79a99da7d0a3353eb402","109.154.178.14","Mozilla/5.0 (Macintosh; Intel Mac OS X 10_15_7) AppleWebKit/537.36 (KHTML, like Gecko) Chrome/137.0.0.0 Safari/537.36","Macintosh","Chrome","137.0.0.0","OS X","10_15_7","https://app.prolific.com/","en-GB,en-US;q=0.9,en;q=0.8","6760580745ecb73102f83f3d","683db7602f5db6a34d12d064","686e2a935e571afad09eaadc","1","6760580745ecb73102f83f3d","1","2025-07-09T08:45:32.750Z","","","","","","","","","","","PrePerfQ","","50","","","","","","","","","","","","","","","","","","","","","","","","","","","","",""
"3430","","<div style=""width:500px;"">
  <p>What best describes how you currently feel?</p>
  </div>","96","html-slider-response","8","215323","0.0-4.0-2.0","15","1","2025-07-09 08:41:59","01610cd0009c79a99da7d0a3353eb402","109.154.178.14","Mozilla/5.0 (Macintosh; Intel Mac OS X 10_15_7) AppleWebKit/537.36 (KHTML, like Gecko) Chrome/137.0.0.0 Safari/537.36","Macintosh","Chrome","137.0.0.0","OS X","10_15_7","https://app.prolific.com/","en-GB,en-US;q=0.9,en;q=0.8","6760580745ecb73102f83f3d","683db7602f5db6a34d12d064","686e2a935e571afad09eaadc","1","6760580745ecb73102f83f3d","1","2025-07-09T08:45:36.180Z","","","","","","","","","","","PreMotivationQ","","50","","","","","","","","","","","","","","","","","","","","","","","","","","","","",""
"","","","","ctl-task-cpt","9","239337","0.0-5.0-0.0","15","1","2025-07-09 08:41:59","01610cd0009c79a99da7d0a3353eb402","109.154.178.14","Mozilla/5.0 (Macintosh; Intel Mac OS X 10_15_7) AppleWebKit/537.36 (KHTML, like Gecko) Chrome/137.0.0.0 Safari/537.36","Macintosh","Chrome","137.0.0.0","OS X","10_15_7","https://app.prolific.com/","en-GB,en-US;q=0.9,en;q=0.8","6760580745ecb73102f83f3d","683db7602f5db6a34d12d064","686e2a935e571afad09eaadc","1","6760580745ecb73102f83f3d","1","2025-07-09T08:46:00.194Z","","","","","","","","","","","","","","win-only","1","g1:NE,g2:SW","1","1","0","217251.8","1332.1","6337.6","21007.6","1","4","4","6","1","1","1","1","0","0.007575757575757576","5005.5","3000","1240","[""up"",""right""]","{""num_key_presses"":4,""num_perfect"":4,""num_errors"":0,""num_randdir"":0,""num_randdir_good_moves"":0,""num_whilered"":0,""num_whileblue"":0,""num_blue"":1,""num_good_moves"":4}","[810,815.796875,0.1,810,815.796875,104.1,812,815.796875,208.8,1406,587.796875,309.5,1406,587.796875,422.7,1406,587.796875,524,1406,587.796875,629.4,1406,587.796875,734.1,1406,587.796875,839.7,1406,587.796875,944.3,1406,587.796875,1049,1406,587.796875,1149.1,1406,587.796875,1257.3,1406,587.796875,1358.5,1406,587.796875,1459,1406,587.796875,1559.7,1406,587.796875,1673.6,1406,587.796875,1774.7,1406,587.796875,1878.8,1406,587.796875,1979.6,1406,587.796875,2079.8,1406,587.796875,2184,1406,587.796875,2284.2,1406,587.796875,2389.3,1406,587.796875,2493.4,1406,587.796875,2594.4,1406,587.796875,2698.8,1406,587.796875,2799.3,1406,587.796875,2904.9,1406,587.796875,3009.2,1406,587.796875,3123.9,1406,587.796875,3224.2,1406,587.796875,3324.4,1406,587.796875,3424.4,1406,587.796875,3529.2,1406,587.796875,3633.6,1406,587.796875,3733.9,1406,587.796875,3839.5,1406,587.796875,3944.8,1406,587.796875,4048.5,1406,587.796875,4149.5,1406,587.796875,4254.1,1406,587.796875,4358.8,1406,587.796875,4459.6,1406,587.796875,4563.5,1406,587.796875,4672.6,1406,587.796875,4773.9,1406,587.796875,4878.2,1406,587.796875,4978.5]","[1669.9,1669.9,1000,0,669.9,""smooth"",""right"",""right"",""good_move"",4959.7,3289.4,2719.7,1670.3,569.7,""smooth"",""right"",""right"",""good_move"",11441.3,6481.4,2814,8207.8,419.5,""smooth"",""up"",""up"",""good_move"",14574.2,3132.7,2711.8,11441.5,420.9,""smooth"",""up"",""up"",""good_move""]","",""
"3452","","<div style=""width:500px;"">
  <p>What determined the result of this run?</p>
  </div>","26","html-slider-response","10","242790","0.0-5.0-1.0","15","1","2025-07-09 08:41:59","01610cd0009c79a99da7d0a3353eb402","109.154.178.14","Mozilla/5.0 (Macintosh; Intel Mac OS X 10_15_7) AppleWebKit/537.36 (KHTML, like Gecko) Chrome/137.0.0.0 Safari/537.36","Macintosh","Chrome","137.0.0.0","OS X","10_15_7","https://app.prolific.com/","en-GB,en-US;q=0.9,en;q=0.8","6760580745ecb73102f83f3d","683db7602f5db6a34d12d064","686e2a935e571afad09eaadc","1","6760580745ecb73102f83f3d","1","2025-07-09T08:46:03.647Z","","","","","","","","","","","AttribQ","","50","","","","","","","","","","","","","","","","","","","","","","","","","","","","",""
"2827","","<div style=""width:500px;"">
  <p>How much control did you have over the ball?</p>
  </div>","90","html-slider-response","11","245618","0.0-5.0-2.0","15","1","2025-07-09 08:41:59","01610cd0009c79a99da7d0a3353eb402","109.154.178.14","Mozilla/5.0 (Macintosh; Intel Mac OS X 10_15_7) AppleWebKit/537.36 (KHTML, like Gecko) Chrome/137.0.0.0 Safari/537.36","Macintosh","Chrome","137.0.0.0","OS X","10_15_7","https://app.prolific.com/","en-GB,en-US;q=0.9,en;q=0.8","6760580745ecb73102f83f3d","683db7602f5db6a34d12d064","686e2a935e571afad09eaadc","1","6760580745ecb73102f83f3d","1","2025-07-09T08:46:06.475Z","","","","","","","","","","","ControlQ","","50","","","","","","","","","","","","","","","","","","","","","","","","","","","","",""
"3070","","<div style=""width:500px;"">
  <p>How would you describe your current emotional state?</p>
  </div>","68","html-slider-response","12","248688","0.0-5.0-3.0","15","1","2025-07-09 08:41:59","01610cd0009c79a99da7d0a3353eb402","109.154.178.14","Mozilla/5.0 (Macintosh; Intel Mac OS X 10_15_7) AppleWebKit/537.36 (KHTML, like Gecko) Chrome/137.0.0.0 Safari/537.36","Macintosh","Chrome","137.0.0.0","OS X","10_15_7","https://app.prolific.com/","en-GB,en-US;q=0.9,en;q=0.8","6760580745ecb73102f83f3d","683db7602f5db6a34d12d064","686e2a935e571afad09eaadc","1","6760580745ecb73102f83f3d","1","2025-07-09T08:46:09.546Z","","","","","","","","","","","StressQ","","50","","","","","","","","","","","","","","","","","","","","","","","","","","","","",""
"3921","","<div style=""width:500px;"">
  <p>What best describes how you currently feel?</p>
  </div>","94","html-slider-response","13","252610","0.0-5.0-4.0","15","1","2025-07-09 08:41:59","01610cd0009c79a99da7d0a3353eb402","109.154.178.14","Mozilla/5.0 (Macintosh; Intel Mac OS X 10_15_7) AppleWebKit/537.36 (KHTML, like Gecko) Chrome/137.0.0.0 Safari/537.36","Macintosh","Chrome","137.0.0.0","OS X","10_15_7","https://app.prolific.com/","en-GB,en-US;q=0.9,en;q=0.8","6760580745ecb73102f83f3d","683db7602f5db6a34d12d064","686e2a935e571afad09eaadc","1","6760580745ecb73102f83f3d","1","2025-07-09T08:46:13.467Z","","","","","","","","","","","MotivationQ","","50","","","","","","","","","","","","","","","","","","","","","","","","","","","","",""
"","","","","ctl-task-cpt","14","281575","0.0-5.0-0.1","15","1","2025-07-09 08:41:59","01610cd0009c79a99da7d0a3353eb402","109.154.178.14","Mozilla/5.0 (Macintosh; Intel Mac OS X 10_15_7) AppleWebKit/537.36 (KHTML, like Gecko) Chrome/137.0.0.0 Safari/537.36","Macintosh","Chrome","137.0.0.0","OS X","10_15_7","https://app.prolific.com/","en-GB,en-US;q=0.9,en;q=0.8","6760580745ecb73102f83f3d","683db7602f5db6a34d12d064","686e2a935e571afad09eaadc","1","6760580745ecb73102f83f3d","1","2025-07-09T08:46:42.432Z","","","","","","","","","","","","","","win-only","3","g1:SW,g2:NE","0.9","2","0","254539.3","1250.5","6251","25946","1","4","8","6","2","8","8","9","1","0.06818181818181818","1064.6","3000","635","[""up"",""right""]","{""num_key_presses"":6,""num_perfect"":6,""num_errors"":0,""num_randdir"":0,""num_randdir_good_moves"":0,""num_whilered"":0,""num_whileblue"":0,""num_blue"":1,""num_good_moves"":6}","[802,805.796875,0.2,802,805.796875,100,802,805.796875,200.2,802,805.796875,306.5,802,805.796875,409.4,808,793.796875,509.6,1260,339.796875,610,1260,339.796875,711.7,1320,309.796875,813.3,1438,191.796875,915.4,1438,191.796875,1019.9,1438,191.796875,1120.8,1438,191.796875,1221.5,1438,191.796875,1324.2,1946,35.796875,1429.6,2488,-196.203125,1530.3,2488,-196.203125,1630.5,2488,-196.203125,1732.3,2488,-196.203125,1835.8,2488,-196.203125,1936.2,2488,-196.203125,2041.7,2488,-196.203125,2146.2,2488,-196.203125,2250.1,2488,-196.203125,2359,2488,-196.203125,2460.7,2488,-196.203125,2561.9,2488,-196.203125,2662.7,2488,-196.203125,2765.4,2488,-196.203125,2865.5,2488,-196.203125,2971.5,2488,-196.203125,3085.8,2488,-196.203125,3193.3,2488,-196.203125,3300.1,2488,-196.203125,3406,2488,-196.203125,3510.8,2488,-196.203125,3614.8,2488,-196.203125,3714.9,2488,-196.203125,3815.8,2488,-196.203125,3924.7,2488,-196.203125,4028.4,2488,-196.203125,4130,2488,-196.203125,4238,2488,-196.203125,4344.9,2488,-196.203125,4446.2,2488,-196.203125,4550.8,2488,-196.203125,4657.8,2488,-196.203125,4760.6,2488,-196.203125,4865.9,2488,-196.203125,4971]","[1513.5,1513.5,1000,0,513.5,""smooth"",""up"",""up"",""good_move"",3600.1,2086.3,1666.7,1513.8,419.6,""smooth"",""up"",""up"",""good_move"",10412.3,6812.1,2564,7373.6,474.7,""smooth"",""up"",""up"",""good_move"",13510.4,3098,2597.4,10412.4,500.6,""smooth"",""right"",""right"",""good_move"",15916.1,2405.4,1963.7,13510.7,441.7,""smooth"",""right"",""right"",""good_move"",19576.7,3660.4,3271,15916.3,389.4,""smooth"",""right"",""right"",""good_move""]","",""
"2884","","<div style=""width:500px;"">
  <p>What determined the result of this run?</p>
  </div>","72","html-slider-response","15","284461","0.0-5.0-1.1","15","1","2025-07-09 08:41:59","01610cd0009c79a99da7d0a3353eb402","109.154.178.14","Mozilla/5.0 (Macintosh; Intel Mac OS X 10_15_7) AppleWebKit/537.36 (KHTML, like Gecko) Chrome/137.0.0.0 Safari/537.36","Macintosh","Chrome","137.0.0.0","OS X","10_15_7","https://app.prolific.com/","en-GB,en-US;q=0.9,en;q=0.8","6760580745ecb73102f83f3d","683db7602f5db6a34d12d064","686e2a935e571afad09eaadc","1","6760580745ecb73102f83f3d","1","2025-07-09T08:46:45.318Z","","","","","","","","","","","AttribQ","","50","","","","","","","","","","","","","","","","","","","","","","","","","","","","",""
"3898","","<div style=""width:500px;"">
  <p>How much control did you have over the ball?</p>
  </div>","99","html-slider-response","16","288361","0.0-5.0-2.1","15","1","2025-07-09 08:41:59","01610cd0009c79a99da7d0a3353eb402","109.154.178.14","Mozilla/5.0 (Macintosh; Intel Mac OS X 10_15_7) AppleWebKit/537.36 (KHTML, like Gecko) Chrome/137.0.0.0 Safari/537.36","Macintosh","Chrome","137.0.0.0","OS X","10_15_7","https://app.prolific.com/","en-GB,en-US;q=0.9,en;q=0.8","6760580745ecb73102f83f3d","683db7602f5db6a34d12d064","686e2a935e571afad09eaadc","1","6760580745ecb73102f83f3d","1","2025-07-09T08:46:49.218Z","","","","","","","","","","","ControlQ","","50","","","","","","","","","","","","","","","","","","","","","","","","","","","","",""
"3267","","<div style=""width:500px;"">
  <p>How would you describe your current emotional state?</p>
  </div>","29","html-slider-response","17","291629","0.0-5.0-3.1","15","1","2025-07-09 08:41:59","01610cd0009c79a99da7d0a3353eb402","109.154.178.14","Mozilla/5.0 (Macintosh; Intel Mac OS X 10_15_7) AppleWebKit/537.36 (KHTML, like Gecko) Chrome/137.0.0.0 Safari/537.36","Macintosh","Chrome","137.0.0.0","OS X","10_15_7","https://app.prolific.com/","en-GB,en-US;q=0.9,en;q=0.8","6760580745ecb73102f83f3d","683db7602f5db6a34d12d064","686e2a935e571afad09eaadc","1","6760580745ecb73102f83f3d","1","2025-07-09T08:46:52.486Z","","","","","","","","","","","StressQ","","50","","","","","","","","","","","","","","","","","","","","","","","","","","","","",""
"4181","","<div style=""width:500px;"">
  <p>What best describes how you currently feel?</p>
  </div>","76","html-slider-response","18","295811","0.0-5.0-4.1","15","1","2025-07-09 08:41:59","01610cd0009c79a99da7d0a3353eb402","109.154.178.14","Mozilla/5.0 (Macintosh; Intel Mac OS X 10_15_7) AppleWebKit/537.36 (KHTML, like Gecko) Chrome/137.0.0.0 Safari/537.36","Macintosh","Chrome","137.0.0.0","OS X","10_15_7","https://app.prolific.com/","en-GB,en-US;q=0.9,en;q=0.8","6760580745ecb73102f83f3d","683db7602f5db6a34d12d064","686e2a935e571afad09eaadc","1","6760580745ecb73102f83f3d","1","2025-07-09T08:46:56.668Z","","","","","","","","","","","MotivationQ","","50","","","","","","","","","","","","","","","","","","","","","","","","","","","","",""
"","","","","ctl-task-cpt","19","323649","0.0-5.0-0.2","15","1","2025-07-09 08:41:59","01610cd0009c79a99da7d0a3353eb402","109.154.178.14","Mozilla/5.0 (Macintosh; Intel Mac OS X 10_15_7) AppleWebKit/537.36 (KHTML, like Gecko) Chrome/137.0.0.0 Safari/537.36","Macintosh","Chrome","137.0.0.0","OS X","10_15_7","https://app.prolific.com/","en-GB,en-US;q=0.9,en;q=0.8","6760580745ecb73102f83f3d","683db7602f5db6a34d12d064","686e2a935e571afad09eaadc","1","6760580745ecb73102f83f3d","1","2025-07-09T08:47:24.506Z","","","","","","","","","","","","","","win-only","1","g1:NE,g2:SW","0.8","3","0","297742.1","1983","6987.3","24823.5","1","4","4","6","2","4","2","11","9","0.08333333333333333","935.9","3000","1290","[""down"",""left""]","{""num_key_presses"":8,""num_perfect"":5,""num_errors"":2,""num_randdir"":1,""num_randdir_good_moves"":1,""num_whilered"":0,""num_whileblue"":0,""num_blue"":0,""num_good_moves"":6}","[802,807.796875,0.2,802,807.796875,103.5,802,807.796875,210.3,802,807.796875,311.6,802,807.796875,413.1,348,1419.796875,513.4,216,1563.796875,614.2,216,1563.796875,717,138,1513.796875,818.7,128,1497.796875,919.9,128,1497.796875,1027.9,128,1497.796875,1130.6,114,1497.796875,1232.2,-150,1547.796875,1335.3,-164,1547.796875,1435.5,-198,1541.796875,1539.6,-318,1423.796875,1646.7,-322,1407.796875,1747.8,-322,1407.796875,1848.8,-322,1407.796875,1952.6,-322,1407.796875,2053.4,-322,1407.796875,2159.5,-322,1407.796875,2265.2,-322,1407.796875,2372.8,-322,1407.796875,2478.1,-322,1407.796875,2583,-322,1407.796875,2690.9,-322,1407.796875,2793.9,-322,1407.796875,2898.2,-322,1407.796875,3007.6,-322,1407.796875,3110.5,-322,1407.796875,3214.4,-322,1407.796875,3318.7,-322,1407.796875,3426,-322,1407.796875,3528.8,-322,1407.796875,3637,-322,1407.796875,3744.6,-322,1407.796875,3845.2,-322,1407.796875,3948.2,-322,1407.796875,4048.8,-322,1407.796875,4153.2,-322,1407.796875,4257.1,-322,1407.796875,4361.7,-322,1407.796875,4467.2,-322,1407.796875,4577.3,-322,1407.796875,4677.8,-322,1407.796875,4778.2,-322,1407.796875,4878.3,-322,1407.796875,4979.9]","[1421.1,1421.1,1000,0,421.1,""smooth"",""left"",""left"",""good_move"",3758.1,2336.5,1916,1421.6,420.5,""smooth"",""left"",""left"",""good_move"",6440.8,2682.5,2266.4,3758.3,416.1,""smooth"",""left"",""left"",""good_move"",8904.6,2463.7,2120.9,6440.9,342.8,""smooth"",""down"",""down"",""good_move"",12119.3,3214.4,2723.3,8904.9,491.1,""oops"",""down"",""down"",""good_move"",12610.3,490.7,2584.9,12119.6,-2094.2,""error"",""-"",""-"",""no_move"",14173.9,1563.5,2946.7,13615.1,-2387.9,""error"",""-"",""-"",""no_move"",17716.2,3542,2051.6,15177.6,487,""smooth"",""down"",""down"",""good_move""]","",""
"2843","","<div style=""width:500px;"">
  <p>What determined the result of this run?</p>
  </div>","18","html-slider-response","20","326493","0.0-5.0-1.2","15","1","2025-07-09 08:41:59","01610cd0009c79a99da7d0a3353eb402","109.154.178.14","Mozilla/5.0 (Macintosh; Intel Mac OS X 10_15_7) AppleWebKit/537.36 (KHTML, like Gecko) Chrome/137.0.0.0 Safari/537.36","Macintosh","Chrome","137.0.0.0","OS X","10_15_7","https://app.prolific.com/","en-GB,en-US;q=0.9,en;q=0.8","6760580745ecb73102f83f3d","683db7602f5db6a34d12d064","686e2a935e571afad09eaadc","1","6760580745ecb73102f83f3d","1","2025-07-09T08:47:27.351Z","","","","","","","","","","","AttribQ","","50","","","","","","","","","","","","","","","","","","","","","","","","","","","","",""
"2681","","<div style=""width:500px;"">
  <p>How much control did you have over the ball?</p>
  </div>","43","html-slider-response","21","329176","0.0-5.0-2.2","15","1","2025-07-09 08:41:59","01610cd0009c79a99da7d0a3353eb402","109.154.178.14","Mozilla/5.0 (Macintosh; Intel Mac OS X 10_15_7) AppleWebKit/537.36 (KHTML, like Gecko) Chrome/137.0.0.0 Safari/537.36","Macintosh","Chrome","137.0.0.0","OS X","10_15_7","https://app.prolific.com/","en-GB,en-US;q=0.9,en;q=0.8","6760580745ecb73102f83f3d","683db7602f5db6a34d12d064","686e2a935e571afad09eaadc","1","6760580745ecb73102f83f3d","1","2025-07-09T08:47:30.033Z","","","","","","","","","","","ControlQ","","50","","","","","","","","","","","","","","","","","","","","","","","","","","","","",""
"2163","","<div style=""width:500px;"">
  <p>How would you describe your current emotional state?</p>
  </div>","80","html-slider-response","22","331339","0.0-5.0-3.2","15","1","2025-07-09 08:41:59","01610cd0009c79a99da7d0a3353eb402","109.154.178.14","Mozilla/5.0 (Macintosh; Intel Mac OS X 10_15_7) AppleWebKit/537.36 (KHTML, like Gecko) Chrome/137.0.0.0 Safari/537.36","Macintosh","Chrome","137.0.0.0","OS X","10_15_7","https://app.prolific.com/","en-GB,en-US;q=0.9,en;q=0.8","6760580745ecb73102f83f3d","683db7602f5db6a34d12d064","686e2a935e571afad09eaadc","1","6760580745ecb73102f83f3d","1","2025-07-09T08:47:32.196Z","","","","","","","","","","","StressQ","","50","","","","","","","","","","","","","","","","","","","","","","","","","","","","",""
"1986","","<div style=""width:500px;"">
  <p>What best describes how you currently feel?</p>
  </div>","64","html-slider-response","23","333326","0.0-5.0-4.2","15","1","2025-07-09 08:41:59","01610cd0009c79a99da7d0a3353eb402","109.154.178.14","Mozilla/5.0 (Macintosh; Intel Mac OS X 10_15_7) AppleWebKit/537.36 (KHTML, like Gecko) Chrome/137.0.0.0 Safari/537.36","Macintosh","Chrome","137.0.0.0","OS X","10_15_7","https://app.prolific.com/","en-GB,en-US;q=0.9,en;q=0.8","6760580745ecb73102f83f3d","683db7602f5db6a34d12d064","686e2a935e571afad09eaadc","1","6760580745ecb73102f83f3d","1","2025-07-09T08:47:34.184Z","","","","","","","","","","","MotivationQ","","50","","","","","","","","","","","","","","","","","","","","","","","","","","","","",""
"","","","","ctl-task-cpt","24","373994","0.0-5.0-0.3","15","1","2025-07-09 08:41:59","01610cd0009c79a99da7d0a3353eb402","109.154.178.14","Mozilla/5.0 (Macintosh; Intel Mac OS X 10_15_7) AppleWebKit/537.36 (KHTML, like Gecko) Chrome/137.0.0.0 Safari/537.36","Macintosh","Chrome","137.0.0.0","OS X","10_15_7","https://app.prolific.com/","en-GB,en-US;q=0.9,en;q=0.8","6760580745ecb73102f83f3d","683db7602f5db6a34d12d064","686e2a935e571afad09eaadc","1","6760580745ecb73102f83f3d","1","2025-07-09T08:48:14.851Z","","","","","","","","","","","","","","win-only","0","g1:NW,g2:SE","0.7","4","0","335261.5","1275.1","6276","37641.6","1","4","8","6","2","8","8","19","11","0.14393939393939395","1321.8","3000","635","[""down"",""right""]","{""num_key_presses"":8,""num_perfect"":5,""num_errors"":0,""num_randdir"":3,""num_randdir_good_moves"":2,""num_whilered"":0,""num_whileblue"":0,""num_blue"":3,""num_good_moves"":7}","[816,811.796875,0.1,816,811.796875,110.3,816,811.796875,211.3,816,811.796875,316.9,816,811.796875,420.9,1090,1125.796875,526.1,1090,1125.796875,627.4,1090,1125.796875,731.2,1190,1163.796875,831.3,1326,1293.796875,931.9,1356,1337.796875,1036,1380,1371.796875,1136.5,1384,1385.796875,1242.9,1386,1387.796875,1343.9,1386,1387.796875,1457.4,1386,1387.796875,1567.6,1386,1387.796875,1674.4,1970,919.796875,1786.2,1970,919.796875,1888,1970,919.796875,1994,1970,919.796875,2099.4,1970,919.796875,2207.6,1970,919.796875,2314.5,1970,919.796875,2421.9,1970,919.796875,2526.3,1970,919.796875,2637,1970,919.796875,2742.7,1970,919.796875,2850.2,1970,919.796875,2953.5,1970,919.796875,3056.3,1970,919.796875,3164.5,1970,919.796875,3274.4,1970,919.796875,3377.7,1970,919.796875,3480.3,1970,919.796875,3581,1970,919.796875,3681.2,1970,919.796875,3786.6,1970,919.796875,3896.6,1970,919.796875,3999.4,1970,919.796875,4106.6,1970,919.796875,4216.4,1970,919.796875,4320.5,1970,919.796875,4421.6,1970,919.796875,4525.6,1970,919.796875,4631.2,1970,919.796875,4743.4,1970,919.796875,4846.5,1970,919.796875,4953.6]","[8867.7,8867.7,2238.8,6104.9,524,""oops"",""right"",""right"",""good_move"",11593,2724.2,2207.6,8868.8,516.6,""smooth"",""right"",""right"",""good_move"",14024.4,2431.2,1854.9,11593.2,576.3,""oops"",""right"",""right"",""good_move"",16604.4,2579.9,2153.7,14024.5,426.2,""smooth"",""down"",""down"",""good_move"",19255.9,2651.2,2217.5,16604.7,433.7,""smooth"",""down"",""down"",""good_move"",21693.9,2437.7,1980.5,19256.2,457.2,""oops"",""down"",""left"",""bad_move"",27579.2,5884.9,1787.1,25397.8,394.3,""smooth"",""down"",""down"",""good_move"",31246.8,3667.4,3209.2,27579.4,458.2,""smooth"",""right"",""right"",""good_move""]","",""
"3129","","<div style=""width:500px;"">
  <p>What determined the result of this run?</p>
  </div>","65","html-slider-response","25","377124","0.0-5.0-1.3","15","1","2025-07-09 08:41:59","01610cd0009c79a99da7d0a3353eb402","109.154.178.14","Mozilla/5.0 (Macintosh; Intel Mac OS X 10_15_7) AppleWebKit/537.36 (KHTML, like Gecko) Chrome/137.0.0.0 Safari/537.36","Macintosh","Chrome","137.0.0.0","OS X","10_15_7","https://app.prolific.com/","en-GB,en-US;q=0.9,en;q=0.8","6760580745ecb73102f83f3d","683db7602f5db6a34d12d064","686e2a935e571afad09eaadc","1","6760580745ecb73102f83f3d","1","2025-07-09T08:48:17.981Z","","","","","","","","","","","AttribQ","","50","","","","","","","","","","","","","","","","","","","","","","","","","","","","",""
"6667","","<div style=""width:500px;"">
  <p>How much control did you have over the ball?</p>
  </div>","63","html-slider-response","26","383791","0.0-5.0-2.3","15","1","2025-07-09 08:41:59","01610cd0009c79a99da7d0a3353eb402","109.154.178.14","Mozilla/5.0 (Macintosh; Intel Mac OS X 10_15_7) AppleWebKit/537.36 (KHTML, like Gecko) Chrome/137.0.0.0 Safari/537.36","Macintosh","Chrome","137.0.0.0","OS X","10_15_7","https://app.prolific.com/","en-GB,en-US;q=0.9,en;q=0.8","6760580745ecb73102f83f3d","683db7602f5db6a34d12d064","686e2a935e571afad09eaadc","1","6760580745ecb73102f83f3d","1","2025-07-09T08:48:24.649Z","","","","","","","","","","","ControlQ","","50","","","","","","","","","","","","","","","","","","","","","","","","","","","","",""
"3950","","<div style=""width:500px;"">
  <p>How would you describe your current emotional state?</p>
  </div>","64","html-slider-response","27","387743","0.0-5.0-3.3","15","1","2025-07-09 08:41:59","01610cd0009c79a99da7d0a3353eb402","109.154.178.14","Mozilla/5.0 (Macintosh; Intel Mac OS X 10_15_7) AppleWebKit/537.36 (KHTML, like Gecko) Chrome/137.0.0.0 Safari/537.36","Macintosh","Chrome","137.0.0.0","OS X","10_15_7","https://app.prolific.com/","en-GB,en-US;q=0.9,en;q=0.8","6760580745ecb73102f83f3d","683db7602f5db6a34d12d064","686e2a935e571afad09eaadc","1","6760580745ecb73102f83f3d","1","2025-07-09T08:48:28.600Z","","","","","","","","","","","StressQ","","50","","","","","","","","","","","","","","","","","","","","","","","","","","","","",""
"3536","","<div style=""width:500px;"">
  <p>What best describes how you currently feel?</p>
  </div>","70","html-slider-response","28","391281","0.0-5.0-4.3","15","1","2025-07-09 08:41:59","01610cd0009c79a99da7d0a3353eb402","109.154.178.14","Mozilla/5.0 (Macintosh; Intel Mac OS X 10_15_7) AppleWebKit/537.36 (KHTML, like Gecko) Chrome/137.0.0.0 Safari/537.36","Macintosh","Chrome","137.0.0.0","OS X","10_15_7","https://app.prolific.com/","en-GB,en-US;q=0.9,en;q=0.8","6760580745ecb73102f83f3d","683db7602f5db6a34d12d064","686e2a935e571afad09eaadc","1","6760580745ecb73102f83f3d","1","2025-07-09T08:48:32.139Z","","","","","","","","","","","MotivationQ","","50","","","","","","","","","","","","","","","","","","","","","","","","","","","","",""
"","","","","ctl-task-cpt","29","438127","0.0-5.0-0.4","15","1","2025-07-09 08:41:59","01610cd0009c79a99da7d0a3353eb402","109.154.178.14","Mozilla/5.0 (Macintosh; Intel Mac OS X 10_15_7) AppleWebKit/537.36 (KHTML, like Gecko) Chrome/137.0.0.0 Safari/537.36","Macintosh","Chrome","137.0.0.0","OS X","10_15_7","https://app.prolific.com/","en-GB,en-US;q=0.9,en;q=0.8","6760580745ecb73102f83f3d","683db7602f5db6a34d12d064","686e2a935e571afad09eaadc","1","6760580745ecb73102f83f3d","1","2025-07-09T08:49:18.984Z","","","","","","","","","","","","","","win-only","3","g1:SW,g2:NE","0.6","5","0","393218.2","3928.2","8941.2","43825.3","1","4","8","6","2","-8","-8","11","19","0.08333333333333333","943.8","3000","-1425","[""up"",""right""]","{""num_key_presses"":12,""num_perfect"":6,""num_errors"":0,""num_randdir"":6,""num_randdir_good_moves"":2,""num_whilered"":0,""num_whileblue"":0,""num_blue"":0,""num_good_moves"":7}","[814,805.796875,0.2,814,805.796875,110.1,814,805.796875,212.5,814,805.796875,314.7,814,805.796875,418.6,1666,89.796875,530.6,1666,89.796875,635,1640,89.796875,741.8,1484,111.796875,842.2,1478,113.796875,954.1,1478,113.796875,1061.3,1478,113.796875,1175.7,1478,113.796875,1283.6,1638,115.796875,1389.9,2488,-204.203125,1493.3,2488,-204.203125,1604,2488,-204.203125,1704.4,2488,-204.203125,1809.4,2488,-204.203125,1912,2488,-204.203125,2013.2,2488,-204.203125,2119.8,2488,-204.203125,2226.5,2488,-204.203125,2334.3,2488,-204.203125,2434.3,2488,-204.203125,2541,2488,-204.203125,2642.1,2488,-204.203125,2746.4,2488,-204.203125,2846.5,2488,-204.203125,2950.1,2488,-204.203125,3051,2488,-204.203125,3153.5,2488,-204.203125,3257.1,2488,-204.203125,3375.4,2488,-204.203125,3476,2488,-204.203125,3585.3,2488,-204.203125,3693.1,2488,-204.203125,3806.8,2488,-204.203125,3908.2,2488,-204.203125,4037.4,2488,-204.203125,4139.2,2488,-204.203125,4250.8,2488,-204.203125,4357,2488,-204.203125,4461.1,2488,-204.203125,4567.3,2488,-204.203125,4686.5,2488,-204.203125,4794.2,2488,-204.203125,4900.3]","[1494.2,1494.3,1000,0,494.3,""smooth"",""up"",""up"",""good_move"",4332,2837.4,2356,1494.6,481.4,""oops"",""up"",""up"",""good_move"",7606.4,3274,2907.7,4332.4,366.3,""oops"",""up"",""left"",""bad_move"",9907.2,2300.5,1749.4,7606.7,551.1,""smooth"",""up"",""up"",""good_move"",12268,2360.6,1955.3,9907.4,405.3,""smooth"",""right"",""right"",""good_move"",14919.2,2650.8,2226.4,12268.4,424.4,""smooth"",""right"",""right"",""good_move"",18303.1,3383.6,2927.8,14919.5,455.8,""oops"",""right"",""right"",""good_move"",21802,3498.7,3111.3,18303.3,387.4,""smooth"",""down"",""down"",""bad_move"",25143.3,3340.7,2207.9,21802.7,1132.8,""smooth"",""up"",""up"",""good_move"",27865.6,2721.8,2332.3,25143.9,389.5,""oops"",""right"",""down"",""bad_move"",30563.2,2697.2,2328.6,27866,368.6,""oops"",""up"",""down"",""bad_move"",33093.1,2529.7,2087.2,30563.4,442.5,""oops"",""up"",""down"",""bad_move""]","",""
"3778","","<div style=""width:500px;"">
  <p>What determined the result of this run?</p>
  </div>","14","html-slider-response","30","441906","0.0-5.0-1.4","15","1","2025-07-09 08:41:59","01610cd0009c79a99da7d0a3353eb402","109.154.178.14","Mozilla/5.0 (Macintosh; Intel Mac OS X 10_15_7) AppleWebKit/537.36 (KHTML, like Gecko) Chrome/137.0.0.0 Safari/537.36","Macintosh","Chrome","137.0.0.0","OS X","10_15_7","https://app.prolific.com/","en-GB,en-US;q=0.9,en;q=0.8","6760580745ecb73102f83f3d","683db7602f5db6a34d12d064","686e2a935e571afad09eaadc","1","6760580745ecb73102f83f3d","1","2025-07-09T08:49:22.763Z","","","","","","","","","","","AttribQ","","50","","","","","","","","","","","","","","","","","","","","","","","","","","","","",""
"2784","","<div style=""width:500px;"">
  <p>How much control did you have over the ball?</p>
  </div>","21","html-slider-response","31","444691","0.0-5.0-2.4","15","1","2025-07-09 08:41:59","01610cd0009c79a99da7d0a3353eb402","109.154.178.14","Mozilla/5.0 (Macintosh; Intel Mac OS X 10_15_7) AppleWebKit/537.36 (KHTML, like Gecko) Chrome/137.0.0.0 Safari/537.36","Macintosh","Chrome","137.0.0.0","OS X","10_15_7","https://app.prolific.com/","en-GB,en-US;q=0.9,en;q=0.8","6760580745ecb73102f83f3d","683db7602f5db6a34d12d064","686e2a935e571afad09eaadc","1","6760580745ecb73102f83f3d","1","2025-07-09T08:49:25.548Z","","","","","","","","","","","ControlQ","","50","","","","","","","","","","","","","","","","","","","","","","","","","","","","",""
"2030","","<div style=""width:500px;"">
  <p>How would you describe your current emotional state?</p>
  </div>","85","html-slider-response","32","446721","0.0-5.0-3.4","15","1","2025-07-09 08:41:59","01610cd0009c79a99da7d0a3353eb402","109.154.178.14","Mozilla/5.0 (Macintosh; Intel Mac OS X 10_15_7) AppleWebKit/537.36 (KHTML, like Gecko) Chrome/137.0.0.0 Safari/537.36","Macintosh","Chrome","137.0.0.0","OS X","10_15_7","https://app.prolific.com/","en-GB,en-US;q=0.9,en;q=0.8","6760580745ecb73102f83f3d","683db7602f5db6a34d12d064","686e2a935e571afad09eaadc","1","6760580745ecb73102f83f3d","1","2025-07-09T08:49:27.578Z","","","","","","","","","","","StressQ","","50","","","","","","","","","","","","","","","","","","","","","","","","","","","","",""
"15855","","<div style=""width:500px;"">
  <p>What best describes how you currently feel?</p>
  </div>","64","html-slider-response","33","462577","0.0-5.0-4.4","15","1","2025-07-09 08:41:59","01610cd0009c79a99da7d0a3353eb402","109.154.178.14","Mozilla/5.0 (Macintosh; Intel Mac OS X 10_15_7) AppleWebKit/537.36 (KHTML, like Gecko) Chrome/137.0.0.0 Safari/537.36","Macintosh","Chrome","137.0.0.0","OS X","10_15_7","https://app.prolific.com/","en-GB,en-US;q=0.9,en;q=0.8","6760580745ecb73102f83f3d","683db7602f5db6a34d12d064","686e2a935e571afad09eaadc","1","6760580745ecb73102f83f3d","1","2025-07-09T08:49:43.434Z","","","","","","","","","","","MotivationQ","","50","","","","","","","","","","","","","","","","","","","","","","","","","","","","",""
"","","","","ctl-task-cpt","34","534556","0.0-5.0-0.5","15","1","2025-07-09 08:41:59","01610cd0009c79a99da7d0a3353eb402","109.154.178.14","Mozilla/5.0 (Macintosh; Intel Mac OS X 10_15_7) AppleWebKit/537.36 (KHTML, like Gecko) Chrome/137.0.0.0 Safari/537.36","Macintosh","Chrome","137.0.0.0","OS X","10_15_7","https://app.prolific.com/","en-GB,en-US;q=0.9,en;q=0.8","6760580745ecb73102f83f3d","683db7602f5db6a34d12d064","686e2a935e571afad09eaadc","1","6760580745ecb73102f83f3d","1","2025-07-09T08:50:55.413Z","","","","","","","","","","","","","","win-only","2","g1:SE,g2:NW","0.5","6","0","464514.7","1493.5","6495.1","68955","1","4","4","6","2","-4","-4","7","11","0.05303030303030303","1415.4","3000","-1260","[""left"",""up""]","{""num_key_presses"":17,""num_perfect"":8,""num_errors"":0,""num_randdir"":9,""num_randdir_good_moves"":2,""num_whilered"":0,""num_whileblue"":0,""num_blue"":3,""num_good_moves"":10}","[810,801.796875,0.1,810,801.796875,101,810,801.796875,201.3,810,801.796875,314.6,784,809.796875,417.6,550,659.796875,517.7,526,569.796875,621.7,526,569.796875,722.9,288,425.796875,833,166,231.796875,936.9,160,223.796875,1038.2,158,219.796875,1141.4,140,203.796875,1249.1,102,179.796875,1361.9,102,179.796875,1464.2,102,179.796875,1570.7,102,179.796875,1673.5,42,251.796875,1778.4,-242,695.796875,1880.3,-242,695.796875,1984.4,-242,695.796875,2102.7,-242,695.796875,2208.4,-242,695.796875,2309.7,-242,695.796875,2415.6,-242,695.796875,2522.6,-242,695.796875,2623,-242,695.796875,2735.9,-242,695.796875,2840.8,-242,695.796875,2968.9,-242,695.796875,3079.9,-242,695.796875,3180,-242,695.796875,3289.7,-242,695.796875,3402.6,-242,695.796875,3503.1,-242,695.796875,3626.6,-242,695.796875,3732.3,-242,695.796875,3843,-242,695.796875,3947.8,-242,695.796875,4048.1,-242,695.796875,4149.7,-242,695.796875,4258.7,-242,695.796875,4365.9,-242,695.796875,4471.3,-242,695.796875,4572.8,-242,695.796875,4677.8,-242,695.796875,4780.5,-242,695.796875,4883]","[1408.8,1408.8,1000,0,408.8,""smooth"",""up"",""up"",""good_move"",4519.3,3110.2,2724.8,1409.1,385.4,""smooth"",""up"",""up"",""good_move"",7219.6,2700.1,1941.9,4519.5,758.2,""smooth"",""up"",""up"",""good_move"",10075.4,2855.7,2434.8,7219.7,420.9,""smooth"",""left"",""left"",""good_move"",13099,3023.1,2634,10075.9,389.1,""smooth"",""left"",""left"",""good_move"",20546.9,7447.8,3120.6,16975.5,450.9,""oops"",""left"",""right"",""bad_move"",23352.4,2805.2,2328.9,20547.2,476.3,""oops"",""left"",""right"",""bad_move"",26427.9,3075.3,2701.2,23352.7,374.1,""oops"",""left"",""right"",""bad_move"",29214,2785.4,2446.4,26428.6,339,""oops"",""left"",""right"",""bad_move"",32571.4,3357.3,2957.9,29214.1,399.4,""oops"",""left"",""up"",""good_move"",35236.1,2664.2,2269.2,32572,394.9,""smooth"",""left"",""left"",""good_move"",45339.4,10102.9,2622.8,42315.8,400.8,""smooth"",""left"",""left"",""good_move"",48870.4,3530.8,2929.4,45339.6,601.4,""oops"",""left"",""right"",""bad_move"",51622.8,2752.1,2374.3,48870.7,377.8,""oops"",""left"",""left"",""good_move"",54387.9,2764.7,2438.9,51623.2,325.8,""oops"",""left"",""down"",""bad_move"",57274.1,2885.9,2530.9,54388.2,355,""oops"",""left"",""down"",""bad_move"",59664,2389.8,2033.3,57274.3,356.4,""smooth"",""left"",""left"",""good_move""]","",""
"2982","","<div style=""width:500px;"">
  <p>What determined the result of this run?</p>
  </div>","16","html-slider-response","35","537540","0.0-5.0-1.5","15","1","2025-07-09 08:41:59","01610cd0009c79a99da7d0a3353eb402","109.154.178.14","Mozilla/5.0 (Macintosh; Intel Mac OS X 10_15_7) AppleWebKit/537.36 (KHTML, like Gecko) Chrome/137.0.0.0 Safari/537.36","Macintosh","Chrome","137.0.0.0","OS X","10_15_7","https://app.prolific.com/","en-GB,en-US;q=0.9,en;q=0.8","6760580745ecb73102f83f3d","683db7602f5db6a34d12d064","686e2a935e571afad09eaadc","1","6760580745ecb73102f83f3d","1","2025-07-09T08:50:58.397Z","","","","","","","","","","","AttribQ","","50","","","","","","","","","","","","","","","","","","","","","","","","","","","","",""
"2719","","<div style=""width:500px;"">
  <p>How much control did you have over the ball?</p>
  </div>","9","html-slider-response","36","540260","0.0-5.0-2.5","15","1","2025-07-09 08:41:59","01610cd0009c79a99da7d0a3353eb402","109.154.178.14","Mozilla/5.0 (Macintosh; Intel Mac OS X 10_15_7) AppleWebKit/537.36 (KHTML, like Gecko) Chrome/137.0.0.0 Safari/537.36","Macintosh","Chrome","137.0.0.0","OS X","10_15_7","https://app.prolific.com/","en-GB,en-US;q=0.9,en;q=0.8","6760580745ecb73102f83f3d","683db7602f5db6a34d12d064","686e2a935e571afad09eaadc","1","6760580745ecb73102f83f3d","1","2025-07-09T08:51:01.117Z","","","","","","","","","","","ControlQ","","50","","","","","","","","","","","","","","","","","","","","","","","","","","","","",""
"2961","","<div style=""width:500px;"">
  <p>How would you describe your current emotional state?</p>
  </div>","90","html-slider-response","37","543224","0.0-5.0-3.5","15","1","2025-07-09 08:41:59","01610cd0009c79a99da7d0a3353eb402","109.154.178.14","Mozilla/5.0 (Macintosh; Intel Mac OS X 10_15_7) AppleWebKit/537.36 (KHTML, like Gecko) Chrome/137.0.0.0 Safari/537.36","Macintosh","Chrome","137.0.0.0","OS X","10_15_7","https://app.prolific.com/","en-GB,en-US;q=0.9,en;q=0.8","6760580745ecb73102f83f3d","683db7602f5db6a34d12d064","686e2a935e571afad09eaadc","1","6760580745ecb73102f83f3d","1","2025-07-09T08:51:04.081Z","","","","","","","","","","","StressQ","","50","","","","","","","","","","","","","","","","","","","","","","","","","","","","",""
"3780","","<div style=""width:500px;"">
  <p>What best describes how you currently feel?</p>
  </div>","42","html-slider-response","38","547006","0.0-5.0-4.5","15","1","2025-07-09 08:41:59","01610cd0009c79a99da7d0a3353eb402","109.154.178.14","Mozilla/5.0 (Macintosh; Intel Mac OS X 10_15_7) AppleWebKit/537.36 (KHTML, like Gecko) Chrome/137.0.0.0 Safari/537.36","Macintosh","Chrome","137.0.0.0","OS X","10_15_7","https://app.prolific.com/","en-GB,en-US;q=0.9,en;q=0.8","6760580745ecb73102f83f3d","683db7602f5db6a34d12d064","686e2a935e571afad09eaadc","1","6760580745ecb73102f83f3d","1","2025-07-09T08:51:07.863Z","","","","","","","","","","","MotivationQ","","50","","","","","","","","","","","","","","","","","","","","","","","","","","","","",""
"","","","","ctl-task-cpt","39","601778","0.0-5.0-0.6","15","1","2025-07-09 08:41:59","01610cd0009c79a99da7d0a3353eb402","109.154.178.14","Mozilla/5.0 (Macintosh; Intel Mac OS X 10_15_7) AppleWebKit/537.36 (KHTML, like Gecko) Chrome/137.0.0.0 Safari/537.36","Macintosh","Chrome","137.0.0.0","OS X","10_15_7","https://app.prolific.com/","en-GB,en-US;q=0.9,en;q=0.8","6760580745ecb73102f83f3d","683db7602f5db6a34d12d064","686e2a935e571afad09eaadc","1","6760580745ecb73102f83f3d","1","2025-07-09T08:52:02.635Z","","","","","","","","","","","","","","win-only","3","g1:SW,g2:NE","0.4","7","0","548946.3","948.5","5965.3","51750.5","1","4","4","6","1","1","1","8","7","0.06060606060606061","1082","3000","920","[""down"",""left""]","{""num_key_presses"":12,""num_perfect"":6,""num_errors"":0,""num_randdir"":6,""num_randdir_good_moves"":2,""num_whilered"":0,""num_whileblue"":0,""num_blue"":3,""num_good_moves"":8}","[812,801.796875,0.2,812,801.796875,100.3,812,801.796875,211.7,812,801.796875,314.7,812,801.796875,415.4,850,749.796875,526.1,730,885.796875,637.2,264,1577.796875,742.1,264,1577.796875,843.4,196,1567.796875,949.6,140,1545.796875,1061.1,140,1545.796875,1162.6,140,1545.796875,1273.5,92,1543.796875,1378.6,-454,1489.796875,1490.5,-454,1489.796875,1591,-454,1489.796875,1699.1,-454,1489.796875,1800.1,-454,1489.796875,1917.8,-454,1489.796875,2026.1,-454,1489.796875,2155.5,-454,1489.796875,2262.3,-454,1489.796875,2366.8,-454,1489.796875,2487,-454,1489.796875,2594.9,-454,1489.796875,2697.1,-454,1489.796875,2804,-454,1489.796875,2915.3,-454,1489.796875,3029.3,-454,1489.796875,3138.3,-454,1489.796875,3245.7,-454,1489.796875,3358.7,-454,1489.796875,3462.1,-454,1489.796875,3580,-454,1489.796875,3694.7,-454,1489.796875,3808.3,-454,1489.796875,3913.7,-454,1489.796875,4026.5,-454,1489.796875,4141.1,-454,1489.796875,4255,-454,1489.796875,4370.4,-454,1489.796875,4477.9,-454,1489.796875,4596.7,-454,1489.796875,4697.9,-454,1489.796875,4806.5,-454,1489.796875,4910.9]","[4198.9,4198.9,1678.9,2028.6,491.4,""oops"",""left"",""up"",""bad_move"",6994.3,2795.1,2391.1,4199.2,404,""smooth"",""down"",""down"",""good_move"",13914.7,6920.1,2671.7,10744.5,498.5,""oops"",""down"",""up"",""bad_move"",16595.7,2680,2193,13915.7,487,""smooth"",""down"",""down"",""good_move"",19861.7,3265.8,2894,16595.9,371.8,""oops"",""down"",""left"",""good_move"",22995.1,3133.1,2724.1,19862,409,""oops"",""down"",""right"",""bad_move"",26755.8,3760.3,3348.8,22995.5,411.5,""oops"",""down"",""up"",""bad_move"",29325.4,2569.1,2056.1,26756.3,513,""oops"",""down"",""left"",""good_move"",32845.4,3519.8,3063.5,29325.6,456.3,""smooth"",""down"",""down"",""good_move"",39569.4,6723.3,3427.7,35690.1,451.6,""smooth"",""down"",""down"",""good_move"",42376.4,2806.5,2340.8,39569.9,465.7,""smooth"",""down"",""down"",""good_move"",45533,3156.5,2746.5,42376.6,410,""smooth"",""left"",""left"",""good_move""]","",""
"5648","","<div style=""width:500px;"">
  <p>What determined the result of this run?</p>
  </div>","66","html-slider-response","40","607426","0.0-5.0-1.6","15","1","2025-07-09 08:41:59","01610cd0009c79a99da7d0a3353eb402","109.154.178.14","Mozilla/5.0 (Macintosh; Intel Mac OS X 10_15_7) AppleWebKit/537.36 (KHTML, like Gecko) Chrome/137.0.0.0 Safari/537.36","Macintosh","Chrome","137.0.0.0","OS X","10_15_7","https://app.prolific.com/","en-GB,en-US;q=0.9,en;q=0.8","6760580745ecb73102f83f3d","683db7602f5db6a34d12d064","686e2a935e571afad09eaadc","1","6760580745ecb73102f83f3d","1","2025-07-09T08:52:08.283Z","","","","","","","","","","","AttribQ","","50","","","","","","","","","","","","","","","","","","","","","","","","","","","","",""
"3067","","<div style=""width:500px;"">
  <p>How much control did you have over the ball?</p>
  </div>","42","html-slider-response","41","610495","0.0-5.0-2.6","15","1","2025-07-09 08:41:59","01610cd0009c79a99da7d0a3353eb402","109.154.178.14","Mozilla/5.0 (Macintosh; Intel Mac OS X 10_15_7) AppleWebKit/537.36 (KHTML, like Gecko) Chrome/137.0.0.0 Safari/537.36","Macintosh","Chrome","137.0.0.0","OS X","10_15_7","https://app.prolific.com/","en-GB,en-US;q=0.9,en;q=0.8","6760580745ecb73102f83f3d","683db7602f5db6a34d12d064","686e2a935e571afad09eaadc","1","6760580745ecb73102f83f3d","1","2025-07-09T08:52:11.352Z","","","","","","","","","","","ControlQ","","50","","","","","","","","","","","","","","","","","","","","","","","","","","","","",""
"1902","","<div style=""width:500px;"">
  <p>How would you describe your current emotional state?</p>
  </div>","65","html-slider-response","42","612398","0.0-5.0-3.6","15","1","2025-07-09 08:41:59","01610cd0009c79a99da7d0a3353eb402","109.154.178.14","Mozilla/5.0 (Macintosh; Intel Mac OS X 10_15_7) AppleWebKit/537.36 (KHTML, like Gecko) Chrome/137.0.0.0 Safari/537.36","Macintosh","Chrome","137.0.0.0","OS X","10_15_7","https://app.prolific.com/","en-GB,en-US;q=0.9,en;q=0.8","6760580745ecb73102f83f3d","683db7602f5db6a34d12d064","686e2a935e571afad09eaadc","1","6760580745ecb73102f83f3d","1","2025-07-09T08:52:13.256Z","","","","","","","","","","","StressQ","","50","","","","","","","","","","","","","","","","","","","","","","","","","","","","",""
"3597","","<div style=""width:500px;"">
  <p>What best describes how you currently feel?</p>
  </div>","60","html-slider-response","43","615998","0.0-5.0-4.6","15","1","2025-07-09 08:41:59","01610cd0009c79a99da7d0a3353eb402","109.154.178.14","Mozilla/5.0 (Macintosh; Intel Mac OS X 10_15_7) AppleWebKit/537.36 (KHTML, like Gecko) Chrome/137.0.0.0 Safari/537.36","Macintosh","Chrome","137.0.0.0","OS X","10_15_7","https://app.prolific.com/","en-GB,en-US;q=0.9,en;q=0.8","6760580745ecb73102f83f3d","683db7602f5db6a34d12d064","686e2a935e571afad09eaadc","1","6760580745ecb73102f83f3d","1","2025-07-09T08:52:16.856Z","","","","","","","","","","","MotivationQ","","50","","","","","","","","","","","","","","","","","","","","","","","","","","","","",""
"","","","","ctl-task-cpt","44","718518","0.0-5.0-0.7","15","1","2025-07-09 08:41:59","01610cd0009c79a99da7d0a3353eb402","109.154.178.14","Mozilla/5.0 (Macintosh; Intel Mac OS X 10_15_7) AppleWebKit/537.36 (KHTML, like Gecko) Chrome/137.0.0.0 Safari/537.36","Macintosh","Chrome","137.0.0.0","OS X","10_15_7","https://app.prolific.com/","en-GB,en-US;q=0.9,en;q=0.8","6760580745ecb73102f83f3d","683db7602f5db6a34d12d064","686e2a935e571afad09eaadc","1","6760580745ecb73102f83f3d","1","2025-07-09T08:53:59.375Z","","","","","","","","","","","","","","win-only","1","g1:NE,g2:SW","0.3","8","0","617944","1642.8","6650.7","99504.4","1","4","8","6","2","-8","-9","0","8","0","921.8","3000","-1020","[""down"",""left""]","{""num_key_presses"":22,""num_perfect"":6,""num_errors"":1,""num_randdir"":15,""num_randdir_good_moves"":6,""num_whilered"":0,""num_whileblue"":0,""num_blue"":7,""num_good_moves"":12}","[812,805.796875,0.1,812,805.796875,104.7,812,805.796875,210.8,812,805.796875,324.3,790,819.796875,435.1,204,1587.796875,541,200,1597.796875,659.4,162,1575.796875,763.8,138,1499.796875,869.9,138,1499.796875,971.5,138,1499.796875,1075.1,138,1499.796875,1193.3,-70,1561.796875,1299.4,-266,1599.796875,1403.8,-266,1599.796875,1508.2,-266,1599.796875,1608.5,-266,1599.796875,1719.3,-266,1599.796875,1821.6,-266,1599.796875,1940.5,-266,1599.796875,2047.4,-266,1599.796875,2152.3,-266,1599.796875,2254.3,-266,1599.796875,2372.8,-266,1599.796875,2475.1,-266,1599.796875,2578.3,-266,1599.796875,2686.2,-266,1599.796875,2789.9,-266,1599.796875,2899.1,-266,1599.796875,3008.4,-266,1599.796875,3110.4,-266,1599.796875,3232.9,-266,1599.796875,3334.9,-266,1599.796875,3442.5,-266,1599.796875,3546.6,-266,1599.796875,3652.6,-266,1599.796875,3763.2,-266,1599.796875,3871.8,-266,1599.796875,3977.9,-266,1599.796875,4093,-266,1599.796875,4197.6,-266,1599.796875,4299.2,-266,1599.796875,4417.6,-266,1599.796875,4524.1,-266,1599.796875,4629.8,-266,1599.796875,4745.4,-266,1599.796875,4847.4,-266,1599.796875,4952.9]","[1438,1438,1000,0,438,""oops"",""down"",""down"",""good_move"",4299.7,2860.7,2486.3,1439,374.4,""smooth"",""down"",""down"",""good_move"",6985.7,2685.8,2292,4300,393.7,""smooth"",""down"",""down"",""good_move"",16994.1,10008.3,2278.6,14283.4,432.1,""oops"",""left"",""left"",""good_move"",19809,2814.6,1970.1,16994.4,844.5,""oops"",""left"",""up"",""bad_move"",26445.6,6635.8,2425.7,23630.6,389.3,""oops"",""left"",""up"",""bad_move"",30473.6,4027.8,3381.1,26445.8,646.7,""smooth"",""down"",""down"",""good_move"",33020.2,2546.5,2079.8,30473.8,466.7,""oops"",""down"",""down"",""good_move"",36314.1,3293.4,2876.3,33020.7,417.1,""oops"",""left"",""right"",""bad_move"",46246.8,9932.4,2273.7,43458.4,514.7,""oops"",""left"",""up"",""bad_move"",49180.3,2933.1,2461.1,46247.2,472,""smooth"",""left"",""left"",""good_move"",52046.3,2865.2,2479.3,49181.1,385.9,""oops"",""left"",""down"",""good_move"",58496.1,6449.6,2331.3,55751.9,412.9,""smooth"",""left"",""left"",""good_move"",61337,2840.7,2354.8,58496.3,486,""oops"",""left"",""up"",""bad_move"",64763,3425.6,3041.3,61337.4,384.3,""oops"",""left"",""up"",""bad_move"",70614.7,5851.6,2647.8,68068.5,-101.6,""error"",""-"",""-"",""no_move"",74940.9,4325.7,2862.4,71616.6,461.9,""oops"",""down"",""right"",""bad_move"",77885.9,2944.6,2541.8,74941.3,402.8,""smooth"",""down"",""down"",""good_move"",80528.2,2642.1,2246.7,77886.1,395.4,""oops"",""down"",""down"",""good_move"",83601.3,3072.9,2679.1,80528.4,393.8,""oops"",""left"",""right"",""bad_move"",86644.8,3043.3,2676.2,83601.5,367.1,""oops"",""left"",""up"",""bad_move"",89520.4,2875.4,2494.9,86645,380.5,""oops"",""left"",""down"",""good_move""]","",""
"2717","","<div style=""width:500px;"">
  <p>What determined the result of this run?</p>
  </div>","0","html-slider-response","45","721236","0.0-5.0-1.7","15","1","2025-07-09 08:41:59","01610cd0009c79a99da7d0a3353eb402","109.154.178.14","Mozilla/5.0 (Macintosh; Intel Mac OS X 10_15_7) AppleWebKit/537.36 (KHTML, like Gecko) Chrome/137.0.0.0 Safari/537.36","Macintosh","Chrome","137.0.0.0","OS X","10_15_7","https://app.prolific.com/","en-GB,en-US;q=0.9,en;q=0.8","6760580745ecb73102f83f3d","683db7602f5db6a34d12d064","686e2a935e571afad09eaadc","1","6760580745ecb73102f83f3d","1","2025-07-09T08:54:02.093Z","","","","","","","","","","","AttribQ","","50","","","","","","","","","","","","","","","","","","","","","","","","","","","","",""
"3301","","<div style=""width:500px;"">
  <p>How much control did you have over the ball?</p>
  </div>","0","html-slider-response","46","724538","0.0-5.0-2.7","15","1","2025-07-09 08:41:59","01610cd0009c79a99da7d0a3353eb402","109.154.178.14","Mozilla/5.0 (Macintosh; Intel Mac OS X 10_15_7) AppleWebKit/537.36 (KHTML, like Gecko) Chrome/137.0.0.0 Safari/537.36","Macintosh","Chrome","137.0.0.0","OS X","10_15_7","https://app.prolific.com/","en-GB,en-US;q=0.9,en;q=0.8","6760580745ecb73102f83f3d","683db7602f5db6a34d12d064","686e2a935e571afad09eaadc","1","6760580745ecb73102f83f3d","1","2025-07-09T08:54:05.395Z","","","","","","","","","","","ControlQ","","50","","","","","","","","","","","","","","","","","","","","","","","","","","","","",""
"1620","","<div style=""width:500px;"">
  <p>How would you describe your current emotional state?</p>
  </div>","96","html-slider-response","47","726159","0.0-5.0-3.7","15","1","2025-07-09 08:41:59","01610cd0009c79a99da7d0a3353eb402","109.154.178.14","Mozilla/5.0 (Macintosh; Intel Mac OS X 10_15_7) AppleWebKit/537.36 (KHTML, like Gecko) Chrome/137.0.0.0 Safari/537.36","Macintosh","Chrome","137.0.0.0","OS X","10_15_7","https://app.prolific.com/","en-GB,en-US;q=0.9,en;q=0.8","6760580745ecb73102f83f3d","683db7602f5db6a34d12d064","686e2a935e571afad09eaadc","1","6760580745ecb73102f83f3d","1","2025-07-09T08:54:07.016Z","","","","","","","","","","","StressQ","","50","","","","","","","","","","","","","","","","","","","","","","","","","","","","",""
"1999","","<div style=""width:500px;"">
  <p>What best describes how you currently feel?</p>
  </div>","14","html-slider-response","48","728159","0.0-5.0-4.7","15","1","2025-07-09 08:41:59","01610cd0009c79a99da7d0a3353eb402","109.154.178.14","Mozilla/5.0 (Macintosh; Intel Mac OS X 10_15_7) AppleWebKit/537.36 (KHTML, like Gecko) Chrome/137.0.0.0 Safari/537.36","Macintosh","Chrome","137.0.0.0","OS X","10_15_7","https://app.prolific.com/","en-GB,en-US;q=0.9,en;q=0.8","6760580745ecb73102f83f3d","683db7602f5db6a34d12d064","686e2a935e571afad09eaadc","1","6760580745ecb73102f83f3d","1","2025-07-09T08:54:09.016Z","","","","","","","","","","","MotivationQ","","50","","","","","","","","","","","","","","","","","","","","","","","","","","","","",""
"","","","","ctl-task-cpt","49","788606","0.0-5.0-0.8","15","1","2025-07-09 08:41:59","01610cd0009c79a99da7d0a3353eb402","109.154.178.14","Mozilla/5.0 (Macintosh; Intel Mac OS X 10_15_7) AppleWebKit/537.36 (KHTML, like Gecko) Chrome/137.0.0.0 Safari/537.36","Macintosh","Chrome","137.0.0.0","OS X","10_15_7","https://app.prolific.com/","en-GB,en-US;q=0.9,en;q=0.8","6760580745ecb73102f83f3d","683db7602f5db6a34d12d064","686e2a935e571afad09eaadc","1","6760580745ecb73102f83f3d","1","2025-07-09T08:55:09.463Z","","","","","","","","","","","","","","win-only","1","g1:NE,g2:SW","0.2","9","0","730105.8","1028","6040.7","57420.5","1","4","4","6","1","1","1","1","0","0.007575757575757576","1582.3","3000","1305","[""up"",""right""]","{""num_key_presses"":12,""num_perfect"":4,""num_errors"":0,""num_randdir"":8,""num_randdir_good_moves"":4,""num_whilered"":0,""num_whileblue"":0,""num_blue"":5,""num_good_moves"":8}","[804,809.796875,0.5,804,809.796875,115.6,804,809.796875,220,804,809.796875,334.3,804,809.796875,442.6,804,809.796875,546.3,572,1007.796875,646.6,336,1249.796875,754.9,336,1249.796875,871.8,484,1111.796875,989.6,1160,417.796875,1091.3,1160,417.796875,1194.8,1272,331.796875,1302.5,1488,199.796875,1412.9,1500,181.796875,1532.9,1500,173.796875,1648.2,1500,173.796875,1763.5,1500,173.796875,1869.2,1500,173.796875,1972.5,1500,173.796875,2084.4,1500,173.796875,2195.8,1500,173.796875,2301.4,1500,173.796875,2404.2,1500,173.796875,2517.8,1500,173.796875,2636,1500,173.796875,2746.8,1500,173.796875,2864,1500,173.796875,2964,1500,173.796875,3078.9,1500,173.796875,3182.4,1500,173.796875,3302.7,1500,173.796875,3409.9,1500,173.796875,3523,1500,173.796875,3634.2,1500,173.796875,3781.3,1500,173.796875,3890.7,1500,173.796875,4003.1,1500,173.796875,4116.6,1500,173.796875,4219.9,1500,173.796875,4328.6,1500,173.796875,4438.2,1500,173.796875,4548.3,1500,173.796875,4669.4,1500,173.796875,4785.6,1500,173.796875,4887.8,1500,173.796875,4997.8]","[12528.2,12528.2,2245.8,9832.5,449.9,""oops"",""up"",""right"",""good_move"",15360.9,2831.8,2413.5,12529.1,418.3,""oops"",""up"",""down"",""bad_move"",18253.8,2892.7,2473.8,15361.1,418.9,""oops"",""up"",""down"",""bad_move"",21673.1,3419,2722,18254.1,697,""oops"",""right"",""right"",""good_move"",24432.5,2759.2,2312.7,21673.3,446.5,""smooth"",""up"",""up"",""good_move"",27416.6,2983.8,2557.5,24432.8,426.3,""oops"",""up"",""up"",""good_move"",33174.6,5757.8,1510.5,31049.1,615,""oops"",""up"",""left"",""bad_move"",39480.9,6305.5,2231.7,36820,429.2,""smooth"",""up"",""up"",""good_move"",42525.3,3044.3,2164.1,39481,880.2,""oops"",""up"",""down"",""bad_move"",44918.5,2392.5,1888.1,42526,504.4,""oops"",""up"",""up"",""good_move"",48019.4,3100.7,2613.9,44918.7,486.8,""smooth"",""up"",""up"",""good_move"",51075.2,3055.7,2569.4,48019.5,486.3,""smooth"",""right"",""right"",""good_move""]","",""
"23759","","<div style=""width:500px;"">
  <p>What determined the result of this run?</p>
  </div>","33","html-slider-response","50","812366","0.0-5.0-1.8","15","1","2025-07-09 08:41:59","01610cd0009c79a99da7d0a3353eb402","109.154.178.14","Mozilla/5.0 (Macintosh; Intel Mac OS X 10_15_7) AppleWebKit/537.36 (KHTML, like Gecko) Chrome/137.0.0.0 Safari/537.36","Macintosh","Chrome","137.0.0.0","OS X","10_15_7","https://app.prolific.com/","en-GB,en-US;q=0.9,en;q=0.8","6760580745ecb73102f83f3d","683db7602f5db6a34d12d064","686e2a935e571afad09eaadc","1","6760580745ecb73102f83f3d","1","2025-07-09T08:55:33.223Z","","","","","","","","","","","AttribQ","","50","","","","","","","","","","","","","","","","","","","","","","","","","","","","",""
"2784","","<div style=""width:500px;"">
  <p>How much control did you have over the ball?</p>
  </div>","30","html-slider-response","51","815153","0.0-5.0-2.8","15","1","2025-07-09 08:41:59","01610cd0009c79a99da7d0a3353eb402","109.154.178.14","Mozilla/5.0 (Macintosh; Intel Mac OS X 10_15_7) AppleWebKit/537.36 (KHTML, like Gecko) Chrome/137.0.0.0 Safari/537.36","Macintosh","Chrome","137.0.0.0","OS X","10_15_7","https://app.prolific.com/","en-GB,en-US;q=0.9,en;q=0.8","6760580745ecb73102f83f3d","683db7602f5db6a34d12d064","686e2a935e571afad09eaadc","1","6760580745ecb73102f83f3d","1","2025-07-09T08:55:36.010Z","","","","","","","","","","","ControlQ","","50","","","","","","","","","","","","","","","","","","","","","","","","","","","","",""
"3299","","<div style=""width:500px;"">
  <p>How would you describe your current emotional state?</p>
  </div>","68","html-slider-response","52","818454","0.0-5.0-3.8","15","1","2025-07-09 08:41:59","01610cd0009c79a99da7d0a3353eb402","109.154.178.14","Mozilla/5.0 (Macintosh; Intel Mac OS X 10_15_7) AppleWebKit/537.36 (KHTML, like Gecko) Chrome/137.0.0.0 Safari/537.36","Macintosh","Chrome","137.0.0.0","OS X","10_15_7","https://app.prolific.com/","en-GB,en-US;q=0.9,en;q=0.8","6760580745ecb73102f83f3d","683db7602f5db6a34d12d064","686e2a935e571afad09eaadc","1","6760580745ecb73102f83f3d","1","2025-07-09T08:55:39.311Z","","","","","","","","","","","StressQ","","50","","","","","","","","","","","","","","","","","","","","","","","","","","","","",""
"2170","","<div style=""width:500px;"">
  <p>What best describes how you currently feel?</p>
  </div>","41","html-slider-response","53","820625","0.0-5.0-4.8","15","1","2025-07-09 08:41:59","01610cd0009c79a99da7d0a3353eb402","109.154.178.14","Mozilla/5.0 (Macintosh; Intel Mac OS X 10_15_7) AppleWebKit/537.36 (KHTML, like Gecko) Chrome/137.0.0.0 Safari/537.36","Macintosh","Chrome","137.0.0.0","OS X","10_15_7","https://app.prolific.com/","en-GB,en-US;q=0.9,en;q=0.8","6760580745ecb73102f83f3d","683db7602f5db6a34d12d064","686e2a935e571afad09eaadc","1","6760580745ecb73102f83f3d","1","2025-07-09T08:55:41.482Z","","","","","","","","","","","MotivationQ","","50","","","","","","","","","","","","","","","","","","","","","","","","","","","","",""
"","","","","ctl-task-cpt","54","879330","0.0-5.0-0.9","15","1","2025-07-09 08:41:59","01610cd0009c79a99da7d0a3353eb402","109.154.178.14","Mozilla/5.0 (Macintosh; Intel Mac OS X 10_15_7) AppleWebKit/537.36 (KHTML, like Gecko) Chrome/137.0.0.0 Safari/537.36","Macintosh","Chrome","137.0.0.0","OS X","10_15_7","https://app.prolific.com/","en-GB,en-US;q=0.9,en;q=0.8","6760580745ecb73102f83f3d","683db7602f5db6a34d12d064","686e2a935e571afad09eaadc","1","6760580745ecb73102f83f3d","1","2025-07-09T08:56:40.187Z","","","","","","","","","","","","","","win-only","2","g1:SE,g2:NW","0.4","10","0","822575.2","1542.2","6551.8","55599.6","1","4","8","6","2","8","8","9","1","0.06818181818181818","1041.4","3000","1455","[""left"",""up""]","{""num_key_presses"":12,""num_perfect"":6,""num_errors"":0,""num_randdir"":6,""num_randdir_good_moves"":3,""num_whilered"":0,""num_whileblue"":0,""num_blue"":3,""num_good_moves"":9}","[806,807.796875,0.2,806,807.796875,105.4,806,807.796875,228.9,806,807.796875,339.8,784,831.796875,458.1,414,443.796875,558.9,414,399.796875,669.5,382,373.796875,784.6,284,265.796875,894.7,204,173.796875,1002.6,204,173.796875,1105.8,204,173.796875,1215.8,204,173.796875,1325.9,204,173.796875,1444.5,-266,501.796875,1559.3,-266,501.796875,1667.6,-266,501.796875,1778.3,-266,501.796875,1889.5,-266,501.796875,1990.3,-266,501.796875,2094.7,-266,501.796875,2213.6,-266,501.796875,2323.1,-266,501.796875,2429.1,-266,501.796875,2529.7,-266,501.796875,2661.2,-266,501.796875,2784.5,-266,501.796875,2886.3,-266,501.796875,2988.8,-266,501.796875,3101.5,-266,501.796875,3203.2,-266,501.796875,3307.1,-266,501.796875,3408.8,-266,501.796875,3510.5,-266,501.796875,3624.1,-266,501.796875,3734.1,-266,501.796875,3842.4,-266,501.796875,3959.2,-266,501.796875,4086.2,-266,501.796875,4193.3,-266,501.796875,4304.7,-266,501.796875,4410.7,-266,501.796875,4544.1,-266,501.796875,4647.4,-266,501.796875,4757.8,-266,501.796875,4861,-266,501.796875,4966.2]","[1468.3,1468.3,1000,0,468.3,""smooth"",""up"",""up"",""good_move"",8155.9,6687.3,2400.1,5343.4,412.4,""oops"",""up"",""right"",""bad_move"",11187.3,3031.1,2500.9,8156.2,530.2,""oops"",""up"",""up"",""good_move"",14626.8,3439.3,2862.5,11187.5,576.9,""smooth"",""up"",""up"",""good_move"",17976.3,3348.8,2204.1,14627.6,1144.6,""smooth"",""left"",""left"",""good_move"",25123.7,7147.1,2563.6,22080.1,480,""oops"",""left"",""right"",""bad_move"",28990.4,3866.2,3245.6,25124.3,620.5,""oops"",""left"",""left"",""good_move"",32588.4,3597.5,3093,28990.9,504.5,""smooth"",""left"",""left"",""good_move"",35987.3,3398.2,2567.2,32589.1,831,""oops"",""left"",""down"",""bad_move"",38720.2,2732.5,2064.6,35987.7,667.9,""oops"",""left"",""left"",""good_move"",45537.9,6817.4,2565.2,42527.4,445.3,""smooth"",""up"",""up"",""good_move"",48835.6,3297.2,2066.8,45538.4,1230.4,""smooth"",""left"",""left"",""good_move""]","",""
"2785","","<div style=""width:500px;"">
  <p>What determined the result of this run?</p>
  </div>","82","html-slider-response","55","882116","0.0-5.0-1.9","15","1","2025-07-09 08:41:59","01610cd0009c79a99da7d0a3353eb402","109.154.178.14","Mozilla/5.0 (Macintosh; Intel Mac OS X 10_15_7) AppleWebKit/537.36 (KHTML, like Gecko) Chrome/137.0.0.0 Safari/537.36","Macintosh","Chrome","137.0.0.0","OS X","10_15_7","https://app.prolific.com/","en-GB,en-US;q=0.9,en;q=0.8","6760580745ecb73102f83f3d","683db7602f5db6a34d12d064","686e2a935e571afad09eaadc","1","6760580745ecb73102f83f3d","1","2025-07-09T08:56:42.973Z","","","","","","","","","","","AttribQ","","50","","","","","","","","","","","","","","","","","","","","","","","","","","","","",""
"2304","","<div style=""width:500px;"">
  <p>How much control did you have over the ball?</p>
  </div>","84","html-slider-response","56","884421","0.0-5.0-2.9","15","1","2025-07-09 08:41:59","01610cd0009c79a99da7d0a3353eb402","109.154.178.14","Mozilla/5.0 (Macintosh; Intel Mac OS X 10_15_7) AppleWebKit/537.36 (KHTML, like Gecko) Chrome/137.0.0.0 Safari/537.36","Macintosh","Chrome","137.0.0.0","OS X","10_15_7","https://app.prolific.com/","en-GB,en-US;q=0.9,en;q=0.8","6760580745ecb73102f83f3d","683db7602f5db6a34d12d064","686e2a935e571afad09eaadc","1","6760580745ecb73102f83f3d","1","2025-07-09T08:56:45.279Z","","","","","","","","","","","ControlQ","","50","","","","","","","","","","","","","","","","","","","","","","","","","","","","",""
"2516","","<div style=""width:500px;"">
  <p>How would you describe your current emotional state?</p>
  </div>","39","html-slider-response","57","886942","0.0-5.0-3.9","15","1","2025-07-09 08:41:59","01610cd0009c79a99da7d0a3353eb402","109.154.178.14","Mozilla/5.0 (Macintosh; Intel Mac OS X 10_15_7) AppleWebKit/537.36 (KHTML, like Gecko) Chrome/137.0.0.0 Safari/537.36","Macintosh","Chrome","137.0.0.0","OS X","10_15_7","https://app.prolific.com/","en-GB,en-US;q=0.9,en;q=0.8","6760580745ecb73102f83f3d","683db7602f5db6a34d12d064","686e2a935e571afad09eaadc","1","6760580745ecb73102f83f3d","1","2025-07-09T08:56:47.799Z","","","","","","","","","","","StressQ","","50","","","","","","","","","","","","","","","","","","","","","","","","","","","","",""
"2108","","<div style=""width:500px;"">
  <p>What best describes how you currently feel?</p>
  </div>","67","html-slider-response","58","889052","0.0-5.0-4.9","15","1","2025-07-09 08:41:59","01610cd0009c79a99da7d0a3353eb402","109.154.178.14","Mozilla/5.0 (Macintosh; Intel Mac OS X 10_15_7) AppleWebKit/537.36 (KHTML, like Gecko) Chrome/137.0.0.0 Safari/537.36","Macintosh","Chrome","137.0.0.0","OS X","10_15_7","https://app.prolific.com/","en-GB,en-US;q=0.9,en;q=0.8","6760580745ecb73102f83f3d","683db7602f5db6a34d12d064","686e2a935e571afad09eaadc","1","6760580745ecb73102f83f3d","1","2025-07-09T08:56:49.909Z","","","","","","","","","","","MotivationQ","","50","","","","","","","","","","","","","","","","","","","","","","","","","","","","",""
"","","","","ctl-task-cpt","59","928963","0.0-5.0-0.10","15","1","2025-07-09 08:41:59","01610cd0009c79a99da7d0a3353eb402","109.154.178.14","Mozilla/5.0 (Macintosh; Intel Mac OS X 10_15_7) AppleWebKit/537.36 (KHTML, like Gecko) Chrome/137.0.0.0 Safari/537.36","Macintosh","Chrome","137.0.0.0","OS X","10_15_7","https://app.prolific.com/","en-GB,en-US;q=0.9,en;q=0.8","6760580745ecb73102f83f3d","683db7602f5db6a34d12d064","686e2a935e571afad09eaadc","1","6760580745ecb73102f83f3d","1","2025-07-09T08:57:29.820Z","","","","","","","","","","","","","","win-only","1","g1:NE,g2:SW","0.5","11","0","890916.1","1668.6","6686.4","36895.7","1","4","4","6","2","4","4","13","9","0.09848484848484848","1533.9","3000","2305","[""down"",""left""]","{""num_key_presses"":6,""num_perfect"":4,""num_errors"":0,""num_randdir"":2,""num_randdir_good_moves"":2,""num_whilered"":0,""num_whileblue"":0,""num_blue"":3,""num_good_moves"":6}","[810,813.796875,0.2,810,813.796875,120.4,810,813.796875,232.1,810,813.796875,354.7,810,813.796875,459.2,804,837.796875,569.8,690,1103.796875,677.4,688,1103.796875,781,688,1103.796875,898.9,414,1405.796875,1011,402,1419.796875,1111,392,1423.796875,1226.5,254,1471.796875,1330.3,206,1473.796875,1445.4,206,1473.796875,1555.7,206,1473.796875,1680.8,206,1473.796875,1783.4,206,1473.796875,1899.4,-86,1453.796875,2024.7,-138,1391.796875,2143.5,-138,1391.796875,2258,-138,1391.796875,2369.2,-138,1391.796875,2478.9,-138,1391.796875,2592.8,-138,1391.796875,2707.1,-138,1391.796875,2812.6,-138,1391.796875,2927.6,-138,1391.796875,3033,-138,1391.796875,3141.6,-138,1391.796875,3269.8,-138,1391.796875,3385.9,-138,1391.796875,3502.5,-138,1391.796875,3608.5,-138,1391.796875,3715.3,-138,1391.796875,3816.9,-138,1391.796875,3945,-138,1391.796875,4054.1,-138,1391.796875,4170.1,-138,1391.796875,4270.1,-138,1391.796875,4374.8,-138,1391.796875,4487,-138,1391.796875,4610.4,-138,1391.796875,4727.2,-138,1391.796875,4848.5,-138,1391.796875,4950.7]","[12541.9,12541.9,2369.4,9630.2,542.3,""oops"",""left"",""left"",""good_move"",16179.6,3636.4,2297.9,12543.2,1338.5,""oops"",""left"",""left"",""good_move"",19749.2,3569,2552,16180.2,1017,""smooth"",""left"",""left"",""good_move"",23412.7,3663.3,2297.3,19749.4,1366,""smooth"",""down"",""down"",""good_move"",27029.4,3616.3,3168.7,23413.1,447.6,""smooth"",""down"",""down"",""good_move"",29880.6,2851,2432.9,27029.6,418.1,""smooth"",""down"",""down"",""good_move""]","",""
"4709","","<div style=""width:500px;"">
  <p>What determined the result of this run?</p>
  </div>","75","html-slider-response","60","933674","0.0-5.0-1.10","15","1","2025-07-09 08:41:59","01610cd0009c79a99da7d0a3353eb402","109.154.178.14","Mozilla/5.0 (Macintosh; Intel Mac OS X 10_15_7) AppleWebKit/537.36 (KHTML, like Gecko) Chrome/137.0.0.0 Safari/537.36","Macintosh","Chrome","137.0.0.0","OS X","10_15_7","https://app.prolific.com/","en-GB,en-US;q=0.9,en;q=0.8","6760580745ecb73102f83f3d","683db7602f5db6a34d12d064","686e2a935e571afad09eaadc","1","6760580745ecb73102f83f3d","1","2025-07-09T08:57:34.531Z","","","","","","","","","","","AttribQ","","50","","","","","","","","","","","","","","","","","","","","","","","","","","","","",""
"2716","","<div style=""width:500px;"">
  <p>How much control did you have over the ball?</p>
  </div>","91","html-slider-response","61","936393","0.0-5.0-2.10","15","1","2025-07-09 08:41:59","01610cd0009c79a99da7d0a3353eb402","109.154.178.14","Mozilla/5.0 (Macintosh; Intel Mac OS X 10_15_7) AppleWebKit/537.36 (KHTML, like Gecko) Chrome/137.0.0.0 Safari/537.36","Macintosh","Chrome","137.0.0.0","OS X","10_15_7","https://app.prolific.com/","en-GB,en-US;q=0.9,en;q=0.8","6760580745ecb73102f83f3d","683db7602f5db6a34d12d064","686e2a935e571afad09eaadc","1","6760580745ecb73102f83f3d","1","2025-07-09T08:57:37.250Z","","","","","","","","","","","ControlQ","","50","","","","","","","","","","","","","","","","","","","","","","","","","","","","",""
"3897","","<div style=""width:500px;"">
  <p>How would you describe your current emotional state?</p>
  </div>","36","html-slider-response","62","940293","0.0-5.0-3.10","15","1","2025-07-09 08:41:59","01610cd0009c79a99da7d0a3353eb402","109.154.178.14","Mozilla/5.0 (Macintosh; Intel Mac OS X 10_15_7) AppleWebKit/537.36 (KHTML, like Gecko) Chrome/137.0.0.0 Safari/537.36","Macintosh","Chrome","137.0.0.0","OS X","10_15_7","https://app.prolific.com/","en-GB,en-US;q=0.9,en;q=0.8","6760580745ecb73102f83f3d","683db7602f5db6a34d12d064","686e2a935e571afad09eaadc","1","6760580745ecb73102f83f3d","1","2025-07-09T08:57:41.150Z","","","","","","","","","","","StressQ","","50","","","","","","","","","","","","","","","","","","","","","","","","","","","","",""
"36168","","<div style=""width:500px;"">
  <p>What best describes how you currently feel?</p>
  </div>","60","html-slider-response","63","976463","0.0-5.0-4.10","15","1","2025-07-09 08:41:59","01610cd0009c79a99da7d0a3353eb402","109.154.178.14","Mozilla/5.0 (Macintosh; Intel Mac OS X 10_15_7) AppleWebKit/537.36 (KHTML, like Gecko) Chrome/137.0.0.0 Safari/537.36","Macintosh","Chrome","137.0.0.0","OS X","10_15_7","https://app.prolific.com/","en-GB,en-US;q=0.9,en;q=0.8","6760580745ecb73102f83f3d","683db7602f5db6a34d12d064","686e2a935e571afad09eaadc","1","6760580745ecb73102f83f3d","1","2025-07-09T08:58:17.320Z","","","","","","","","","","","MotivationQ","","50","","","","","","","","","","","","","","","","","","","","","","","","","","","","",""
"","","","","ctl-task-cpt","64","1023746","0.0-5.0-0.11","15","1","2025-07-09 08:41:59","01610cd0009c79a99da7d0a3353eb402","109.154.178.14","Mozilla/5.0 (Macintosh; Intel Mac OS X 10_15_7) AppleWebKit/537.36 (KHTML, like Gecko) Chrome/137.0.0.0 Safari/537.36","Macintosh","Chrome","137.0.0.0","OS X","10_15_7","https://app.prolific.com/","en-GB,en-US;q=0.9,en;q=0.8","6760580745ecb73102f83f3d","683db7602f5db6a34d12d064","686e2a935e571afad09eaadc","1","6760580745ecb73102f83f3d","1","2025-07-09T08:59:04.603Z","","","","","","","","","","","","","","win-only","0","g1:NW,g2:SE","0.6","12","0","978331.6","1456.3","6468.9","44254.5","1","4","8","6","2","8","7","20","13","0.15151515151515152","1592.4","3000","2130","[""down"",""right""]","{""num_key_presses"":9,""num_perfect"":5,""num_errors"":1,""num_randdir"":3,""num_randdir_good_moves"":2,""num_whilered"":0,""num_whileblue"":0,""num_blue"":3,""num_good_moves"":7}","[806,795.796875,0.4,806,795.796875,104.4,806,795.796875,204.6,806,795.796875,331.8,806,795.796875,464.6,686,813.796875,567.2,590,773.796875,674.4,590,773.796875,795.1,616,813.796875,895.3,786,1023.796875,995.9,786,1023.796875,1112.4,1128,1197.796875,1220,1478,1471.796875,1324.7,1478,1471.796875,1434.4,1480,1479.796875,1542.6,1480,1479.796875,1664.8,1480,1479.796875,1797.1,1886,1123.796875,1900.3,2044,1049.796875,2010.9,2044,1049.796875,2130.5,2044,1049.796875,2238,2044,1049.796875,2356.9,2044,1049.796875,2461.7,2044,1049.796875,2564.9,2044,1049.796875,2668.7,2044,1049.796875,2769.4,2044,1049.796875,2880.1,2044,1049.796875,2997.7,2044,1049.796875,3101.3,2044,1049.796875,3212.1,2044,1049.796875,3314.9,2044,1049.796875,3418.8,2044,1049.796875,3526.5,2044,1049.796875,3650.1,2044,1049.796875,3762.5,2044,1049.796875,3876,2044,1049.796875,3984.1,2044,1049.796875,4119.5,2044,1049.796875,4244.7,2044,1049.796875,4356,2044,1049.796875,4471.9,2044,1049.796875,4573,2044,1049.796875,4676.5,2044,1049.796875,4790.4,2044,1049.796875,4917.7]","[1505.2,1505.2,1000,0,505.2,""smooth"",""right"",""right"",""good_move"",4698,3192,2765.5,1506,426.5,""smooth"",""right"",""right"",""good_move"",11125.3,6427.1,2615.3,8067.2,442.8,""oops"",""right"",""up"",""bad_move"",15379.1,4253.6,2097.8,11125.5,2155.8,""smooth"",""right"",""right"",""good_move"",20871.2,5492,2057.3,18381.6,432.3,""smooth"",""down"",""down"",""good_move"",24355.3,3483.1,2902.7,20872.2,580.4,""smooth"",""down"",""down"",""good_move"",27424.2,3068.7,2634.4,24355.5,434.3,""oops"",""down"",""down"",""good_move"",32820.8,5396.4,2540.7,31206.6,-926.5,""error"",""-"",""-"",""no_move"",37369.1,4547.9,3089.7,33847.7,431.7,""oops"",""down"",""down"",""good_move""]","",""
"2657","","<div style=""width:500px;"">
  <p>What determined the result of this run?</p>
  </div>","59","html-slider-response","65","1026404","0.0-5.0-1.11","15","1","2025-07-09 08:41:59","01610cd0009c79a99da7d0a3353eb402","109.154.178.14","Mozilla/5.0 (Macintosh; Intel Mac OS X 10_15_7) AppleWebKit/537.36 (KHTML, like Gecko) Chrome/137.0.0.0 Safari/537.36","Macintosh","Chrome","137.0.0.0","OS X","10_15_7","https://app.prolific.com/","en-GB,en-US;q=0.9,en;q=0.8","6760580745ecb73102f83f3d","683db7602f5db6a34d12d064","686e2a935e571afad09eaadc","1","6760580745ecb73102f83f3d","1","2025-07-09T08:59:07.261Z","","","","","","","","","","","AttribQ","","50","","","","","","","","","","","","","","","","","","","","","","","","","","","","",""
"2346","","<div style=""width:500px;"">
  <p>How much control did you have over the ball?</p>
  </div>","64","html-slider-response","66","1028751","0.0-5.0-2.11","15","1","2025-07-09 08:41:59","01610cd0009c79a99da7d0a3353eb402","109.154.178.14","Mozilla/5.0 (Macintosh; Intel Mac OS X 10_15_7) AppleWebKit/537.36 (KHTML, like Gecko) Chrome/137.0.0.0 Safari/537.36","Macintosh","Chrome","137.0.0.0","OS X","10_15_7","https://app.prolific.com/","en-GB,en-US;q=0.9,en;q=0.8","6760580745ecb73102f83f3d","683db7602f5db6a34d12d064","686e2a935e571afad09eaadc","1","6760580745ecb73102f83f3d","1","2025-07-09T08:59:09.608Z","","","","","","","","","","","ControlQ","","50","","","","","","","","","","","","","","","","","","","","","","","","","","","","",""
"1866","","<div style=""width:500px;"">
  <p>How would you describe your current emotional state?</p>
  </div>","72","html-slider-response","67","1030620","0.0-5.0-3.11","15","1","2025-07-09 08:41:59","01610cd0009c79a99da7d0a3353eb402","109.154.178.14","Mozilla/5.0 (Macintosh; Intel Mac OS X 10_15_7) AppleWebKit/537.36 (KHTML, like Gecko) Chrome/137.0.0.0 Safari/537.36","Macintosh","Chrome","137.0.0.0","OS X","10_15_7","https://app.prolific.com/","en-GB,en-US;q=0.9,en;q=0.8","6760580745ecb73102f83f3d","683db7602f5db6a34d12d064","686e2a935e571afad09eaadc","1","6760580745ecb73102f83f3d","1","2025-07-09T08:59:11.477Z","","","","","","","","","","","StressQ","","50","","","","","","","","","","","","","","","","","","","","","","","","","","","","",""
"3245","","<div style=""width:500px;"">
  <p>What best describes how you currently feel?</p>
  </div>","45","html-slider-response","68","1033867","0.0-5.0-4.11","15","1","2025-07-09 08:41:59","01610cd0009c79a99da7d0a3353eb402","109.154.178.14","Mozilla/5.0 (Macintosh; Intel Mac OS X 10_15_7) AppleWebKit/537.36 (KHTML, like Gecko) Chrome/137.0.0.0 Safari/537.36","Macintosh","Chrome","137.0.0.0","OS X","10_15_7","https://app.prolific.com/","en-GB,en-US;q=0.9,en;q=0.8","6760580745ecb73102f83f3d","683db7602f5db6a34d12d064","686e2a935e571afad09eaadc","1","6760580745ecb73102f83f3d","1","2025-07-09T08:59:14.724Z","","","","","","","","","","","MotivationQ","","50","","","","","","","","","","","","","","","","","","","","","","","","","","","","",""
"","","","","ctl-task-cpt","69","1087899","0.0-5.0-0.12","15","1","2025-07-09 08:41:59","01610cd0009c79a99da7d0a3353eb402","109.154.178.14","Mozilla/5.0 (Macintosh; Intel Mac OS X 10_15_7) AppleWebKit/537.36 (KHTML, like Gecko) Chrome/137.0.0.0 Safari/537.36","Macintosh","Chrome","137.0.0.0","OS X","10_15_7","https://app.prolific.com/","en-GB,en-US;q=0.9,en;q=0.8","6760580745ecb73102f83f3d","683db7602f5db6a34d12d064","686e2a935e571afad09eaadc","1","6760580745ecb73102f83f3d","1","2025-07-09T09:00:08.757Z","","","","","","","","","","","","","","win-only","1","g1:NE,g2:SW","0.7","13","0","1035733.3","1372.2","6373.4","51001.4","1","4","8","6","2","8","8","28","20","0.21212121212121213","991.8","3000","2330","[""down"",""left""]","{""num_key_presses"":6,""num_perfect"":4,""num_errors"":0,""num_randdir"":2,""num_randdir_good_moves"":2,""num_whilered"":0,""num_whileblue"":0,""num_blue"":6,""num_good_moves"":6}","[800,797.796875,0.2,800,797.796875,120.2,800,797.796875,222.6,800,797.796875,327,800,797.796875,440.1,484,1253.796875,549,442,1333.796875,658.6,384,1349.796875,790.7,194,1483.796875,896.8,164,1505.796875,999.2,164,1505.796875,1104.5,164,1505.796875,1210.9,124,1505.796875,1325.1,-428,1415.796875,1446.7,-442,1389.796875,1577.7,-442,1389.796875,1691.9,-442,1389.796875,1793.3,-442,1389.796875,1896.1,-442,1389.796875,2039.6,-442,1389.796875,2158.4,-442,1389.796875,2292.3,-442,1389.796875,2395.7,-442,1389.796875,2513.4,-442,1389.796875,2629.9,-442,1389.796875,2745.3,-442,1389.796875,2848.7,-442,1389.796875,2957,-442,1389.796875,3057.4,-442,1389.796875,3166.1,-442,1389.796875,3301.2,-442,1389.796875,3429.9,-442,1389.796875,3533,-442,1389.796875,3638.5,-442,1389.796875,3740.8,-442,1389.796875,3842.7,-442,1389.796875,3951.2,-442,1389.796875,4084.1,-442,1389.796875,4203.5,-442,1389.796875,4304.2,-442,1389.796875,4417,-442,1389.796875,4541.4,-442,1389.796875,4649.3,-442,1389.796875,4780.1,-442,1389.796875,4891.7]","[1467.3,1467.3,1000,0,467.3,""oops"",""left"",""down"",""good_move"",5053.8,3585.4,3102.9,1468.4,482.5,""oops"",""left"",""left"",""good_move"",13341.8,8287.7,2463.3,10343.7,534.8,""smooth"",""left"",""left"",""good_move"",17892.9,4550.9,2358.3,13342,2192.6,""smooth"",""left"",""left"",""good_move"",40462.8,22569.6,2495.7,37511.5,455.6,""smooth"",""down"",""down"",""good_move"",44160.9,3697.8,3007.5,40463.1,690.3,""smooth"",""down"",""down"",""good_move""]","",""
"3798","","<div style=""width:500px;"">
  <p>What determined the result of this run?</p>
  </div>","72","html-slider-response","70","1091699","0.0-5.0-1.12","15","1","2025-07-09 08:41:59","01610cd0009c79a99da7d0a3353eb402","109.154.178.14","Mozilla/5.0 (Macintosh; Intel Mac OS X 10_15_7) AppleWebKit/537.36 (KHTML, like Gecko) Chrome/137.0.0.0 Safari/537.36","Macintosh","Chrome","137.0.0.0","OS X","10_15_7","https://app.prolific.com/","en-GB,en-US;q=0.9,en;q=0.8","6760580745ecb73102f83f3d","683db7602f5db6a34d12d064","686e2a935e571afad09eaadc","1","6760580745ecb73102f83f3d","1","2025-07-09T09:00:12.556Z","","","","","","","","","","","AttribQ","","50","","","","","","","","","","","","","","","","","","","","","","","","","","","","",""
"2591","","<div style=""width:500px;"">
  <p>How much control did you have over the ball?</p>
  </div>","75","html-slider-response","71","1094293","0.0-5.0-2.12","15","1","2025-07-09 08:41:59","01610cd0009c79a99da7d0a3353eb402","109.154.178.14","Mozilla/5.0 (Macintosh; Intel Mac OS X 10_15_7) AppleWebKit/537.36 (KHTML, like Gecko) Chrome/137.0.0.0 Safari/537.36","Macintosh","Chrome","137.0.0.0","OS X","10_15_7","https://app.prolific.com/","en-GB,en-US;q=0.9,en;q=0.8","6760580745ecb73102f83f3d","683db7602f5db6a34d12d064","686e2a935e571afad09eaadc","1","6760580745ecb73102f83f3d","1","2025-07-09T09:00:15.150Z","","","","","","","","","","","ControlQ","","50","","","","","","","","","","","","","","","","","","","","","","","","","","","","",""
"4344","","<div style=""width:500px;"">
  <p>How would you describe your current emotional state?</p>
  </div>","37","html-slider-response","72","1098640","0.0-5.0-3.12","15","1","2025-07-09 08:41:59","01610cd0009c79a99da7d0a3353eb402","109.154.178.14","Mozilla/5.0 (Macintosh; Intel Mac OS X 10_15_7) AppleWebKit/537.36 (KHTML, like Gecko) Chrome/137.0.0.0 Safari/537.36","Macintosh","Chrome","137.0.0.0","OS X","10_15_7","https://app.prolific.com/","en-GB,en-US;q=0.9,en;q=0.8","6760580745ecb73102f83f3d","683db7602f5db6a34d12d064","686e2a935e571afad09eaadc","1","6760580745ecb73102f83f3d","1","2025-07-09T09:00:19.497Z","","","","","","","","","","","StressQ","","50","","","","","","","","","","","","","","","","","","","","","","","","","","","","",""
"10882","","<div style=""width:500px;"">
  <p>What best describes how you currently feel?</p>
  </div>","66","html-slider-response","73","1109524","0.0-5.0-4.12","15","1","2025-07-09 08:41:59","01610cd0009c79a99da7d0a3353eb402","109.154.178.14","Mozilla/5.0 (Macintosh; Intel Mac OS X 10_15_7) AppleWebKit/537.36 (KHTML, like Gecko) Chrome/137.0.0.0 Safari/537.36","Macintosh","Chrome","137.0.0.0","OS X","10_15_7","https://app.prolific.com/","en-GB,en-US;q=0.9,en;q=0.8","6760580745ecb73102f83f3d","683db7602f5db6a34d12d064","686e2a935e571afad09eaadc","1","6760580745ecb73102f83f3d","1","2025-07-09T09:00:30.381Z","","","","","","","","","","","MotivationQ","","50","","","","","","","","","","","","","","","","","","","","","","","","","","","","",""
"","","","","ctl-task-cpt","74","1192254","0.0-5.0-0.13","15","1","2025-07-09 08:41:59","01610cd0009c79a99da7d0a3353eb402","109.154.178.14","Mozilla/5.0 (Macintosh; Intel Mac OS X 10_15_7) AppleWebKit/537.36 (KHTML, like Gecko) Chrome/137.0.0.0 Safari/537.36","Macintosh","Chrome","137.0.0.0","OS X","10_15_7","https://app.prolific.com/","en-GB,en-US;q=0.9,en;q=0.8","6760580745ecb73102f83f3d","683db7602f5db6a34d12d064","686e2a935e571afad09eaadc","1","6760580745ecb73102f83f3d","1","2025-07-09T09:01:53.111Z","","","","","","","","","","","","","","win-only","1","g1:NE,g2:SW","0.8","14","0","1111390.4","42819.5","47826.6","79711.9","1","4","4","6","2","4","4","32","28","0.24242424242424243","1253.9","3000","2420","[""down"",""left""]","{""num_key_presses"":6,""num_perfect"":6,""num_errors"":0,""num_randdir"":0,""num_randdir_good_moves"":0,""num_whilered"":0,""num_whileblue"":0,""num_blue"":3,""num_good_moves"":6}","[816,829.796875,0.3,816,829.796875,140.4,816,829.796875,241.1,816,829.796875,363.8,816,829.796875,465.3,816,829.796875,586.7,582,1229.796875,697.7,516,1361.796875,800.9,486,1363.796875,916,166,1501.796875,1036.1,136,1503.796875,1153.8,136,1503.796875,1271.5,136,1503.796875,1384.3,136,1503.796875,1493,136,1503.796875,1608,-320,1541.796875,1731.9,-396,1515.796875,1847.6,-396,1515.796875,1948.3,-396,1515.796875,2054.5,-396,1499.796875,2169.6,-404,1415.796875,2276.6,-404,1415.796875,2403.2,-404,1415.796875,2522.7,-404,1415.796875,2648.2,-404,1415.796875,2750.1,-404,1415.796875,2868.6,-404,1415.796875,2979.9,-404,1415.796875,3117,-404,1415.796875,3233.8,-404,1415.796875,3354.6,-404,1415.796875,3460.4,-404,1415.796875,3568.7,-404,1415.796875,3679.3,-404,1415.796875,3791.5,-404,1415.796875,3909.4,-404,1415.796875,4023.6,-404,1415.796875,4147.5,-404,1415.796875,4262.9,-404,1415.796875,4380.5,-404,1415.796875,4494.3,-404,1415.796875,4606.4,-404,1415.796875,4708.2,-404,1415.796875,4809.7,-404,1415.796875,4916.7]","[1495.1,1495.1,1000,0,495.1,""smooth"",""left"",""left"",""good_move"",9105.1,7609.5,1765.2,6883.1,456.8,""smooth"",""left"",""left"",""good_move"",13954.3,4849.1,2137,9105.3,2712,""smooth"",""left"",""left"",""good_move"",18871.9,4917.5,1504.6,13954.4,3412.9,""smooth"",""down"",""down"",""good_move"",25090.6,6218.4,2229.9,22282.2,578.5,""smooth"",""down"",""down"",""good_move"",31507.6,6416.7,3040.2,27933.8,533.6,""smooth"",""down"",""down"",""good_move""]","",""
"3302","","<div style=""width:500px;"">
  <p>What determined the result of this run?</p>
  </div>","86","html-slider-response","75","1195558","0.0-5.0-1.13","15","1","2025-07-09 08:41:59","01610cd0009c79a99da7d0a3353eb402","109.154.178.14","Mozilla/5.0 (Macintosh; Intel Mac OS X 10_15_7) AppleWebKit/537.36 (KHTML, like Gecko) Chrome/137.0.0.0 Safari/537.36","Macintosh","Chrome","137.0.0.0","OS X","10_15_7","https://app.prolific.com/","en-GB,en-US;q=0.9,en;q=0.8","6760580745ecb73102f83f3d","683db7602f5db6a34d12d064","686e2a935e571afad09eaadc","1","6760580745ecb73102f83f3d","1","2025-07-09T09:01:56.415Z","","","","","","","","","","","AttribQ","","50","","","","","","","","","","","","","","","","","","","","","","","","","","","","",""
"2278","","<div style=""width:500px;"">
  <p>How much control did you have over the ball?</p>
  </div>","77","html-slider-response","76","1197838","0.0-5.0-2.13","15","1","2025-07-09 08:41:59","01610cd0009c79a99da7d0a3353eb402","109.154.178.14","Mozilla/5.0 (Macintosh; Intel Mac OS X 10_15_7) AppleWebKit/537.36 (KHTML, like Gecko) Chrome/137.0.0.0 Safari/537.36","Macintosh","Chrome","137.0.0.0","OS X","10_15_7","https://app.prolific.com/","en-GB,en-US;q=0.9,en;q=0.8","6760580745ecb73102f83f3d","683db7602f5db6a34d12d064","686e2a935e571afad09eaadc","1","6760580745ecb73102f83f3d","1","2025-07-09T09:01:58.695Z","","","","","","","","","","","ControlQ","","50","","","","","","","","","","","","","","","","","","","","","","","","","","","","",""
"2034","","<div style=""width:500px;"">
  <p>How would you describe your current emotional state?</p>
  </div>","37","html-slider-response","77","1199875","0.0-5.0-3.13","15","1","2025-07-09 08:41:59","01610cd0009c79a99da7d0a3353eb402","109.154.178.14","Mozilla/5.0 (Macintosh; Intel Mac OS X 10_15_7) AppleWebKit/537.36 (KHTML, like Gecko) Chrome/137.0.0.0 Safari/537.36","Macintosh","Chrome","137.0.0.0","OS X","10_15_7","https://app.prolific.com/","en-GB,en-US;q=0.9,en;q=0.8","6760580745ecb73102f83f3d","683db7602f5db6a34d12d064","686e2a935e571afad09eaadc","1","6760580745ecb73102f83f3d","1","2025-07-09T09:02:00.732Z","","","","","","","","","","","StressQ","","50","","","","","","","","","","","","","","","","","","","","","","","","","","","","",""
"2118","","<div style=""width:500px;"">
  <p>What best describes how you currently feel?</p>
  </div>","62","html-slider-response","78","1201995","0.0-5.0-4.13","15","1","2025-07-09 08:41:59","01610cd0009c79a99da7d0a3353eb402","109.154.178.14","Mozilla/5.0 (Macintosh; Intel Mac OS X 10_15_7) AppleWebKit/537.36 (KHTML, like Gecko) Chrome/137.0.0.0 Safari/537.36","Macintosh","Chrome","137.0.0.0","OS X","10_15_7","https://app.prolific.com/","en-GB,en-US;q=0.9,en;q=0.8","6760580745ecb73102f83f3d","683db7602f5db6a34d12d064","686e2a935e571afad09eaadc","1","6760580745ecb73102f83f3d","1","2025-07-09T09:02:02.852Z","","","","","","","","","","","MotivationQ","","50","","","","","","","","","","","","","","","","","","","","","","","","","","","","",""
"","","","","ctl-task-cpt","79","1243767","0.0-5.0-0.14","15","1","2025-07-09 08:41:59","01610cd0009c79a99da7d0a3353eb402","109.154.178.14","Mozilla/5.0 (Macintosh; Intel Mac OS X 10_15_7) AppleWebKit/537.36 (KHTML, like Gecko) Chrome/137.0.0.0 Safari/537.36","Macintosh","Chrome","137.0.0.0","OS X","10_15_7","https://app.prolific.com/","en-GB,en-US;q=0.9,en;q=0.8","6760580745ecb73102f83f3d","683db7602f5db6a34d12d064","686e2a935e571afad09eaadc","1","6760580745ecb73102f83f3d","1","2025-07-09T09:02:44.625Z","","","","","","","","","","","","","","win-only","1","g1:NE,g2:SW","0.9","15","0","1203862.2","2311.6","7312","38760.2","1","4","8","6","2","8","8","40","32","0.30303030303030304","950.8","3000","2460","[""down"",""left""]","{""num_key_presses"":6,""num_perfect"":5,""num_errors"":0,""num_randdir"":1,""num_randdir_good_moves"":1,""num_whilered"":0,""num_whileblue"":0,""num_blue"":2,""num_good_moves"":6}","[802,809.796875,0.2,802,809.796875,123.4,802,809.796875,241.4,802,809.796875,369.4,538,1075.796875,491.3,420,1243.796875,610.3,356,1287.796875,724.4,184,1469.796875,840.3,184,1469.796875,967.4,184,1469.796875,1073.8,184,1469.796875,1187.7,140,1469.796875,1311,-100,1339.796875,1437.3,-100,1339.796875,1555.6,-144,1337.796875,1666.2,-192,1279.796875,1767.1,-192,1279.796875,1870.3,-192,1279.796875,2005.3,-192,1279.796875,2121,-192,1279.796875,2244.4,-192,1279.796875,2348.2,-192,1279.796875,2449.3,-192,1279.796875,2574.8,-192,1279.796875,2708.5,-192,1279.796875,2825.2,-192,1279.796875,2946.8,-192,1279.796875,3063,-192,1279.796875,3166.4,-192,1279.796875,3292.7,-192,1279.796875,3406.7,-192,1279.796875,3515.8,-192,1279.796875,3627.4,-192,1279.796875,3743.7,-192,1279.796875,3849.8,-192,1279.796875,3968,-192,1279.796875,4074.4,-192,1279.796875,4180.5,-192,1279.796875,4287,-192,1279.796875,4410.1,-192,1279.796875,4520.6,-192,1279.796875,4637.9,-192,1279.796875,4756.3,-192,1279.796875,4856.3,-192,1279.796875,4973.9]","[1427.5,1427.5,1000,0,427.5,""smooth"",""down"",""down"",""good_move"",4725.6,3297.8,2778.5,1427.8,519.3,""smooth"",""down"",""down"",""good_move"",8179.3,3453.6,2911.8,4725.7,541.8,""smooth"",""down"",""down"",""good_move"",20348.8,12169.2,3193.5,16609.1,546.2,""oops"",""left"",""left"",""good_move"",25743.4,5393.6,2526.2,20349.8,2867.4,""smooth"",""left"",""left"",""good_move"",30917.7,5173.8,3575.6,25743.9,1598.2,""smooth"",""left"",""left"",""good_move""]","",""
"2400","","<div style=""width:500px;"">
  <p>What determined the result of this run?</p>
  </div>","89","html-slider-response","80","1246170","0.0-5.0-1.14","15","1","2025-07-09 08:41:59","01610cd0009c79a99da7d0a3353eb402","109.154.178.14","Mozilla/5.0 (Macintosh; Intel Mac OS X 10_15_7) AppleWebKit/537.36 (KHTML, like Gecko) Chrome/137.0.0.0 Safari/537.36","Macintosh","Chrome","137.0.0.0","OS X","10_15_7","https://app.prolific.com/","en-GB,en-US;q=0.9,en;q=0.8","6760580745ecb73102f83f3d","683db7602f5db6a34d12d064","686e2a935e571afad09eaadc","1","6760580745ecb73102f83f3d","1","2025-07-09T09:02:47.027Z","","","","","","","","","","","AttribQ","","50","","","","","","","","","","","","","","","","","","","","","","","","","","","","",""
"1716","","<div style=""width:500px;"">
  <p>How much control did you have over the ball?</p>
  </div>","93","html-slider-response","81","1247888","0.0-5.0-2.14","15","1","2025-07-09 08:41:59","01610cd0009c79a99da7d0a3353eb402","109.154.178.14","Mozilla/5.0 (Macintosh; Intel Mac OS X 10_15_7) AppleWebKit/537.36 (KHTML, like Gecko) Chrome/137.0.0.0 Safari/537.36","Macintosh","Chrome","137.0.0.0","OS X","10_15_7","https://app.prolific.com/","en-GB,en-US;q=0.9,en;q=0.8","6760580745ecb73102f83f3d","683db7602f5db6a34d12d064","686e2a935e571afad09eaadc","1","6760580745ecb73102f83f3d","1","2025-07-09T09:02:48.745Z","","","","","","","","","","","ControlQ","","50","","","","","","","","","","","","","","","","","","","","","","","","","","","","",""
"3265","","<div style=""width:500px;"">
  <p>How would you describe your current emotional state?</p>
  </div>","34","html-slider-response","82","1251155","0.0-5.0-3.14","15","1","2025-07-09 08:41:59","01610cd0009c79a99da7d0a3353eb402","109.154.178.14","Mozilla/5.0 (Macintosh; Intel Mac OS X 10_15_7) AppleWebKit/537.36 (KHTML, like Gecko) Chrome/137.0.0.0 Safari/537.36","Macintosh","Chrome","137.0.0.0","OS X","10_15_7","https://app.prolific.com/","en-GB,en-US;q=0.9,en;q=0.8","6760580745ecb73102f83f3d","683db7602f5db6a34d12d064","686e2a935e571afad09eaadc","1","6760580745ecb73102f83f3d","1","2025-07-09T09:02:52.012Z","","","","","","","","","","","StressQ","","50","","","","","","","","","","","","","","","","","","","","","","","","","","","","",""
"2132","","<div style=""width:500px;"">
  <p>What best describes how you currently feel?</p>
  </div>","70","html-slider-response","83","1253289","0.0-5.0-4.14","15","1","2025-07-09 08:41:59","01610cd0009c79a99da7d0a3353eb402","109.154.178.14","Mozilla/5.0 (Macintosh; Intel Mac OS X 10_15_7) AppleWebKit/537.36 (KHTML, like Gecko) Chrome/137.0.0.0 Safari/537.36","Macintosh","Chrome","137.0.0.0","OS X","10_15_7","https://app.prolific.com/","en-GB,en-US;q=0.9,en;q=0.8","6760580745ecb73102f83f3d","683db7602f5db6a34d12d064","686e2a935e571afad09eaadc","1","6760580745ecb73102f83f3d","1","2025-07-09T09:02:54.146Z","","","","","","","","","","","MotivationQ","","50","","","","","","","","","","","","","","","","","","","","","","","","","","","","",""
"","","","","ctl-task-cpt","84","1306298","0.0-5.0-0.15","15","1","2025-07-09 08:41:59","01610cd0009c79a99da7d0a3353eb402","109.154.178.14","Mozilla/5.0 (Macintosh; Intel Mac OS X 10_15_7) AppleWebKit/537.36 (KHTML, like Gecko) Chrome/137.0.0.0 Safari/537.36","Macintosh","Chrome","137.0.0.0","OS X","10_15_7","https://app.prolific.com/","en-GB,en-US;q=0.9,en;q=0.8","6760580745ecb73102f83f3d","683db7602f5db6a34d12d064","686e2a935e571afad09eaadc","1","6760580745ecb73102f83f3d","1","2025-07-09T09:03:47.155Z","","","","","","","","","","","","","","win-only","2","g1:SE,g2:NW","0.8","16","0","1255158.3","1348.9","6375.4","49959.3","1","4","4","6","1","1","1","41","40","0.3106060606060606","1714.8","3000","2380","[""down"",""right""]","{""num_key_presses"":8,""num_perfect"":6,""num_errors"":0,""num_randdir"":2,""num_randdir_good_moves"":0,""num_whilered"":0,""num_whileblue"":0,""num_blue"":4,""num_good_moves"":6}","[806,813.796875,8.7,806,813.796875,179.1,806,813.796875,280,806,813.796875,391.9,800,809.796875,500.9,456,633.796875,602,364,567.796875,716.6,352,569.796875,855.9,538,729.796875,972.2,596,863.796875,1075.4,630,893.796875,1186.4,1324,1357.796875,1296.1,1374,1389.796875,1420,1428,1475.796875,1550.5,1434,1479.796875,1666.3,1434,1479.796875,1788.5,1434,1479.796875,1923,1514,1461.796875,2063.3,2114,1237.796875,2183,2114,1237.796875,2283.4,2114,1237.796875,2399.4,2114,1237.796875,2536.3,2114,1237.796875,2670.3,2114,1237.796875,2795.6,2114,1237.796875,2909.9,2114,1237.796875,3032.5,2114,1237.796875,3173.8,2114,1237.796875,3293.6,2114,1237.796875,3418,2114,1237.796875,3522.4,2114,1237.796875,3639.2,2114,1237.796875,3744.3,2114,1237.796875,3886.7,2114,1237.796875,4009.3,2114,1237.796875,4119.8,2114,1237.796875,4233.2,2114,1237.796875,4334.5,2114,1237.796875,4435.9,2114,1237.796875,4565.9,2114,1237.796875,4692.5,2114,1237.796875,4802.2,2114,1237.796875,4908.1]","[1503.2,1503.2,1000,0,503.2,""smooth"",""right"",""right"",""good_move"",7771.1,6267.2,2120.1,5205.6,445.4,""smooth"",""right"",""right"",""good_move"",13852.3,6081,2291.3,11037.4,523.6,""oops"",""down"",""left"",""bad_move"",19272.1,5419.7,2969.3,13852.4,2450.4,""smooth"",""right"",""right"",""good_move"",22696.8,3424.5,2976.7,19272.3,447.8,""smooth"",""down"",""down"",""good_move"",25767.1,3069.8,2549,22697.3,520.8,""oops"",""down"",""left"",""bad_move"",31066.1,5298.8,1857.7,25767.3,3441.1,""smooth"",""right"",""right"",""good_move"",43065.3,11999.1,3467.8,39094.9,502.6,""smooth"",""down"",""down"",""good_move""]","",""
"2373","","<div style=""width:500px;"">
  <p>What determined the result of this run?</p>
  </div>","70","html-slider-response","85","1308673","0.0-5.0-1.15","15","1","2025-07-09 08:41:59","01610cd0009c79a99da7d0a3353eb402","109.154.178.14","Mozilla/5.0 (Macintosh; Intel Mac OS X 10_15_7) AppleWebKit/537.36 (KHTML, like Gecko) Chrome/137.0.0.0 Safari/537.36","Macintosh","Chrome","137.0.0.0","OS X","10_15_7","https://app.prolific.com/","en-GB,en-US;q=0.9,en;q=0.8","6760580745ecb73102f83f3d","683db7602f5db6a34d12d064","686e2a935e571afad09eaadc","1","6760580745ecb73102f83f3d","1","2025-07-09T09:03:49.530Z","","","","","","","","","","","AttribQ","","50","","","","","","","","","","","","","","","","","","","","","","","","","","","","",""
"2338","","<div style=""width:500px;"">
  <p>How much control did you have over the ball?</p>
  </div>","62","html-slider-response","86","1311013","0.0-5.0-2.15","15","1","2025-07-09 08:41:59","01610cd0009c79a99da7d0a3353eb402","109.154.178.14","Mozilla/5.0 (Macintosh; Intel Mac OS X 10_15_7) AppleWebKit/537.36 (KHTML, like Gecko) Chrome/137.0.0.0 Safari/537.36","Macintosh","Chrome","137.0.0.0","OS X","10_15_7","https://app.prolific.com/","en-GB,en-US;q=0.9,en;q=0.8","6760580745ecb73102f83f3d","683db7602f5db6a34d12d064","686e2a935e571afad09eaadc","1","6760580745ecb73102f83f3d","1","2025-07-09T09:03:51.870Z","","","","","","","","","","","ControlQ","","50","","","","","","","","","","","","","","","","","","","","","","","","","","","","",""
"2234","","<div style=""width:500px;"">
  <p>How would you describe your current emotional state?</p>
