"rt","response_timestamp","stimulus","response","trial_type","trial_index","time_elapsed","internal_node_id","run_id","condition","recorded_at","source_code_version","ip","user_agent","device","browser","browser_version","platform","platform_version","referer","accept_language","PROLIFIC_PID","STUDY_ID","SESSION_ID","WEEK","BATCH","prolific_id","week","batch","realtime","success","responses","item_order","radio_event_ids","radio_event_times","key_event_times","mouse_event_times","straightlining","zigzagging","honeypot","eventType","view_history","slider_start","which_type","canvas_config","goals_layout","control_level","trial_number","tutorial_trial_number","trial_start_time","phase1_start_time","phase2_start_time","phase3_start_time","goal_1_value","goal_1_distance","goal_2_value","goal_2_distance","goal_selected","outcome","outcome_total","participant_final_score","participant_initial_score","participant_final_score_prop","goal_choice_rt","allocated_time","allocated_time_remaining","goal_direction","counts","mouse_movements","key_presses","question_order","question_id"
"43266","1752658957666","<p style='font-size:40px;line-height:1.25'><strong>Welcome to the experiment!</strong></p><p style='font-size:1.1em;line-height:1.25'>Thank you for participanting in our experiment again! You will be asked to play the Dysfunctional Ball Game again. We will briefly recap the rules before we start.</p><p style='font-size:1.1em;line-height:1.25'>Press <strong>Next</strong> to continue.</p>","0","custom-html-button-response","0","43271","0.0-0.0","92","1","2025-07-16 09:41:52","1f75c3e559b7213887762d5229550c2b","41.122.138.70","Mozilla/5.0 (Macintosh; Intel Mac OS X 10_15_7) AppleWebKit/537.36 (KHTML, like Gecko) Chrome/128.0.0.0 Safari/537.36","Macintosh","Chrome","128.0.0.0","OS X","10_15_7","https://app.prolific.com/","en-GB,en-US;q=0.9,en;q=0.8","678bad003d15e6aba1ee5a5d","68764874ac79eee8c1d4cb03","687762ccbca424a2b2ebd616","2","0","678bad003d15e6aba1ee5a5d","2","0","2025-07-16T09:42:37.668Z","","","","","","","","","","","","","","","","","","","","","","","","","","","","","","","","","","","","","","","","","",""
"912","","","","fullscreen","1","45188","0.0-1.0","92","1","2025-07-16 09:41:52","1f75c3e559b7213887762d5229550c2b","41.122.138.70","Mozilla/5.0 (Macintosh; Intel Mac OS X 10_15_7) AppleWebKit/537.36 (KHTML, like Gecko) Chrome/128.0.0.0 Safari/537.36","Macintosh","Chrome","128.0.0.0","OS X","10_15_7","https://app.prolific.com/","en-GB,en-US;q=0.9,en;q=0.8","678bad003d15e6aba1ee5a5d","68764874ac79eee8c1d4cb03","687762ccbca424a2b2ebd616","2","0","678bad003d15e6aba1ee5a5d","2","0","","true","","","","","","","","","","","","","","","","","","","","","","","","","","","","","","","","","","","","","","","","",""
"335689","1752659295296","<p style='font-size:1.1em;line-height:1.25'>In the following, we will ask you a few questions relating to your feelings in the last 24 hours.<br></p><p style='font-size:1.1em;line-height:1.25'>Press the <strong>Next</strong> button to continue.</p>","0","custom-html-button-response","2","380900","0.0-2.0-0.0","92","1","2025-07-16 09:41:52","1f75c3e559b7213887762d5229550c2b","41.122.138.70","Mozilla/5.0 (Macintosh; Intel Mac OS X 10_15_7) AppleWebKit/537.36 (KHTML, like Gecko) Chrome/128.0.0.0 Safari/537.36","Macintosh","Chrome","128.0.0.0","OS X","10_15_7","https://app.prolific.com/","en-GB,en-US;q=0.9,en;q=0.8","678bad003d15e6aba1ee5a5d","68764874ac79eee8c1d4cb03","687762ccbca424a2b2ebd616","2","0","678bad003d15e6aba1ee5a5d","2","0","2025-07-16T09:48:15.297Z","","","","","","","","","","","","","","","","","","","","","","","","","","","","","","","","","","","","","","","","","",""
"29072","","","","survey-template","3","409982","0.0-2.0-1.0","92","1","2025-07-16 09:41:52","1f75c3e559b7213887762d5229550c2b","41.122.138.70","Mozilla/5.0 (Macintosh; Intel Mac OS X 10_15_7) AppleWebKit/537.36 (KHTML, like Gecko) Chrome/128.0.0.0 Safari/537.36","Macintosh","Chrome","128.0.0.0","OS X","10_15_7","https://app.prolific.com/","en-GB,en-US;q=0.9,en;q=0.8","678bad003d15e6aba1ee5a5d","68764874ac79eee8c1d4cb03","687762ccbca424a2b2ebd616","2","0","678bad003d15e6aba1ee5a5d","2","0","2025-07-16T09:48:44.379Z","","{""Q01"":""3"",""Q02"":""3"",""Q03"":""1"",""Q04"":""1"",""Q05"":""3"",""Q06"":""3"",""Q07"":""2"",""Q08"":""3"",""Q09"":""2"",""Q10"":""3"",""Q11"":""2"",""Q12"":""2"",""Q13"":""1"",""Q14"":""2"",""Q15"":""2"",""Q16"":""3"",""Q17"":""3"",""Q18"":""3"",""Q19"":""2"",""Q20"":""1"",""Q21"":""2"",""Q22"":""2""}","[0,1,2,3,4,5,6,7,8,9,10,11,12,13,14,15,16,17,18,19,20,21]","[""Q01"",""Q02"",""Q03"",""Q04"",""Q05"",""Q06"",""Q07"",""Q08"",""Q09"",""Q10"",""Q11"",""Q12"",""Q13"",""Q14"",""Q15"",""Q16"",""Q18"",""Q17"",""Q19"",""Q20"",""Q21"",""Q22""]","[1851.0999999046326,2382.5,3300.399999856949,5414,8211.200000047684,8623.5,9207.099999904633,9861,10526.899999856949,11809.299999952316,13873.099999904633,15101.399999856949,16153.299999952316,18375.200000047684,18869.39999985695,20720.799999952316,23481,24009.099999904633,24717.200000047684,25637.39999985695,27429,28313.099999904633]","[]","[0.20000004768371582,1851.0999999046326,2382.5,3300.399999856949,5414,6244.899999856949,8211.200000047684,8623.5,9207.099999904633,9861,10526.899999856949,11122.700000047684,11445.200000047684,11809.299999952316,13107.399999856949,13873.099999904633,14488.899999856949,15101.399999856949,15754.899999856949,16153.299999952316,16924.5,18375.200000047684,18869.39999985695,19425.39999985695,19963.39999985695,20720.799999952316,22041.099999904633,22696.89999985695,23481,24009.099999904633,24717.200000047684,25637.39999985695,26233.099999904633,27429,27935.39999985695,28313.099999904633,29067.099999904633]","0.4090909090909091","0.5238095238095238","0","drsp","","","","","","","","","","","","","","","","","","","","","","","","","","","","","","",""
"4504.100000143051","","","","survey-template","4","414491","0.0-2.0-2.0","92","1","2025-07-16 09:41:52","1f75c3e559b7213887762d5229550c2b","41.122.138.70","Mozilla/5.0 (Macintosh; Intel Mac OS X 10_15_7) AppleWebKit/537.36 (KHTML, like Gecko) Chrome/128.0.0.0 Safari/537.36","Macintosh","Chrome","128.0.0.0","OS X","10_15_7","https://app.prolific.com/","en-GB,en-US;q=0.9,en;q=0.8","678bad003d15e6aba1ee5a5d","68764874ac79eee8c1d4cb03","687762ccbca424a2b2ebd616","2","0","678bad003d15e6aba1ee5a5d","2","0","2025-07-16T09:48:48.888Z","","{""Q01"":""3"",""Q02"":""3"",""Q03"":""2""}","[0,1,2]","[""Q01"",""Q02"",""Q03""]","[1585,2175.2000000476837,3727.9000000953674]","[]","[1585,2175.2000000476837,2580.7999999523163,3298.7999999523163,3727.9000000953674,4503.200000047684]","0.6666666666666666","0.5","0","stress","","","","","","","","","","","","","","","","","","","","","","","","","","","","","","",""
"1894","","","","instructions","5","416388","0.0-3.0-0.0","92","1","2025-07-16 09:41:52","1f75c3e559b7213887762d5229550c2b","41.122.138.70","Mozilla/5.0 (Macintosh; Intel Mac OS X 10_15_7) AppleWebKit/537.36 (KHTML, like Gecko) Chrome/128.0.0.0 Safari/537.36","Macintosh","Chrome","128.0.0.0","OS X","10_15_7","https://app.prolific.com/","en-GB,en-US;q=0.9,en;q=0.8","678bad003d15e6aba1ee5a5d","68764874ac79eee8c1d4cb03","687762ccbca424a2b2ebd616","2","0","678bad003d15e6aba1ee5a5d","2","0","","","","","","","","","","","","","[{""page_index"":0,""viewing_time"":1894}]","","","","","","","","","","","","","","","","","","","","","","","","","","","","","",""
"2928","","<p>Before you start with this game please answer the following three questions yourself. </p>
  <p>Through this game, we measure several aspects of your cognitive performance, such as reaction times, multi-tasking capabilities </p>
  <p>and the ability to assess the situation you are in.</p>
  <p></p>
  <p><b>How good do you usually are in such tasks?</b></p>","67","html-slider-response","6","419318","0.0-4.0-0.0","92","1","2025-07-16 09:41:52","1f75c3e559b7213887762d5229550c2b","41.122.138.70","Mozilla/5.0 (Macintosh; Intel Mac OS X 10_15_7) AppleWebKit/537.36 (KHTML, like Gecko) Chrome/128.0.0.0 Safari/537.36","Macintosh","Chrome","128.0.0.0","OS X","10_15_7","https://app.prolific.com/","en-GB,en-US;q=0.9,en;q=0.8","678bad003d15e6aba1ee5a5d","68764874ac79eee8c1d4cb03","687762ccbca424a2b2ebd616","2","0","678bad003d15e6aba1ee5a5d","2","0","2025-07-16T09:48:53.715Z","","","","","","","","","","","PreSkillQ","","50","","","","","","","","","","","","","","","","","","","","","","","","","","","","",""
"1970","","<div style=""width:500px;"">
  <p>How well do you think you will perform in this task compared to other participants?</p>
  </div>","69","html-slider-response","7","421289","0.0-4.0-1.0","92","1","2025-07-16 09:41:52","1f75c3e559b7213887762d5229550c2b","41.122.138.70","Mozilla/5.0 (Macintosh; Intel Mac OS X 10_15_7) AppleWebKit/537.36 (KHTML, like Gecko) Chrome/128.0.0.0 Safari/537.36","Macintosh","Chrome","128.0.0.0","OS X","10_15_7","https://app.prolific.com/","en-GB,en-US;q=0.9,en;q=0.8","678bad003d15e6aba1ee5a5d","68764874ac79eee8c1d4cb03","687762ccbca424a2b2ebd616","2","0","678bad003d15e6aba1ee5a5d","2","0","2025-07-16T09:48:55.686Z","","","","","","","","","","","PrePerfQ","","50","","","","","","","","","","","","","","","","","","","","","","","","","","","","",""
"1861","","<div style=""width:500px;"">
  <p>What best describes how you currently feel?</p>
  </div>","64","html-slider-response","8","423151","0.0-4.0-2.0","92","1","2025-07-16 09:41:52","1f75c3e559b7213887762d5229550c2b","41.122.138.70","Mozilla/5.0 (Macintosh; Intel Mac OS X 10_15_7) AppleWebKit/537.36 (KHTML, like Gecko) Chrome/128.0.0.0 Safari/537.36","Macintosh","Chrome","128.0.0.0","OS X","10_15_7","https://app.prolific.com/","en-GB,en-US;q=0.9,en;q=0.8","678bad003d15e6aba1ee5a5d","68764874ac79eee8c1d4cb03","687762ccbca424a2b2ebd616","2","0","678bad003d15e6aba1ee5a5d","2","0","2025-07-16T09:48:57.548Z","","","","","","","","","","","PreMotivationQ","","50","","","","","","","","","","","","","","","","","","","","","","","","","","","","",""
"","","","","ctl-task-cpt","9","451166","0.0-5.0-0.0","92","1","2025-07-16 09:41:52","1f75c3e559b7213887762d5229550c2b","41.122.138.70","Mozilla/5.0 (Macintosh; Intel Mac OS X 10_15_7) AppleWebKit/537.36 (KHTML, like Gecko) Chrome/128.0.0.0 Safari/537.36","Macintosh","Chrome","128.0.0.0","OS X","10_15_7","https://app.prolific.com/","en-GB,en-US;q=0.9,en;q=0.8","678bad003d15e6aba1ee5a5d","68764874ac79eee8c1d4cb03","687762ccbca424a2b2ebd616","2","0","678bad003d15e6aba1ee5a5d","2","0","2025-07-16T09:49:25.563Z","","","","","","","","","","","","","","win-only","3","g1:SW,g2:NE","1","1","0","426327.5","1570.2","6570.7","24998.5","1","4","8","6","2","8","8","8","0","0.06060606060606061","1020.4","3000","595","[""up"",""right""]","{""num_key_presses"":6,""num_perfect"":6,""num_errors"":0,""num_randdir"":0,""num_randdir_good_moves"":0,""num_whilered"":0,""num_whileblue"":0,""num_blue"":1,""num_good_moves"":6}","[353.14285714285717,345.04910714285717,0.3,353.14285714285717,345.04910714285717,101,353.14285714285717,345.04910714285717,206.1,356.14285714285717,343.04910714285717,311.2,351.14285714285717,312.04910714285717,416.5,311.14285714285717,315.04910714285717,520.8,513.1428571428571,166.04910714285714,622,556.1428571428571,134.04910714285714,726.4,580.1428571428571,120.04910714285714,831.9,612.1428571428571,85.04910714285714,932.1,617.1428571428571,74.04910714285714,1034.2,617.1428571428571,75.04910714285714,1135.7,603.1428571428571,95.04910714285714,1237.4,566.1428571428571,170.04910714285714,1341.6,565.1428571428571,170.04910714285714,1442,565.1428571428571,170.04910714285714,1545.9,565.1428571428571,170.04910714285714,1651.5,565.1428571428571,170.04910714285714,1752.1,565.1428571428571,170.04910714285714,1856.5,565.1428571428571,170.04910714285714,1960.6,565.1428571428571,170.04910714285714,2060.7,565.1428571428571,170.04910714285714,2161.8,565.1428571428571,170.04910714285714,2266,565.1428571428571,170.04910714285714,2370.6,565.1428571428571,170.04910714285714,2474.5,565.1428571428571,170.04910714285714,2576.1,565.1428571428571,170.04910714285714,2680.4,565.1428571428571,170.04910714285714,2782.4,565.1428571428571,170.04910714285714,2886.2,565.1428571428571,170.04910714285714,2986.2,565.1428571428571,170.04910714285714,3090.6,565.1428571428571,170.04910714285714,3191.1,565.1428571428571,170.04910714285714,3298,565.1428571428571,170.04910714285714,3401.1,565.1428571428571,170.04910714285714,3501.1,565.1428571428571,170.04910714285714,3601.1,565.1428571428571,170.04910714285714,3705.9,565.1428571428571,170.04910714285714,3806,565.1428571428571,170.04910714285714,3911.6,565.1428571428571,170.04910714285714,4015.3,565.1428571428571,170.04910714285714,4115.6,565.1428571428571,170.04910714285714,4215.6,565.1428571428571,170.04910714285714,4316,565.1428571428571,170.04910714285714,4421.9,565.1428571428571,170.04910714285714,4525.6,565.1428571428571,170.04910714285714,4625.8,565.1428571428571,170.04910714285714,4726.2,565.1428571428571,170.04910714285714,4826.7,565.1428571428571,170.04910714285714,4930.3]","[1484.6,1484.6,1000,0,484.6,""smooth"",""right"",""right"",""good_move"",3948,2462.5,2022.6,1485.5,439.9,""smooth"",""right"",""right"",""good_move"",6436.2,2487.4,2099.4,3948.8,388,""smooth"",""up"",""up"",""good_move"",12483.9,6047.2,2592.5,9505.5,385.9,""smooth"",""up"",""up"",""good_move"",15363.9,2879.7,2486.7,12484.2,393,""smooth"",""up"",""up"",""good_move"",18336.2,2972.3,2621.3,15364,350.9,""smooth"",""right"",""right"",""good_move""]","",""
"7721","","<div style=""width:500px;"">
  <p>What determined the result of this run?</p>
  </div>","67","html-slider-response","10","458889","0.0-5.0-1.0","92","1","2025-07-16 09:41:52","1f75c3e559b7213887762d5229550c2b","41.122.138.70","Mozilla/5.0 (Macintosh; Intel Mac OS X 10_15_7) AppleWebKit/537.36 (KHTML, like Gecko) Chrome/128.0.0.0 Safari/537.36","Macintosh","Chrome","128.0.0.0","OS X","10_15_7","https://app.prolific.com/","en-GB,en-US;q=0.9,en;q=0.8","678bad003d15e6aba1ee5a5d","68764874ac79eee8c1d4cb03","687762ccbca424a2b2ebd616","2","0","678bad003d15e6aba1ee5a5d","2","0","2025-07-16T09:49:33.286Z","","","","","","","","","","","AttribQ","","50","","","","","","","","","","","","","","","","","","","","","","","","","","","","",""
"3005","","<div style=""width:500px;"">
  <p>How much control did you have over the ball?</p>
  </div>","33","html-slider-response","11","461896","0.0-5.0-2.0","92","1","2025-07-16 09:41:52","1f75c3e559b7213887762d5229550c2b","41.122.138.70","Mozilla/5.0 (Macintosh; Intel Mac OS X 10_15_7) AppleWebKit/537.36 (KHTML, like Gecko) Chrome/128.0.0.0 Safari/537.36","Macintosh","Chrome","128.0.0.0","OS X","10_15_7","https://app.prolific.com/","en-GB,en-US;q=0.9,en;q=0.8","678bad003d15e6aba1ee5a5d","68764874ac79eee8c1d4cb03","687762ccbca424a2b2ebd616","2","0","678bad003d15e6aba1ee5a5d","2","0","2025-07-16T09:49:36.293Z","","","","","","","","","","","ControlQ","","50","","","","","","","","","","","","","","","","","","","","","","","","","","","","",""
"1380","","<div style=""width:500px;"">
  <p>How would you describe your current emotional state?</p>
  </div>","65","html-slider-response","12","463278","0.0-5.0-3.0","92","1","2025-07-16 09:41:52","1f75c3e559b7213887762d5229550c2b","41.122.138.70","Mozilla/5.0 (Macintosh; Intel Mac OS X 10_15_7) AppleWebKit/537.36 (KHTML, like Gecko) Chrome/128.0.0.0 Safari/537.36","Macintosh","Chrome","128.0.0.0","OS X","10_15_7","https://app.prolific.com/","en-GB,en-US;q=0.9,en;q=0.8","678bad003d15e6aba1ee5a5d","68764874ac79eee8c1d4cb03","687762ccbca424a2b2ebd616","2","0","678bad003d15e6aba1ee5a5d","2","0","2025-07-16T09:49:37.675Z","","","","","","","","","","","StressQ","","50","","","","","","","","","","","","","","","","","","","","","","","","","","","","",""
"133824","","<div style=""width:500px;"">
  <p>What best describes how you currently feel?</p>
  </div>","72","html-slider-response","13","597107","0.0-5.0-4.0","92","1","2025-07-16 09:41:52","1f75c3e559b7213887762d5229550c2b","41.122.138.70","Mozilla/5.0 (Macintosh; Intel Mac OS X 10_15_7) AppleWebKit/537.36 (KHTML, like Gecko) Chrome/128.0.0.0 Safari/537.36","Macintosh","Chrome","128.0.0.0","OS X","10_15_7","https://app.prolific.com/","en-GB,en-US;q=0.9,en;q=0.8","678bad003d15e6aba1ee5a5d","68764874ac79eee8c1d4cb03","687762ccbca424a2b2ebd616","2","0","678bad003d15e6aba1ee5a5d","2","0","2025-07-16T09:51:51.504Z","","","","","","","","","","","MotivationQ","","50","","","","","","","","","","","","","","","","","","","","","","","","","","","","",""
"","","","","ctl-task-cpt","14","625517","0.0-5.0-0.1","92","1","2025-07-16 09:41:52","1f75c3e559b7213887762d5229550c2b","41.122.138.70","Mozilla/5.0 (Macintosh; Intel Mac OS X 10_15_7) AppleWebKit/537.36 (KHTML, like Gecko) Chrome/128.0.0.0 Safari/537.36","Macintosh","Chrome","128.0.0.0","OS X","10_15_7","https://app.prolific.com/","en-GB,en-US;q=0.9,en;q=0.8","678bad003d15e6aba1ee5a5d","68764874ac79eee8c1d4cb03","687762ccbca424a2b2ebd616","2","0","678bad003d15e6aba1ee5a5d","2","0","2025-07-16T09:52:19.914Z","","","","","","","","","","","","","","win-only","3","g1:SW,g2:NE","0.9","2","0","600278.5","913.2","5921.8","25383.5","1","4","4","6","2","4","4","12","8","0.09090909090909091","1392.7","3000","470","[""up"",""right""]","{""num_key_presses"":6,""num_perfect"":6,""num_errors"":0,""num_randdir"":0,""num_randdir_good_moves"":0,""num_whilered"":0,""num_whileblue"":0,""num_blue"":1,""num_good_moves"":6}","[343.14285714285717,349.04910714285717,0.4,343.14285714285717,348.04910714285717,101.3,340.14285714285717,350.04910714285717,203.3,289.14285714285717,373.04910714285717,304.5,205.14285714285714,439.04910714285717,407.7,167.14285714285714,509.04910714285717,509.5,158.14285714285714,533.0491071428571,611.4,162.14285714285714,536.0491071428571,713.4,374.14285714285717,400.04910714285717,814.8,555.1428571428571,176.04910714285714,915.5,585.1428571428571,150.04910714285714,1021.3,590.1428571428571,146.04910714285714,1123.1,601.1428571428571,94.04910714285714,1225.1,615.1428571428571,46.049107142857146,1328.2,616.1428571428571,45.049107142857146,1429.1,616.1428571428571,46.049107142857146,1542.5,381.14285714285717,237.04910714285714,1643.4,-138.85714285714286,686.0491071428571,1745.2,-171.85714285714286,726.0491071428571,1850.7,-171.85714285714286,726.0491071428571,1953.5,-171.85714285714286,726.0491071428571,2053.6,-171.85714285714286,726.0491071428571,2160.1,-171.85714285714286,726.0491071428571,2263.8,-171.85714285714286,726.0491071428571,2368.4,-171.85714285714286,726.0491071428571,2475.2,-171.85714285714286,726.0491071428571,2582.2,-171.85714285714286,726.0491071428571,2684.8,-171.85714285714286,726.0491071428571,2788.4,-171.85714285714286,726.0491071428571,2889.3,-171.85714285714286,726.0491071428571,2993.2,-171.85714285714286,726.0491071428571,3098.4,-171.85714285714286,726.0491071428571,3198.7,-171.85714285714286,726.0491071428571,3299.3,-171.85714285714286,726.0491071428571,3408.1,-171.85714285714286,726.0491071428571,3511.1,-171.85714285714286,726.0491071428571,3613.9,-171.85714285714286,726.0491071428571,3717.5,-171.85714285714286,726.0491071428571,3818.6,-171.85714285714286,726.0491071428571,3922.6,-171.85714285714286,726.0491071428571,4024,-171.85714285714286,726.0491071428571,4124.3,-171.85714285714286,726.0491071428571,4225.3,-171.85714285714286,726.0491071428571,4328.5,-171.85714285714286,726.0491071428571,4428.7,-171.85714285714286,726.0491071428571,4534.2,-171.85714285714286,726.0491071428571,4634.7,-171.85714285714286,726.0491071428571,4736,-171.85714285714286,726.0491071428571,4837.6,-171.85714285714286,726.0491071428571,4943.6]","[1615.4,1615.5,1000,0,615.5,""smooth"",""up"",""up"",""good_move"",4179.5,2562.6,2131.4,1616.9,431.2,""smooth"",""up"",""up"",""good_move"",7856.3,3676.4,3287.3,4179.9,389.1,""smooth"",""up"",""up"",""good_move"",13078.7,5222.1,1311.3,11364.3,403.1,""smooth"",""right"",""right"",""good_move"",16696.2,3617.2,3099.9,13079,517.3,""smooth"",""right"",""right"",""good_move"",19367.8,2671.4,2278.2,16696.5,393.2,""smooth"",""right"",""right"",""good_move""]","",""
"9001","","<div style=""width:500px;"">
  <p>What determined the result of this run?</p>
  </div>","72","html-slider-response","15","634519","0.0-5.0-1.1","92","1","2025-07-16 09:41:52","1f75c3e559b7213887762d5229550c2b","41.122.138.70","Mozilla/5.0 (Macintosh; Intel Mac OS X 10_15_7) AppleWebKit/537.36 (KHTML, like Gecko) Chrome/128.0.0.0 Safari/537.36","Macintosh","Chrome","128.0.0.0","OS X","10_15_7","https://app.prolific.com/","en-GB,en-US;q=0.9,en;q=0.8","678bad003d15e6aba1ee5a5d","68764874ac79eee8c1d4cb03","687762ccbca424a2b2ebd616","2","0","678bad003d15e6aba1ee5a5d","2","0","2025-07-16T09:52:28.916Z","","","","","","","","","","","AttribQ","","50","","","","","","","","","","","","","","","","","","","","","","","","","","","","",""
"1311","","<div style=""width:500px;"">
  <p>How much control did you have over the ball?</p>
  </div>","25","html-slider-response","16","635832","0.0-5.0-2.1","92","1","2025-07-16 09:41:52","1f75c3e559b7213887762d5229550c2b","41.122.138.70","Mozilla/5.0 (Macintosh; Intel Mac OS X 10_15_7) AppleWebKit/537.36 (KHTML, like Gecko) Chrome/128.0.0.0 Safari/537.36","Macintosh","Chrome","128.0.0.0","OS X","10_15_7","https://app.prolific.com/","en-GB,en-US;q=0.9,en;q=0.8","678bad003d15e6aba1ee5a5d","68764874ac79eee8c1d4cb03","687762ccbca424a2b2ebd616","2","0","678bad003d15e6aba1ee5a5d","2","0","2025-07-16T09:52:30.229Z","","","","","","","","","","","ControlQ","","50","","","","","","","","","","","","","","","","","","","","","","","","","","","","",""
"1145","","<div style=""width:500px;"">
  <p>How would you describe your current emotional state?</p>
  </div>","65","html-slider-response","17","636978","0.0-5.0-3.1","92","1","2025-07-16 09:41:52","1f75c3e559b7213887762d5229550c2b","41.122.138.70","Mozilla/5.0 (Macintosh; Intel Mac OS X 10_15_7) AppleWebKit/537.36 (KHTML, like Gecko) Chrome/128.0.0.0 Safari/537.36","Macintosh","Chrome","128.0.0.0","OS X","10_15_7","https://app.prolific.com/","en-GB,en-US;q=0.9,en;q=0.8","678bad003d15e6aba1ee5a5d","68764874ac79eee8c1d4cb03","687762ccbca424a2b2ebd616","2","0","678bad003d15e6aba1ee5a5d","2","0","2025-07-16T09:52:31.375Z","","","","","","","","","","","StressQ","","50","","","","","","","","","","","","","","","","","","","","","","","","","","","","",""
"1166","","<div style=""width:500px;"">
  <p>What best describes how you currently feel?</p>
  </div>","65","html-slider-response","18","638145","0.0-5.0-4.1","92","1","2025-07-16 09:41:52","1f75c3e559b7213887762d5229550c2b","41.122.138.70","Mozilla/5.0 (Macintosh; Intel Mac OS X 10_15_7) AppleWebKit/537.36 (KHTML, like Gecko) Chrome/128.0.0.0 Safari/537.36","Macintosh","Chrome","128.0.0.0","OS X","10_15_7","https://app.prolific.com/","en-GB,en-US;q=0.9,en;q=0.8","678bad003d15e6aba1ee5a5d","68764874ac79eee8c1d4cb03","687762ccbca424a2b2ebd616","2","0","678bad003d15e6aba1ee5a5d","2","0","2025-07-16T09:52:32.543Z","","","","","","","","","","","MotivationQ","","50","","","","","","","","","","","","","","","","","","","","","","","","","","","","",""
"","","","","ctl-task-cpt","19","673483","0.0-5.0-0.2","92","1","2025-07-16 09:41:52","1f75c3e559b7213887762d5229550c2b","41.122.138.70","Mozilla/5.0 (Macintosh; Intel Mac OS X 10_15_7) AppleWebKit/537.36 (KHTML, like Gecko) Chrome/128.0.0.0 Safari/537.36","Macintosh","Chrome","128.0.0.0","OS X","10_15_7","https://app.prolific.com/","en-GB,en-US;q=0.9,en;q=0.8","678bad003d15e6aba1ee5a5d","68764874ac79eee8c1d4cb03","687762ccbca424a2b2ebd616","2","0","678bad003d15e6aba1ee5a5d","2","0","2025-07-16T09:53:07.880Z","","","","","","","","","","","","","","win-only","1","g1:NE,g2:SW","0.8","3","0","641315.8","1466.2","6466.8","32313.8","1","4","8","6","2","8","8","20","12","0.15151515151515152","923.7","3000","280","[""down"",""left""]","{""num_key_presses"":6,""num_perfect"":6,""num_errors"":0,""num_randdir"":0,""num_randdir_good_moves"":0,""num_whilered"":0,""num_whileblue"":0,""num_blue"":2,""num_good_moves"":6}","[346.14285714285717,347.04910714285717,0.4,346.14285714285717,347.04910714285717,104.5,346.14285714285717,348.04910714285717,204.9,345.14285714285717,371.04910714285717,305,313.14285714285717,434.04910714285717,410.7,219.14285714285714,553.0491071428571,515.8,145.14285714285714,638.0491071428571,619.7,116.14285714285714,640.0491071428571,721.2,83.14285714285714,642.0491071428571,828.4,82.14285714285714,642.0491071428571,930.2,82.14285714285714,642.0491071428571,1030.9,82.14285714285714,642.0491071428571,1136.4,80.14285714285714,643.0491071428571,1240,19.142857142857146,659.0491071428571,1340.6,3.142857142857146,654.0491071428571,1440.6,3.142857142857146,654.0491071428571,1545.5,3.142857142857146,654.0491071428571,1649.5,3.142857142857146,654.0491071428571,1750,3.142857142857146,654.0491071428571,1855.1,3.142857142857146,654.0491071428571,1960.5,3.142857142857146,654.0491071428571,2063.2,3.142857142857146,654.0491071428571,2165.3,3.142857142857146,654.0491071428571,2265.3,3.142857142857146,654.0491071428571,2370.6,3.142857142857146,654.0491071428571,2475.9,3.142857142857146,654.0491071428571,2577.7,3.142857142857146,654.0491071428571,2680.5,3.142857142857146,654.0491071428571,2782.4,3.142857142857146,654.0491071428571,2884.5,3.142857142857146,654.0491071428571,2984.6,3.142857142857146,654.0491071428571,3085.3,3.142857142857146,654.0491071428571,3185.9,3.142857142857146,654.0491071428571,3290,3.142857142857146,654.0491071428571,3390.3,3.142857142857146,654.0491071428571,3495.3,3.142857142857146,654.0491071428571,3599.8,3.142857142857146,654.0491071428571,3701.8,3.142857142857146,654.0491071428571,3804.3,3.142857142857146,654.0491071428571,3904.8,3.142857142857146,654.0491071428571,4004.9,3.142857142857146,654.0491071428571,4111.4,3.142857142857146,654.0491071428571,4218.2,3.142857142857146,654.0491071428571,4320.5,3.142857142857146,654.0491071428571,4427.1,3.142857142857146,654.0491071428571,4529.8,3.142857142857146,654.0491071428571,4629.9,3.142857142857146,654.0491071428571,4736.2,3.142857142857146,654.0491071428571,4840.2,3.142857142857146,654.0491071428571,4945.4]","[1558,1558,1000,0,558,""smooth"",""down"",""down"",""good_move"",5404.4,3846.1,3412.3,1558.3,433.8,""smooth"",""down"",""down"",""good_move"",12256.5,6851.5,2766.9,9095.4,394.2,""smooth"",""down"",""down"",""good_move"",16460.1,4203.3,1975.4,12256.8,2227.9,""smooth"",""left"",""left"",""good_move"",19239,2778.3,1800.6,16460.7,977.7,""smooth"",""left"",""left"",""good_move"",25757.6,6518.4,2201.7,23195.4,360.5,""smooth"",""left"",""left"",""good_move""]","",""
"5482","","<div style=""width:500px;"">
  <p>What determined the result of this run?</p>
  </div>","79","html-slider-response","20","678965","0.0-5.0-1.2","92","1","2025-07-16 09:41:52","1f75c3e559b7213887762d5229550c2b","41.122.138.70","Mozilla/5.0 (Macintosh; Intel Mac OS X 10_15_7) AppleWebKit/537.36 (KHTML, like Gecko) Chrome/128.0.0.0 Safari/537.36","Macintosh","Chrome","128.0.0.0","OS X","10_15_7","https://app.prolific.com/","en-GB,en-US;q=0.9,en;q=0.8","678bad003d15e6aba1ee5a5d","68764874ac79eee8c1d4cb03","687762ccbca424a2b2ebd616","2","0","678bad003d15e6aba1ee5a5d","2","0","2025-07-16T09:53:13.362Z","","","","","","","","","","","AttribQ","","50","","","","","","","","","","","","","","","","","","","","","","","","","","","","",""
"1191","","<div style=""width:500px;"">
  <p>How much control did you have over the ball?</p>
  </div>","33","html-slider-response","21","680157","0.0-5.0-2.2","92","1","2025-07-16 09:41:52","1f75c3e559b7213887762d5229550c2b","41.122.138.70","Mozilla/5.0 (Macintosh; Intel Mac OS X 10_15_7) AppleWebKit/537.36 (KHTML, like Gecko) Chrome/128.0.0.0 Safari/537.36","Macintosh","Chrome","128.0.0.0","OS X","10_15_7","https://app.prolific.com/","en-GB,en-US;q=0.9,en;q=0.8","678bad003d15e6aba1ee5a5d","68764874ac79eee8c1d4cb03","687762ccbca424a2b2ebd616","2","0","678bad003d15e6aba1ee5a5d","2","0","2025-07-16T09:53:14.554Z","","","","","","","","","","","ControlQ","","50","","","","","","","","","","","","","","","","","","","","","","","","","","","","",""
"2082","","<div style=""width:500px;"">
  <p>How would you describe your current emotional state?</p>
  </div>","37","html-slider-response","22","682242","0.0-5.0-3.2","92","1","2025-07-16 09:41:52","1f75c3e559b7213887762d5229550c2b","41.122.138.70","Mozilla/5.0 (Macintosh; Intel Mac OS X 10_15_7) AppleWebKit/537.36 (KHTML, like Gecko) Chrome/128.0.0.0 Safari/537.36","Macintosh","Chrome","128.0.0.0","OS X","10_15_7","https://app.prolific.com/","en-GB,en-US;q=0.9,en;q=0.8","678bad003d15e6aba1ee5a5d","68764874ac79eee8c1d4cb03","687762ccbca424a2b2ebd616","2","0","678bad003d15e6aba1ee5a5d","2","0","2025-07-16T09:53:16.639Z","","","","","","","","","","","StressQ","","50","","","","","","","","","","","","","","","","","","","","","","","","","","","","",""
"1520","","<div style=""width:500px;"">
  <p>What best describes how you currently feel?</p>
  </div>","64","html-slider-response","23","683763","0.0-5.0-4.2","92","1","2025-07-16 09:41:52","1f75c3e559b7213887762d5229550c2b","41.122.138.70","Mozilla/5.0 (Macintosh; Intel Mac OS X 10_15_7) AppleWebKit/537.36 (KHTML, like Gecko) Chrome/128.0.0.0 Safari/537.36","Macintosh","Chrome","128.0.0.0","OS X","10_15_7","https://app.prolific.com/","en-GB,en-US;q=0.9,en;q=0.8","678bad003d15e6aba1ee5a5d","68764874ac79eee8c1d4cb03","687762ccbca424a2b2ebd616","2","0","678bad003d15e6aba1ee5a5d","2","0","2025-07-16T09:53:18.160Z","","","","","","","","","","","MotivationQ","","50","","","","","","","","","","","","","","","","","","","","","","","","","","","","",""
"","","","","ctl-task-cpt","24","744169","0.0-5.0-0.3","92","1","2025-07-16 09:41:52","1f75c3e559b7213887762d5229550c2b","41.122.138.70","Mozilla/5.0 (Macintosh; Intel Mac OS X 10_15_7) AppleWebKit/537.36 (KHTML, like Gecko) Chrome/128.0.0.0 Safari/537.36","Macintosh","Chrome","128.0.0.0","OS X","10_15_7","https://app.prolific.com/","en-GB,en-US;q=0.9,en;q=0.8","678bad003d15e6aba1ee5a5d","68764874ac79eee8c1d4cb03","687762ccbca424a2b2ebd616","2","0","678bad003d15e6aba1ee5a5d","2","0","2025-07-16T09:54:18.566Z","","","","","","","","","","","","","","win-only","3","g1:SW,g2:NE","0.7","4","0","686930.8","747.3","5784.2","57390.5","1","4","4","6","2","-4","-5","15","20","0.11363636363636363","1133.9","3000","-2535","[""up"",""right""]","{""num_key_presses"":11,""num_perfect"":7,""num_errors"":1,""num_randdir"":3,""num_randdir_good_moves"":1,""num_whilered"":0,""num_whileblue"":1,""num_blue"":6,""num_good_moves"":7}","[352.14285714285717,350.04910714285717,0.2,352.14285714285717,350.04910714285717,100.1,350.14285714285717,353.04910714285717,212.3,342.14285714285717,401.04910714285717,314.9,286.14285714285717,510.04910714285717,417.4,208.14285714285714,550.0491071428571,523.3,193.14285714285714,556.0491071428571,623.8,316.14285714285717,441.04910714285717,729.3,579.1428571428571,164.04910714285714,831,648.1428571428571,95.04910714285714,940.3,658.1428571428571,72.04910714285714,1042.3,658.1428571428571,66.04910714285714,1144.9,656.1428571428571,68.04910714285714,1245.5,611.1428571428571,128.04910714285714,1345.9,352.14285714285717,399.04910714285717,1447.3,-170.85714285714286,739.0491071428571,1548.8,-221.85714285714286,751.0491071428571,1650.3,-221.85714285714286,751.0491071428571,1751.7,-221.85714285714286,751.0491071428571,1860.9,-221.85714285714286,751.0491071428571,1963.8,-221.85714285714286,751.0491071428571,2064.2,-221.85714285714286,751.0491071428571,2170.5,-221.85714285714286,751.0491071428571,2273.9,-221.85714285714286,751.0491071428571,2378.8,-221.85714285714286,751.0491071428571,2486.8,-221.85714285714286,751.0491071428571,2588.9,-221.85714285714286,751.0491071428571,2693.6,-221.85714285714286,751.0491071428571,2794.1,-221.85714285714286,751.0491071428571,2894.1,-221.85714285714286,751.0491071428571,2994.4,-221.85714285714286,751.0491071428571,3098.7,-221.85714285714286,751.0491071428571,3203.3,-221.85714285714286,751.0491071428571,3304.9,-221.85714285714286,751.0491071428571,3409.3,-221.85714285714286,751.0491071428571,3513.9,-221.85714285714286,751.0491071428571,3614.1,-221.85714285714286,751.0491071428571,3721.5,-221.85714285714286,751.0491071428571,3824.2,-221.85714285714286,751.0491071428571,3928.7,-221.85714285714286,751.0491071428571,4030.1,-221.85714285714286,751.0491071428571,4134,-221.85714285714286,751.0491071428571,4258.8,-221.85714285714286,751.0491071428571,4372.6,-221.85714285714286,751.0491071428571,4476.7,-221.85714285714286,751.0491071428571,4578.2,-221.85714285714286,751.0491071428571,4678.6,-221.85714285714286,751.0491071428571,4779.1,-221.85714285714286,751.0491071428571,4883.8]","[8669.2,8669.2,2431.5,5723.8,514,""smooth"",""right"",""right"",""good_move"",12132,3462.2,2658.3,8669.8,803.9,""smooth"",""right"",""right"",""good_move"",19077.3,6944.9,3225.8,15412.9,438.7,""smooth"",""up"",""up"",""good_move"",21331.8,2254,1760.4,19077.8,493.6,""smooth"",""up"",""up"",""good_move"",28866.8,7534.3,3238.6,25222.1,406.1,""smooth"",""up"",""up"",""good_move"",31725.9,2858.5,2327.1,28867.4,531.4,""oops"",""right"",""left"",""bad_move"",35247,3520.5,3156.9,31726.5,363.6,""smooth"",""left"",""left"",""bad_move"",38058.7,2811.3,2429.5,35247.4,381.8,""while_blue"",""right"",""left"",""bad_move"",43627.8,5568.1,1607.3,41526.8,493.7,""smooth"",""right"",""right"",""good_move"",46856,3227.7,2792.1,43628.3,435.6,""oops"",""right"",""right"",""good_move"",49825,2964.6,2583.9,46860.4,380.7,""oops"",""right"",""down"",""bad_move""]","",""
"4217","","<div style=""width:500px;"">
  <p>What determined the result of this run?</p>
  </div>","39","html-slider-response","25","748387","0.0-5.0-1.3","92","1","2025-07-16 09:41:52","1f75c3e559b7213887762d5229550c2b","41.122.138.70","Mozilla/5.0 (Macintosh; Intel Mac OS X 10_15_7) AppleWebKit/537.36 (KHTML, like Gecko) Chrome/128.0.0.0 Safari/537.36","Macintosh","Chrome","128.0.0.0","OS X","10_15_7","https://app.prolific.com/","en-GB,en-US;q=0.9,en;q=0.8","678bad003d15e6aba1ee5a5d","68764874ac79eee8c1d4cb03","687762ccbca424a2b2ebd616","2","0","678bad003d15e6aba1ee5a5d","2","0","2025-07-16T09:54:22.784Z","","","","","","","","","","","AttribQ","","50","","","","","","","","","","","","","","","","","","","","","","","","","","","","",""
"1075","","<div style=""width:500px;"">
  <p>How much control did you have over the ball?</p>
  </div>","32","html-slider-response","26","749463","0.0-5.0-2.3","92","1","2025-07-16 09:41:52","1f75c3e559b7213887762d5229550c2b","41.122.138.70","Mozilla/5.0 (Macintosh; Intel Mac OS X 10_15_7) AppleWebKit/537.36 (KHTML, like Gecko) Chrome/128.0.0.0 Safari/537.36","Macintosh","Chrome","128.0.0.0","OS X","10_15_7","https://app.prolific.com/","en-GB,en-US;q=0.9,en;q=0.8","678bad003d15e6aba1ee5a5d","68764874ac79eee8c1d4cb03","687762ccbca424a2b2ebd616","2","0","678bad003d15e6aba1ee5a5d","2","0","2025-07-16T09:54:23.860Z","","","","","","","","","","","ControlQ","","50","","","","","","","","","","","","","","","","","","","","","","","","","","","","",""
"1128","","<div style=""width:500px;"">
  <p>How would you describe your current emotional state?</p>
  </div>","33","html-slider-response","27","750592","0.0-5.0-3.3","92","1","2025-07-16 09:41:52","1f75c3e559b7213887762d5229550c2b","41.122.138.70","Mozilla/5.0 (Macintosh; Intel Mac OS X 10_15_7) AppleWebKit/537.36 (KHTML, like Gecko) Chrome/128.0.0.0 Safari/537.36","Macintosh","Chrome","128.0.0.0","OS X","10_15_7","https://app.prolific.com/","en-GB,en-US;q=0.9,en;q=0.8","678bad003d15e6aba1ee5a5d","68764874ac79eee8c1d4cb03","687762ccbca424a2b2ebd616","2","0","678bad003d15e6aba1ee5a5d","2","0","2025-07-16T09:54:24.990Z","","","","","","","","","","","StressQ","","50","","","","","","","","","","","","","","","","","","","","","","","","","","","","",""
"1151","","<div style=""width:500px;"">
  <p>What best describes how you currently feel?</p>
  </div>","55","html-slider-response","28","751744","0.0-5.0-4.3","92","1","2025-07-16 09:41:52","1f75c3e559b7213887762d5229550c2b","41.122.138.70","Mozilla/5.0 (Macintosh; Intel Mac OS X 10_15_7) AppleWebKit/537.36 (KHTML, like Gecko) Chrome/128.0.0.0 Safari/537.36","Macintosh","Chrome","128.0.0.0","OS X","10_15_7","https://app.prolific.com/","en-GB,en-US;q=0.9,en;q=0.8","678bad003d15e6aba1ee5a5d","68764874ac79eee8c1d4cb03","687762ccbca424a2b2ebd616","2","0","678bad003d15e6aba1ee5a5d","2","0","2025-07-16T09:54:26.141Z","","","","","","","","","","","MotivationQ","","50","","","","","","","","","","","","","","","","","","","","","","","","","","","","",""
"","","","","ctl-task-cpt","29","797100","0.0-5.0-0.4","92","1","2025-07-16 09:41:52","1f75c3e559b7213887762d5229550c2b","41.122.138.70","Mozilla/5.0 (Macintosh; Intel Mac OS X 10_15_7) AppleWebKit/537.36 (KHTML, like Gecko) Chrome/128.0.0.0 Safari/537.36","Macintosh","Chrome","128.0.0.0","OS X","10_15_7","https://app.prolific.com/","en-GB,en-US;q=0.9,en;q=0.8","678bad003d15e6aba1ee5a5d","68764874ac79eee8c1d4cb03","687762ccbca424a2b2ebd616","2","0","678bad003d15e6aba1ee5a5d","2","0","2025-07-16T09:55:11.498Z","","","","","","","","","","","","","","win-only","3","g1:SW,g2:NE","0.6","5","0","754910.7","1855.6","6861.3","42336.3","1","4","4","6","2","-4","-4","11","15","0.08333333333333333","1441.8","3000","-2250","[""up"",""right""]","{""num_key_presses"":9,""num_perfect"":6,""num_errors"":0,""num_randdir"":3,""num_randdir_good_moves"":1,""num_whilered"":0,""num_whileblue"":0,""num_blue"":2,""num_good_moves"":7}","[349.14285714285717,354.04910714285717,0.5,349.14285714285717,354.04910714285717,111,348.14285714285717,361.04910714285717,214,346.14285714285717,445.04910714285717,315.2,230.14285714285714,602.0491071428571,420.4,200.14285714285714,621.0491071428571,521.8,191.14285714285714,616.0491071428571,627,298.14285714285717,555.0491071428571,727.3,1066.142857142857,347.04910714285717,832,963.1428571428571,-98.95089285714286,936.7,728.1428571428571,-94.95089285714286,1044.8,759.1428571428571,-56.950892857142854,1146.7,693.1428571428571,39.049107142857146,1250.9,672.1428571428571,59.049107142857146,1356.8,672.1428571428571,59.049107142857146,1464.1,672.1428571428571,62.049107142857146,1565.9,611.1428571428571,167.04910714285714,1666.9,166.14285714285714,499.04910714285717,1768.6,102.14285714285714,506.04910714285717,1878.7,102.14285714285714,506.04910714285717,1981.3,102.14285714285714,506.04910714285717,2087.6,102.14285714285714,506.04910714285717,2191.3,102.14285714285714,506.04910714285717,2292.7,102.14285714285714,506.04910714285717,2395,102.14285714285714,506.04910714285717,2496.1,102.14285714285714,506.04910714285717,2600.2,102.14285714285714,506.04910714285717,2706.8,102.14285714285714,506.04910714285717,2814.5,102.14285714285714,506.04910714285717,2915.7,102.14285714285714,506.04910714285717,3028.4,102.14285714285714,506.04910714285717,3130.2,102.14285714285714,506.04910714285717,3232.4,102.14285714285714,506.04910714285717,3333,102.14285714285714,506.04910714285717,3436,102.14285714285714,506.04910714285717,3542.2,102.14285714285714,506.04910714285717,3643,102.14285714285714,506.04910714285717,3746.9,102.14285714285714,506.04910714285717,3856.4,102.14285714285714,506.04910714285717,3960.8,102.14285714285714,506.04910714285717,4064.6,102.14285714285714,506.04910714285717,4165.7,102.14285714285714,506.04910714285717,4271.3,102.14285714285714,506.04910714285717,4375.4,102.14285714285714,506.04910714285717,4480,102.14285714285714,506.04910714285717,4580.5,102.14285714285714,506.04910714285717,4680.9,102.14285714285714,506.04910714285717,4786,102.14285714285714,506.04910714285717,4889.4,102.14285714285714,506.04910714285717,4990.6]","[5402.8,5402.8,2658.7,2024.4,719.7,""oops"",""right"",""left"",""bad_move"",9775.3,4371.7,2547.7,5403.6,1824,""smooth"",""right"",""right"",""good_move"",13268.3,3492.6,1948.9,9775.7,1543.7,""oops"",""right"",""up"",""good_move"",16836.1,3567.4,3111.5,13268.8,455.9,""smooth"",""right"",""right"",""good_move"",19093.5,2256.9,1792.4,16836.6,464.5,""smooth"",""right"",""right"",""good_move"",21999.8,2904.7,2489.9,19095.1,414.8,""smooth"",""right"",""right"",""good_move"",27113.5,5113.5,1741.9,24940.6,431,""oops"",""up"",""left"",""bad_move"",29748,2634,2206.9,27114,427.1,""smooth"",""up"",""up"",""good_move"",32492.7,2744.5,2334.4,29748.2,410.1,""smooth"",""up"",""up"",""good_move""]","",""
"3125","","<div style=""width:500px;"">
  <p>What determined the result of this run?</p>
  </div>","30","html-slider-response","30","800228","0.0-5.0-1.4","92","1","2025-07-16 09:41:52","1f75c3e559b7213887762d5229550c2b","41.122.138.70","Mozilla/5.0 (Macintosh; Intel Mac OS X 10_15_7) AppleWebKit/537.36 (KHTML, like Gecko) Chrome/128.0.0.0 Safari/537.36","Macintosh","Chrome","128.0.0.0","OS X","10_15_7","https://app.prolific.com/","en-GB,en-US;q=0.9,en;q=0.8","678bad003d15e6aba1ee5a5d","68764874ac79eee8c1d4cb03","687762ccbca424a2b2ebd616","2","0","678bad003d15e6aba1ee5a5d","2","0","2025-07-16T09:55:14.625Z","","","","","","","","","","","AttribQ","","50","","","","","","","","","","","","","","","","","","","","","","","","","","","","",""
"1593","","<div style=""width:500px;"">
  <p>How much control did you have over the ball?</p>
  </div>","35","html-slider-response","31","801824","0.0-5.0-2.4","92","1","2025-07-16 09:41:52","1f75c3e559b7213887762d5229550c2b","41.122.138.70","Mozilla/5.0 (Macintosh; Intel Mac OS X 10_15_7) AppleWebKit/537.36 (KHTML, like Gecko) Chrome/128.0.0.0 Safari/537.36","Macintosh","Chrome","128.0.0.0","OS X","10_15_7","https://app.prolific.com/","en-GB,en-US;q=0.9,en;q=0.8","678bad003d15e6aba1ee5a5d","68764874ac79eee8c1d4cb03","687762ccbca424a2b2ebd616","2","0","678bad003d15e6aba1ee5a5d","2","0","2025-07-16T09:55:16.221Z","","","","","","","","","","","ControlQ","","50","","","","","","","","","","","","","","","","","","","","","","","","","","","","",""
"3027","","<div style=""width:500px;"">
  <p>How would you describe your current emotional state?</p>
  </div>","65","html-slider-response","32","804856","0.0-5.0-3.4","92","1","2025-07-16 09:41:52","1f75c3e559b7213887762d5229550c2b","41.122.138.70","Mozilla/5.0 (Macintosh; Intel Mac OS X 10_15_7) AppleWebKit/537.36 (KHTML, like Gecko) Chrome/128.0.0.0 Safari/537.36","Macintosh","Chrome","128.0.0.0","OS X","10_15_7","https://app.prolific.com/","en-GB,en-US;q=0.9,en;q=0.8","678bad003d15e6aba1ee5a5d","68764874ac79eee8c1d4cb03","687762ccbca424a2b2ebd616","2","0","678bad003d15e6aba1ee5a5d","2","0","2025-07-16T09:55:19.253Z","","","","","","","","","","","StressQ","","50","","","","","","","","","","","","","","","","","","","","","","","","","","","","",""
"1574","","<div style=""width:500px;"">
  <p>What best describes how you currently feel?</p>
  </div>","43","html-slider-response","33","806435","0.0-5.0-4.4","92","1","2025-07-16 09:41:52","1f75c3e559b7213887762d5229550c2b","41.122.138.70","Mozilla/5.0 (Macintosh; Intel Mac OS X 10_15_7) AppleWebKit/537.36 (KHTML, like Gecko) Chrome/128.0.0.0 Safari/537.36","Macintosh","Chrome","128.0.0.0","OS X","10_15_7","https://app.prolific.com/","en-GB,en-US;q=0.9,en;q=0.8","678bad003d15e6aba1ee5a5d","68764874ac79eee8c1d4cb03","687762ccbca424a2b2ebd616","2","0","678bad003d15e6aba1ee5a5d","2","0","2025-07-16T09:55:20.832Z","","","","","","","","","","","MotivationQ","","50","","","","","","","","","","","","","","","","","","","","","","","","","","","","",""
"","","","","ctl-task-cpt","34","850504","0.0-5.0-0.5","92","1","2025-07-16 09:41:52","1f75c3e559b7213887762d5229550c2b","41.122.138.70","Mozilla/5.0 (Macintosh; Intel Mac OS X 10_15_7) AppleWebKit/537.36 (KHTML, like Gecko) Chrome/128.0.0.0 Safari/537.36","Macintosh","Chrome","128.0.0.0","OS X","10_15_7","https://app.prolific.com/","en-GB,en-US;q=0.9,en;q=0.8","678bad003d15e6aba1ee5a5d","68764874ac79eee8c1d4cb03","687762ccbca424a2b2ebd616","2","0","678bad003d15e6aba1ee5a5d","2","0","2025-07-16T09:56:04.901Z","","","","","","","","","","","","","","win-only","1","g1:NE,g2:SW","0.5","6","0","809600.6","2534.5","7537.8","41049.3","1","4","8","6","2","8","8","19","11","0.14393939393939395","998.6","3000","770","[""down"",""left""]","{""num_key_presses"":8,""num_perfect"":4,""num_errors"":0,""num_randdir"":4,""num_randdir_good_moves"":3,""num_whilered"":0,""num_whileblue"":0,""num_blue"":3,""num_good_moves"":7}","[343.14285714285717,339.04910714285717,1.1,341.14285714285717,342.04910714285717,167.2,341.14285714285717,353.04910714285717,268,325.14285714285717,403.04910714285717,381.7,267.14285714285717,447.04910714285717,482.8,143.14285714285714,522.0491071428571,604.1,79.14285714285714,575.0491071428571,711.8,76.14285714285714,581.0491071428571,815.1,64.14285714285714,601.0491071428571,916.6,63.142857142857146,603.0491071428571,1023.3,63.142857142857146,602.0491071428571,1142.2,63.142857142857146,596.0491071428571,1243.5,63.142857142857146,595.0491071428571,1347.8,63.142857142857146,595.0491071428571,1452.8,63.142857142857146,595.0491071428571,1555.8,63.142857142857146,595.0491071428571,1664.2,63.142857142857146,595.0491071428571,1770.5,63.142857142857146,595.0491071428571,1875.9,63.142857142857146,595.0491071428571,1976.6,63.142857142857146,595.0491071428571,2078.8,63.142857142857146,595.0491071428571,2181.8,63.142857142857146,595.0491071428571,2290.9,63.142857142857146,595.0491071428571,2394.8,63.142857142857146,595.0491071428571,2496.5,63.142857142857146,595.0491071428571,2601.8,63.142857142857146,595.0491071428571,2702.3,63.142857142857146,595.0491071428571,2807.8,63.142857142857146,595.0491071428571,2911.1,63.142857142857146,595.0491071428571,3012.4,63.142857142857146,595.0491071428571,3116.8,63.142857142857146,595.0491071428571,3216.9,63.142857142857146,595.0491071428571,3318.1,63.142857142857146,595.0491071428571,3425.2,63.142857142857146,595.0491071428571,3531,63.142857142857146,595.0491071428571,3632.9,63.142857142857146,595.0491071428571,3737,63.142857142857146,595.0491071428571,3846,63.142857142857146,595.0491071428571,3948,63.142857142857146,595.0491071428571,4049.3,63.142857142857146,595.0491071428571,4158.6,63.142857142857146,595.0491071428571,4263.4,63.142857142857146,595.0491071428571,4365.6,63.142857142857146,595.0491071428571,4468.3,63.142857142857146,595.0491071428571,4575.1,63.142857142857146,595.0491071428571,4676.3,63.142857142857146,595.0491071428571,4781.9,63.142857142857146,595.0491071428571,4882.7,63.142857142857146,595.0491071428571,4985.5]","[1489.1,1489.1,1000,0,489.1,""smooth"",""left"",""left"",""good_move"",4082.3,2591.9,2210.8,1490.5,381,""oops"",""left"",""down"",""good_move"",7198.2,3115.3,2721.6,4082.9,393.7,""smooth"",""left"",""left"",""good_move"",10598.2,3399.9,2980.3,7198.3,419.6,""oops"",""left"",""left"",""good_move"",16848.5,6249.7,2094.9,14252.1,501.5,""oops"",""down"",""right"",""bad_move"",19903.4,3054.4,2401.5,16849.1,652.8,""oops"",""down"",""down"",""good_move"",30069.4,10165.3,2477.9,27118.5,473,""smooth"",""down"",""down"",""good_move"",33351.3,3281.7,2838.9,30069.7,442.7,""smooth"",""left"",""left"",""good_move""]","",""
"2042","","<div style=""width:500px;"">
  <p>What determined the result of this run?</p>
  </div>","63","html-slider-response","35","852549","0.0-5.0-1.5","92","1","2025-07-16 09:41:52","1f75c3e559b7213887762d5229550c2b","41.122.138.70","Mozilla/5.0 (Macintosh; Intel Mac OS X 10_15_7) AppleWebKit/537.36 (KHTML, like Gecko) Chrome/128.0.0.0 Safari/537.36","Macintosh","Chrome","128.0.0.0","OS X","10_15_7","https://app.prolific.com/","en-GB,en-US;q=0.9,en;q=0.8","678bad003d15e6aba1ee5a5d","68764874ac79eee8c1d4cb03","687762ccbca424a2b2ebd616","2","0","678bad003d15e6aba1ee5a5d","2","0","2025-07-16T09:56:06.946Z","","","","","","","","","","","AttribQ","","50","","","","","","","","","","","","","","","","","","","","","","","","","","","","",""
"1139","","<div style=""width:500px;"">
  <p>How much control did you have over the ball?</p>
  </div>","40","html-slider-response","36","853693","0.0-5.0-2.5","92","1","2025-07-16 09:41:52","1f75c3e559b7213887762d5229550c2b","41.122.138.70","Mozilla/5.0 (Macintosh; Intel Mac OS X 10_15_7) AppleWebKit/537.36 (KHTML, like Gecko) Chrome/128.0.0.0 Safari/537.36","Macintosh","Chrome","128.0.0.0","OS X","10_15_7","https://app.prolific.com/","en-GB,en-US;q=0.9,en;q=0.8","678bad003d15e6aba1ee5a5d","68764874ac79eee8c1d4cb03","687762ccbca424a2b2ebd616","2","0","678bad003d15e6aba1ee5a5d","2","0","2025-07-16T09:56:08.090Z","","","","","","","","","","","ControlQ","","50","","","","","","","","","","","","","","","","","","","","","","","","","","","","",""
"2315","","<div style=""width:500px;"">
  <p>How would you describe your current emotional state?</p>
  </div>","67","html-slider-response","37","856010","0.0-5.0-3.5","92","1","2025-07-16 09:41:52","1f75c3e559b7213887762d5229550c2b","41.122.138.70","Mozilla/5.0 (Macintosh; Intel Mac OS X 10_15_7) AppleWebKit/537.36 (KHTML, like Gecko) Chrome/128.0.0.0 Safari/537.36","Macintosh","Chrome","128.0.0.0","OS X","10_15_7","https://app.prolific.com/","en-GB,en-US;q=0.9,en;q=0.8","678bad003d15e6aba1ee5a5d","68764874ac79eee8c1d4cb03","687762ccbca424a2b2ebd616","2","0","678bad003d15e6aba1ee5a5d","2","0","2025-07-16T09:56:10.407Z","","","","","","","","","","","StressQ","","50","","","","","","","","","","","","","","","","","","","","","","","","","","","","",""
"1620","","<div style=""width:500px;"">
  <p>What best describes how you currently feel?</p>
  </div>","33","html-slider-response","38","857632","0.0-5.0-4.5","92","1","2025-07-16 09:41:52","1f75c3e559b7213887762d5229550c2b","41.122.138.70","Mozilla/5.0 (Macintosh; Intel Mac OS X 10_15_7) AppleWebKit/537.36 (KHTML, like Gecko) Chrome/128.0.0.0 Safari/537.36","Macintosh","Chrome","128.0.0.0","OS X","10_15_7","https://app.prolific.com/","en-GB,en-US;q=0.9,en;q=0.8","678bad003d15e6aba1ee5a5d","68764874ac79eee8c1d4cb03","687762ccbca424a2b2ebd616","2","0","678bad003d15e6aba1ee5a5d","2","0","2025-07-16T09:56:12.029Z","","","","","","","","","","","MotivationQ","","50","","","","","","","","","","","","","","","","","","","","","","","","","","","","",""
"","","","","ctl-task-cpt","39","901871","0.0-5.0-0.6","92","1","2025-07-16 09:41:52","1f75c3e559b7213887762d5229550c2b","41.122.138.70","Mozilla/5.0 (Macintosh; Intel Mac OS X 10_15_7) AppleWebKit/537.36 (KHTML, like Gecko) Chrome/128.0.0.0 Safari/537.36","Macintosh","Chrome","128.0.0.0","OS X","10_15_7","https://app.prolific.com/","en-GB,en-US;q=0.9,en;q=0.8","678bad003d15e6aba1ee5a5d","68764874ac79eee8c1d4cb03","687762ccbca424a2b2ebd616","2","0","678bad003d15e6aba1ee5a5d","2","0","2025-07-16T09:56:56.268Z","","","","","","","","","","","","","","win-only","3","g1:SW,g2:NE","0.4","7","0","860794.8","813.1","5824.9","41221.7","1","4","4","6","2","-4","-4","15","19","0.11363636363636363","1505.9","3000","-1710","[""up"",""right""]","{""num_key_presses"":7,""num_perfect"":1,""num_errors"":0,""num_randdir"":6,""num_randdir_good_moves"":2,""num_whilered"":0,""num_whileblue"":0,""num_blue"":3,""num_good_moves"":3}","[340.14285714285717,346.04910714285717,1,340.14285714285717,346.04910714285717,106.6,340.14285714285717,346.04910714285717,216.2,312.14285714285717,413.04910714285717,321.7,204.14285714285714,529.0491071428571,431.3,104.14285714285714,598.0491071428571,538.7,89.14285714285714,602.0491071428571,792.3,467.14285714285717,365.04910714285717,894.9,825.1428571428571,158.04910714285714,997.7,827.1428571428571,73.04910714285714,1099,706.1428571428571,36.049107142857146,1205.7,686.1428571428571,49.049107142857146,1320.7,678.1428571428571,54.049107142857146,1427.3,675.1428571428571,56.049107142857146,1534.4,674.1428571428571,59.049107142857146,1639.3,565.1428571428571,140.04910714285714,1745.8,424.14285714285717,241.04910714285714,1846.6,424.14285714285717,241.04910714285714,1952.4,424.14285714285717,241.04910714285714,2054.4,424.14285714285717,241.04910714285714,2170.3,424.14285714285717,241.04910714285714,2275.9,424.14285714285717,241.04910714285714,2378.4,424.14285714285717,241.04910714285714,2480.5,424.14285714285717,241.04910714285714,2583.1,424.14285714285717,241.04910714285714,2692.3,424.14285714285717,241.04910714285714,2800.9,424.14285714285717,241.04910714285714,2908.5,424.14285714285717,241.04910714285714,3013.9,424.14285714285717,241.04910714285714,3118.5,424.14285714285717,241.04910714285714,3229.5,424.14285714285717,241.04910714285714,3332.9,424.14285714285717,241.04910714285714,3434.8,424.14285714285717,241.04910714285714,3538.6,424.14285714285717,241.04910714285714,3644.8,424.14285714285717,241.04910714285714,3749.4,424.14285714285717,241.04910714285714,3849.7,424.14285714285717,241.04910714285714,3955.2,424.14285714285717,241.04910714285714,4056.1,424.14285714285717,241.04910714285714,4165.4,424.14285714285717,241.04910714285714,4271.3,424.14285714285717,241.04910714285714,4377.1,424.14285714285717,241.04910714285714,4478,424.14285714285717,241.04910714285714,4587.7,424.14285714285717,241.04910714285714,4696.1,424.14285714285717,241.04910714285714,4812,424.14285714285717,241.04910714285714,4923.2]","[1487.2,1487.2,1000,0,487.2,""oops"",""right"",""down"",""bad_move"",9176.2,7688.1,2957.5,5349,869.7,""oops"",""up"",""down"",""bad_move"",15794.4,6618,2894,12410.3,490.1,""smooth"",""right"",""right"",""good_move"",19015.3,3220.1,2325.9,15795.3,894.2,""oops"",""right"",""right"",""good_move"",22716.7,3700.6,2079.4,19016.1,1621.2,""oops"",""up"",""up"",""good_move"",25689,2970.8,2333.1,22718.2,637.7,""oops"",""up"",""down"",""bad_move"",28406.4,2716.6,2109.1,25689.8,607.5,""oops"",""up"",""left"",""bad_move""]","",""
"13153","","<div style=""width:500px;"">
  <p>What determined the result of this run?</p>
  </div>","36","html-slider-response","40","915025","0.0-5.0-1.6","92","1","2025-07-16 09:41:52","1f75c3e559b7213887762d5229550c2b","41.122.138.70","Mozilla/5.0 (Macintosh; Intel Mac OS X 10_15_7) AppleWebKit/537.36 (KHTML, like Gecko) Chrome/128.0.0.0 Safari/537.36","Macintosh","Chrome","128.0.0.0","OS X","10_15_7","https://app.prolific.com/","en-GB,en-US;q=0.9,en;q=0.8","678bad003d15e6aba1ee5a5d","68764874ac79eee8c1d4cb03","687762ccbca424a2b2ebd616","2","0","678bad003d15e6aba1ee5a5d","2","0","2025-07-16T09:57:09.423Z","","","","","","","","","","","AttribQ","","50","","","","","","","","","","","","","","","","","","","","","","","","","","","","",""
"1801","","<div style=""width:500px;"">
  <p>How much control did you have over the ball?</p>
  </div>","60","html-slider-response","41","916830","0.0-5.0-2.6","92","1","2025-07-16 09:41:52","1f75c3e559b7213887762d5229550c2b","41.122.138.70","Mozilla/5.0 (Macintosh; Intel Mac OS X 10_15_7) AppleWebKit/537.36 (KHTML, like Gecko) Chrome/128.0.0.0 Safari/537.36","Macintosh","Chrome","128.0.0.0","OS X","10_15_7","https://app.prolific.com/","en-GB,en-US;q=0.9,en;q=0.8","678bad003d15e6aba1ee5a5d","68764874ac79eee8c1d4cb03","687762ccbca424a2b2ebd616","2","0","678bad003d15e6aba1ee5a5d","2","0","2025-07-16T09:57:11.227Z","","","","","","","","","","","ControlQ","","50","","","","","","","","","","","","","","","","","","","","","","","","","","","","",""
"1493","","<div style=""width:500px;"">
  <p>How would you describe your current emotional state?</p>
  </div>","61","html-slider-response","42","918325","0.0-5.0-3.6","92","1","2025-07-16 09:41:52","1f75c3e559b7213887762d5229550c2b","41.122.138.70","Mozilla/5.0 (Macintosh; Intel Mac OS X 10_15_7) AppleWebKit/537.36 (KHTML, like Gecko) Chrome/128.0.0.0 Safari/537.36","Macintosh","Chrome","128.0.0.0","OS X","10_15_7","https://app.prolific.com/","en-GB,en-US;q=0.9,en;q=0.8","678bad003d15e6aba1ee5a5d","68764874ac79eee8c1d4cb03","687762ccbca424a2b2ebd616","2","0","678bad003d15e6aba1ee5a5d","2","0","2025-07-16T09:57:12.723Z","","","","","","","","","","","StressQ","","50","","","","","","","","","","","","","","","","","","","","","","","","","","","","",""
"1127","","<div style=""width:500px;"">
  <p>What best describes how you currently feel?</p>
  </div>","39","html-slider-response","43","919454","0.0-5.0-4.6","92","1","2025-07-16 09:41:52","1f75c3e559b7213887762d5229550c2b","41.122.138.70","Mozilla/5.0 (Macintosh; Intel Mac OS X 10_15_7) AppleWebKit/537.36 (KHTML, like Gecko) Chrome/128.0.0.0 Safari/537.36","Macintosh","Chrome","128.0.0.0","OS X","10_15_7","https://app.prolific.com/","en-GB,en-US;q=0.9,en;q=0.8","678bad003d15e6aba1ee5a5d","68764874ac79eee8c1d4cb03","687762ccbca424a2b2ebd616","2","0","678bad003d15e6aba1ee5a5d","2","0","2025-07-16T09:57:13.851Z","","","","","","","","","","","MotivationQ","","50","","","","","","","","","","","","","","","","","","","","","","","","","","","","",""
"","","","","ctl-task-cpt","44","990174","0.0-5.0-0.7","92","1","2025-07-16 09:41:52","1f75c3e559b7213887762d5229550c2b","41.122.138.70","Mozilla/5.0 (Macintosh; Intel Mac OS X 10_15_7) AppleWebKit/537.36 (KHTML, like Gecko) Chrome/128.0.0.0 Safari/537.36","Macintosh","Chrome","128.0.0.0","OS X","10_15_7","https://app.prolific.com/","en-GB,en-US;q=0.9,en;q=0.8","678bad003d15e6aba1ee5a5d","68764874ac79eee8c1d4cb03","687762ccbca424a2b2ebd616","2","0","678bad003d15e6aba1ee5a5d","2","0","2025-07-16T09:58:24.572Z","","","","","","","","","","","","","","win-only","1","g1:NE,g2:SW","0.3","8","0","922615.8","1861.5","6872.8","67700.7","1","4","8","6","2","-8","-9","6","15","0.045454545454545456","903.1","3000","-1500","[""down"",""left""]","{""num_key_presses"":12,""num_perfect"":3,""num_errors"":1,""num_randdir"":8,""num_randdir_good_moves"":4,""num_whilered"":0,""num_whileblue"":0,""num_blue"":4,""num_good_moves"":7}","[349.14285714285717,349.04910714285717,0.4,349.14285714285717,349.04910714285717,102,349.14285714285717,349.04910714285717,218.5,363.14285714285717,372.04910714285717,322.8,364.14285714285717,484.04910714285717,429.7,238.14285714285714,558.0491071428571,532.8,145.14285714285714,604.0491071428571,649.2,97.14285714285714,627.0491071428571,753.5,84.14285714285714,629.0491071428571,863.8,84.14285714285714,629.0491071428571,971.9,84.14285714285714,629.0491071428571,1072.9,82.14285714285714,629.0491071428571,1185.4,82.14285714285714,629.0491071428571,1286.7,82.14285714285714,595.0491071428571,1390.7,82.14285714285714,595.0491071428571,1492,82.14285714285714,595.0491071428571,1598.4,82.14285714285714,595.0491071428571,1702.7,82.14285714285714,595.0491071428571,1803.5,82.14285714285714,595.0491071428571,1907.4,82.14285714285714,595.0491071428571,2015.6,82.14285714285714,595.0491071428571,2120.8,82.14285714285714,595.0491071428571,2223.7,82.14285714285714,595.0491071428571,2329,82.14285714285714,595.0491071428571,2430.9,82.14285714285714,595.0491071428571,2537.4,82.14285714285714,595.0491071428571,2642.2,82.14285714285714,595.0491071428571,2749.3,82.14285714285714,595.0491071428571,2851.8,82.14285714285714,595.0491071428571,2960.3,82.14285714285714,595.0491071428571,3062.1,82.14285714285714,595.0491071428571,3167.8,82.14285714285714,595.0491071428571,3272.4,82.14285714285714,595.0491071428571,3386,82.14285714285714,595.0491071428571,3492.6,82.14285714285714,595.0491071428571,3601.5,82.14285714285714,595.0491071428571,3703.5,82.14285714285714,595.0491071428571,3809,82.14285714285714,595.0491071428571,3920,82.14285714285714,595.0491071428571,4029.9,82.14285714285714,595.0491071428571,4137.7,82.14285714285714,595.0491071428571,4245.2,82.14285714285714,595.0491071428571,4352,82.14285714285714,595.0491071428571,4453.3,82.14285714285714,595.0491071428571,4557.3,82.14285714285714,595.0491071428571,4667,82.14285714285714,595.0491071428571,4767.3,82.14285714285714,595.0491071428571,4869.8,82.14285714285714,595.0491071428571,4975.7]","[1909.5,1909.5,1000,0,909.5,""smooth"",""down"",""down"",""good_move"",5696.9,3786.8,3237.8,1910.1,549,""smooth"",""down"",""down"",""good_move"",8406.7,2706.9,1863.2,5699.9,843.7,""smooth"",""down"",""down"",""good_move"",11611.6,3204.6,2811,8407,393.6,""oops"",""left"",""left"",""good_move"",16909.8,5297.2,2802.8,11612.6,2494.4,""oops"",""left"",""up"",""bad_move"",22518.6,5608.4,2583.4,16910.2,3025,""oops"",""left"",""up"",""bad_move"",26813.5,4294.3,2353.3,26771.9,-2311.7,""error"",""-"",""-"",""no_move"",34504.5,7689.8,2742.6,31234.1,527.8,""oops"",""down"",""down"",""good_move"",37680.9,3168.8,2568.1,34512.1,600.7,""oops"",""down"",""right"",""bad_move"",47051,9369.5,2132.1,44426.5,492.4,""oops"",""left"",""up"",""bad_move"",52903.3,5851.7,2827.6,47051.6,3024.1,""oops"",""left"",""left"",""good_move"",58174.2,5270.4,2014.5,52903.8,3255.9,""oops"",""left"",""left"",""good_move""]","",""
"3040","","<div style=""width:500px;"">
  <p>What determined the result of this run?</p>
  </div>","31","html-slider-response","45","993217","0.0-5.0-1.7","92","1","2025-07-16 09:41:52","1f75c3e559b7213887762d5229550c2b","41.122.138.70","Mozilla/5.0 (Macintosh; Intel Mac OS X 10_15_7) AppleWebKit/537.36 (KHTML, like Gecko) Chrome/128.0.0.0 Safari/537.36","Macintosh","Chrome","128.0.0.0","OS X","10_15_7","https://app.prolific.com/","en-GB,en-US;q=0.9,en;q=0.8","678bad003d15e6aba1ee5a5d","68764874ac79eee8c1d4cb03","687762ccbca424a2b2ebd616","2","0","678bad003d15e6aba1ee5a5d","2","0","2025-07-16T09:58:27.614Z","","","","","","","","","","","AttribQ","","50","","","","","","","","","","","","","","","","","","","","","","","","","","","","",""
"1429","","<div style=""width:500px;"">
  <p>How much control did you have over the ball?</p>
  </div>","62","html-slider-response","46","994649","0.0-5.0-2.7","92","1","2025-07-16 09:41:52","1f75c3e559b7213887762d5229550c2b","41.122.138.70","Mozilla/5.0 (Macintosh; Intel Mac OS X 10_15_7) AppleWebKit/537.36 (KHTML, like Gecko) Chrome/128.0.0.0 Safari/537.36","Macintosh","Chrome","128.0.0.0","OS X","10_15_7","https://app.prolific.com/","en-GB,en-US;q=0.9,en;q=0.8","678bad003d15e6aba1ee5a5d","68764874ac79eee8c1d4cb03","687762ccbca424a2b2ebd616","2","0","678bad003d15e6aba1ee5a5d","2","0","2025-07-16T09:58:29.046Z","","","","","","","","","","","ControlQ","","50","","","","","","","","","","","","","","","","","","","","","","","","","","","","",""
"1126","","<div style=""width:500px;"">
  <p>How would you describe your current emotional state?</p>
  </div>","38","html-slider-response","47","995777","0.0-5.0-3.7","92","1","2025-07-16 09:41:52","1f75c3e559b7213887762d5229550c2b","41.122.138.70","Mozilla/5.0 (Macintosh; Intel Mac OS X 10_15_7) AppleWebKit/537.36 (KHTML, like Gecko) Chrome/128.0.0.0 Safari/537.36","Macintosh","Chrome","128.0.0.0","OS X","10_15_7","https://app.prolific.com/","en-GB,en-US;q=0.9,en;q=0.8","678bad003d15e6aba1ee5a5d","68764874ac79eee8c1d4cb03","687762ccbca424a2b2ebd616","2","0","678bad003d15e6aba1ee5a5d","2","0","2025-07-16T09:58:30.175Z","","","","","","","","","","","StressQ","","50","","","","","","","","","","","","","","","","","","","","","","","","","","","","",""
"1590","","<div style=""width:500px;"">
  <p>What best describes how you currently feel?</p>
  </div>","57","html-slider-response","48","997370","0.0-5.0-4.7","92","1","2025-07-16 09:41:52","1f75c3e559b7213887762d5229550c2b","41.122.138.70","Mozilla/5.0 (Macintosh; Intel Mac OS X 10_15_7) AppleWebKit/537.36 (KHTML, like Gecko) Chrome/128.0.0.0 Safari/537.36","Macintosh","Chrome","128.0.0.0","OS X","10_15_7","https://app.prolific.com/","en-GB,en-US;q=0.9,en;q=0.8","678bad003d15e6aba1ee5a5d","68764874ac79eee8c1d4cb03","687762ccbca424a2b2ebd616","2","0","678bad003d15e6aba1ee5a5d","2","0","2025-07-16T09:58:31.767Z","","","","","","","","","","","MotivationQ","","50","","","","","","","","","","","","","","","","","","","","","","","","","","","","",""
"","","","","ctl-task-cpt","49","1071718","0.0-5.0-0.8","92","1","2025-07-16 09:41:52","1f75c3e559b7213887762d5229550c2b","41.122.138.70","Mozilla/5.0 (Macintosh; Intel Mac OS X 10_15_7) AppleWebKit/537.36 (KHTML, like Gecko) Chrome/128.0.0.0 Safari/537.36","Macintosh","Chrome","128.0.0.0","OS X","10_15_7","https://app.prolific.com/","en-GB,en-US;q=0.9,en;q=0.8","678bad003d15e6aba1ee5a5d","68764874ac79eee8c1d4cb03","687762ccbca424a2b2ebd616","2","0","678bad003d15e6aba1ee5a5d","2","0","2025-07-16T09:59:46.115Z","","","","","","","","","","","","","","win-only","3","g1:SW,g2:NE","0.2","9","0","1000528.9","792.1","5805.1","71326","1","4","8","6","2","-8","-8","0","6","0","1354","3000","-1365","[""up"",""right""]","{""num_key_presses"":11,""num_perfect"":3,""num_errors"":0,""num_randdir"":8,""num_randdir_good_moves"":2,""num_whilered"":0,""num_whileblue"":0,""num_blue"":6,""num_good_moves"":5}","[348.14285714285717,354.04910714285717,0.4,348.14285714285717,354.04910714285717,107.3,348.14285714285717,354.04910714285717,210.4,353.14285714285717,399.04910714285717,317.7,320.14285714285717,508.04910714285717,427.9,216.14285714285714,577.0491071428571,536.5,115.14285714285714,582.0491071428571,644.6,124.14285714285714,532.0491071428571,747.6,440.14285714285717,249.04910714285714,852.9,564.1428571428571,182.04910714285714,959.3,598.1428571428571,136.04910714285714,1065.6,622.1428571428571,89.04910714285714,1165.6,630.1428571428571,43.049107142857146,1275.2,630.1428571428571,42.049107142857146,1382.6,628.1428571428571,48.049107142857146,1490.8,598.1428571428571,100.04910714285714,1598.5,343.14285714285717,304.04910714285717,1705,-372.85714285714283,527.0491071428571,1809.9,-372.85714285714283,527.0491071428571,1917.7,-372.85714285714283,526.0491071428571,2032.6,-372.85714285714283,526.0491071428571,2141.4,-372.85714285714283,526.0491071428571,2242.9,-372.85714285714283,526.0491071428571,2349.4,-372.85714285714283,526.0491071428571,2450,-372.85714285714283,526.0491071428571,2560.4,-372.85714285714283,526.0491071428571,2665,-372.85714285714283,526.0491071428571,2766.7,-372.85714285714283,526.0491071428571,2869.6,-372.85714285714283,526.0491071428571,2980.6,-372.85714285714283,526.0491071428571,3089.3,-372.85714285714283,526.0491071428571,3199.2,-372.85714285714283,526.0491071428571,3313.6,-372.85714285714283,526.0491071428571,3415.3,-372.85714285714283,526.0491071428571,3520.6,-372.85714285714283,526.0491071428571,3623.8,-372.85714285714283,526.0491071428571,3729.8,-372.85714285714283,526.0491071428571,3832.9,-372.85714285714283,526.0491071428571,3934.1,-372.85714285714283,526.0491071428571,4039.3,-372.85714285714283,526.0491071428571,4147.3,-372.85714285714283,526.0491071428571,4269.7,-372.85714285714283,526.0491071428571,4377.5,-372.85714285714283,526.0491071428571,4487,-372.85714285714283,526.0491071428571,4596.6,-372.85714285714283,526.0491071428571,4697.3,-372.85714285714283,526.0491071428571,4798.5,-372.85714285714283,526.0491071428571,4901.9]","[1886,1886.1,1000,0,886.1,""oops"",""right"",""left"",""bad_move"",8501.9,6613.7,2479.4,5151,871.5,""oops"",""right"",""up"",""good_move"",15506.3,6999.1,2448.7,8507.2,4550.4,""oops"",""right"",""left"",""bad_move"",19271.3,3714,2500.3,15557.3,1213.7,""oops"",""right"",""down"",""bad_move"",22456.9,3185.2,2587.7,19271.7,597.5,""oops"",""up"",""down"",""bad_move"",25921.2,3463.5,3046.7,22457.7,416.8,""oops"",""up"",""down"",""bad_move"",36475.9,10554.5,2524.4,33422.5,529,""smooth"",""up"",""up"",""good_move"",39747.5,3268,2473.8,36479.5,794.2,""oops"",""up"",""up"",""good_move"",49200.1,9452.2,2427.1,46109.6,663.4,""oops"",""up"",""down"",""bad_move"",56042.8,6840.7,2499,52624.7,919.1,""smooth"",""up"",""up"",""good_move"",63454.4,7411.2,2530.4,59880.2,1043.8,""smooth"",""up"",""up"",""good_move""]","",""
"48926","","<div style=""width:500px;"">
  <p>What determined the result of this run?</p>
  </div>","68","html-slider-response","50","1120653","0.0-5.0-1.8","92","1","2025-07-16 09:41:52","1f75c3e559b7213887762d5229550c2b","41.122.138.70","Mozilla/5.0 (Macintosh; Intel Mac OS X 10_15_7) AppleWebKit/537.36 (KHTML, like Gecko) Chrome/128.0.0.0 Safari/537.36","Macintosh","Chrome","128.0.0.0","OS X","10_15_7","https://app.prolific.com/","en-GB,en-US;q=0.9,en;q=0.8","678bad003d15e6aba1ee5a5d","68764874ac79eee8c1d4cb03","687762ccbca424a2b2ebd616","2","0","678bad003d15e6aba1ee5a5d","2","0","2025-07-16T10:00:35.050Z","","","","","","","","","","","AttribQ","","50","","","","","","","","","","","","","","","","","","","","","","","","","","","","",""
"2054","","<div style=""width:500px;"">
  <p>How much control did you have over the ball?</p>
  </div>","38","html-slider-response","51","1122714","0.0-5.0-2.8","92","1","2025-07-16 09:41:52","1f75c3e559b7213887762d5229550c2b","41.122.138.70","Mozilla/5.0 (Macintosh; Intel Mac OS X 10_15_7) AppleWebKit/537.36 (KHTML, like Gecko) Chrome/128.0.0.0 Safari/537.36","Macintosh","Chrome","128.0.0.0","OS X","10_15_7","https://app.prolific.com/","en-GB,en-US;q=0.9,en;q=0.8","678bad003d15e6aba1ee5a5d","68764874ac79eee8c1d4cb03","687762ccbca424a2b2ebd616","2","0","678bad003d15e6aba1ee5a5d","2","0","2025-07-16T10:00:37.112Z","","","","","","","","","","","ControlQ","","50","","","","","","","","","","","","","","","","","","","","","","","","","","","","",""
"1872","","<div style=""width:500px;"">
  <p>How would you describe your current emotional state?</p>
  </div>","62","html-slider-response","52","1124594","0.0-5.0-3.8","92","1","2025-07-16 09:41:52","1f75c3e559b7213887762d5229550c2b","41.122.138.70","Mozilla/5.0 (Macintosh; Intel Mac OS X 10_15_7) AppleWebKit/537.36 (KHTML, like Gecko) Chrome/128.0.0.0 Safari/537.36","Macintosh","Chrome","128.0.0.0","OS X","10_15_7","https://app.prolific.com/","en-GB,en-US;q=0.9,en;q=0.8","678bad003d15e6aba1ee5a5d","68764874ac79eee8c1d4cb03","687762ccbca424a2b2ebd616","2","0","678bad003d15e6aba1ee5a5d","2","0","2025-07-16T10:00:38.991Z","","","","","","","","","","","StressQ","","50","","","","","","","","","","","","","","","","","","","","","","","","","","","","",""
"1538","","<div style=""width:500px;"">
  <p>What best describes how you currently feel?</p>
  </div>","36","html-slider-response","53","1126133","0.0-5.0-4.8","92","1","2025-07-16 09:41:52","1f75c3e559b7213887762d5229550c2b","41.122.138.70","Mozilla/5.0 (Macintosh; Intel Mac OS X 10_15_7) AppleWebKit/537.36 (KHTML, like Gecko) Chrome/128.0.0.0 Safari/537.36","Macintosh","Chrome","128.0.0.0","OS X","10_15_7","https://app.prolific.com/","en-GB,en-US;q=0.9,en;q=0.8","678bad003d15e6aba1ee5a5d","68764874ac79eee8c1d4cb03","687762ccbca424a2b2ebd616","2","0","678bad003d15e6aba1ee5a5d","2","0","2025-07-16T10:00:40.530Z","","","","","","","","","","","MotivationQ","","50","","","","","","","","","","","","","","","","","","","","","","","","","","","","",""
"","","","","ctl-task-cpt","54","1171904","0.0-5.0-0.9","92","1","2025-07-16 09:41:52","1f75c3e559b7213887762d5229550c2b","41.122.138.70","Mozilla/5.0 (Macintosh; Intel Mac OS X 10_15_7) AppleWebKit/537.36 (KHTML, like Gecko) Chrome/128.0.0.0 Safari/537.36","Macintosh","Chrome","128.0.0.0","OS X","10_15_7","https://app.prolific.com/","en-GB,en-US;q=0.9,en;q=0.8","678bad003d15e6aba1ee5a5d","68764874ac79eee8c1d4cb03","687762ccbca424a2b2ebd616","2","0","678bad003d15e6aba1ee5a5d","2","0","2025-07-16T10:01:26.301Z","","","","","","","","","","","","","","win-only","2","g1:SE,g2:NW","0.4","10","0","1129291.7","1269.9","6288.4","42744.4","1","4","4","6","2","4","4","4","0","0.030303030303030304","1229","3000","1615","[""left"",""up""]","{""num_key_presses"":6,""num_perfect"":3,""num_errors"":0,""num_randdir"":3,""num_randdir_good_moves"":3,""num_whilered"":0,""num_whileblue"":0,""num_blue"":3,""num_good_moves"":6}","[350.14285714285717,343.04910714285717,0.3,350.14285714285717,343.04910714285717,133,340.14285714285717,352.04910714285717,251.4,314.14285714285717,391.04910714285717,353.6,332.14285714285717,450.04910714285717,467.5,449.14285714285717,525.0491071428571,575,503.14285714285717,499.04910714285717,708.3,49.142857142857146,106.04910714285714,808.5,-2.857142857142854,52.049107142857146,925.6,8.142857142857146,43.049107142857146,1038.8,47.142857142857146,66.04910714285714,1149.3,48.142857142857146,66.04910714285714,1259.6,47.142857142857146,69.04910714285714,1364.9,-54.857142857142854,118.04910714285714,1476.1,-182.85714285714286,200.04910714285714,1581.2,-265.85714285714283,263.04910714285717,1691.7,-311.85714285714283,299.04910714285717,1804.2,-319.85714285714283,303.04910714285717,1907.7,-319.85714285714283,303.04910714285717,2021.1,-319.85714285714283,303.04910714285717,2146.9,-319.85714285714283,303.04910714285717,2257.2,-319.85714285714283,303.04910714285717,2368.7,-319.85714285714283,303.04910714285717,2491.2,-319.85714285714283,303.04910714285717,2597.9,-319.85714285714283,303.04910714285717,2708.4,-319.85714285714283,303.04910714285717,2810.8,-319.85714285714283,303.04910714285717,2913.8,-319.85714285714283,303.04910714285717,3025.8,-319.85714285714283,303.04910714285717,3127.1,-319.85714285714283,303.04910714285717,3233.3,-319.85714285714283,303.04910714285717,3344.7,-319.85714285714283,303.04910714285717,3449.7,-319.85714285714283,303.04910714285717,3553.4,-319.85714285714283,303.04910714285717,3659.2,-319.85714285714283,303.04910714285717,3765.2,-319.85714285714283,303.04910714285717,3883.6,-319.85714285714283,303.04910714285717,3989.7,-319.85714285714283,303.04910714285717,4099,-319.85714285714283,303.04910714285717,4206.1,-319.85714285714283,303.04910714285717,4319,-319.85714285714283,303.04910714285717,4425.4,-319.85714285714283,303.04910714285717,4530.4,-319.85714285714283,303.04910714285717,4632.8,-319.85714285714283,303.04910714285717,4743.1,-319.85714285714283,303.04910714285717,4854.2,-319.85714285714283,303.04910714285717,4960.4]","[1936.9,1936.9,1000,0,936.9,""oops"",""up"",""up"",""good_move"",9248,7309.5,2788.9,5828.7,630.4,""oops"",""up"",""up"",""good_move"",13729.1,4478.7,2290,9250.4,2188.7,""smooth"",""left"",""left"",""good_move"",18476,4745.3,2336.2,13730.7,2409.1,""smooth"",""up"",""up"",""good_move"",26851.4,8375.2,2401.9,18476.2,5973.3,""oops"",""left"",""left"",""good_move"",36152.5,9300.5,2026.6,33533.3,592.6,""smooth"",""left"",""left"",""good_move""]","",""
"3178","","<div style=""width:500px;"">
  <p>What determined the result of this run?</p>
  </div>","57","html-slider-response","55","1175085","0.0-5.0-1.9","92","1","2025-07-16 09:41:52","1f75c3e559b7213887762d5229550c2b","41.122.138.70","Mozilla/5.0 (Macintosh; Intel Mac OS X 10_15_7) AppleWebKit/537.36 (KHTML, like Gecko) Chrome/128.0.0.0 Safari/537.36","Macintosh","Chrome","128.0.0.0","OS X","10_15_7","https://app.prolific.com/","en-GB,en-US;q=0.9,en;q=0.8","678bad003d15e6aba1ee5a5d","68764874ac79eee8c1d4cb03","687762ccbca424a2b2ebd616","2","0","678bad003d15e6aba1ee5a5d","2","0","2025-07-16T10:01:29.482Z","","","","","","","","","","","AttribQ","","50","","","","","","","","","","","","","","","","","","","","","","","","","","","","",""
"1356","","<div style=""width:500px;"">
  <p>How much control did you have over the ball?</p>
  </div>","61","html-slider-response","56","1176444","0.0-5.0-2.9","92","1","2025-07-16 09:41:52","1f75c3e559b7213887762d5229550c2b","41.122.138.70","Mozilla/5.0 (Macintosh; Intel Mac OS X 10_15_7) AppleWebKit/537.36 (KHTML, like Gecko) Chrome/128.0.0.0 Safari/537.36","Macintosh","Chrome","128.0.0.0","OS X","10_15_7","https://app.prolific.com/","en-GB,en-US;q=0.9,en;q=0.8","678bad003d15e6aba1ee5a5d","68764874ac79eee8c1d4cb03","687762ccbca424a2b2ebd616","2","0","678bad003d15e6aba1ee5a5d","2","0","2025-07-16T10:01:30.842Z","","","","","","","","","","","ControlQ","","50","","","","","","","","","","","","","","","","","","","","","","","","","","","","",""
"1686","","<div style=""width:500px;"">
  <p>How would you describe your current emotional state?</p>
  </div>","38","html-slider-response","57","1178133","0.0-5.0-3.9","92","1","2025-07-16 09:41:52","1f75c3e559b7213887762d5229550c2b","41.122.138.70","Mozilla/5.0 (Macintosh; Intel Mac OS X 10_15_7) AppleWebKit/537.36 (KHTML, like Gecko) Chrome/128.0.0.0 Safari/537.36","Macintosh","Chrome","128.0.0.0","OS X","10_15_7","https://app.prolific.com/","en-GB,en-US;q=0.9,en;q=0.8","678bad003d15e6aba1ee5a5d","68764874ac79eee8c1d4cb03","687762ccbca424a2b2ebd616","2","0","678bad003d15e6aba1ee5a5d","2","0","2025-07-16T10:01:32.530Z","","","","","","","","","","","StressQ","","50","","","","","","","","","","","","","","","","","","","","","","","","","","","","",""
"1367","","<div style=""width:500px;"">
  <p>What best describes how you currently feel?</p>
  </div>","65","html-slider-response","58","1179501","0.0-5.0-4.9","92","1","2025-07-16 09:41:52","1f75c3e559b7213887762d5229550c2b","41.122.138.70","Mozilla/5.0 (Macintosh; Intel Mac OS X 10_15_7) AppleWebKit/537.36 (KHTML, like Gecko) Chrome/128.0.0.0 Safari/537.36","Macintosh","Chrome","128.0.0.0","OS X","10_15_7","https://app.prolific.com/","en-GB,en-US;q=0.9,en;q=0.8","678bad003d15e6aba1ee5a5d","68764874ac79eee8c1d4cb03","687762ccbca424a2b2ebd616","2","0","678bad003d15e6aba1ee5a5d","2","0","2025-07-16T10:01:33.898Z","","","","","","","","","","","MotivationQ","","50","","","","","","","","","","","","","","","","","","","","","","","","","","","","",""
"","","","","ctl-task-cpt","59","1251983","0.0-5.0-0.10","92","1","2025-07-16 09:41:52","1f75c3e559b7213887762d5229550c2b","41.122.138.70","Mozilla/5.0 (Macintosh; Intel Mac OS X 10_15_7) AppleWebKit/537.36 (KHTML, like Gecko) Chrome/128.0.0.0 Safari/537.36","Macintosh","Chrome","128.0.0.0","OS X","10_15_7","https://app.prolific.com/","en-GB,en-US;q=0.9,en;q=0.8","678bad003d15e6aba1ee5a5d","68764874ac79eee8c1d4cb03","687762ccbca424a2b2ebd616","2","0","678bad003d15e6aba1ee5a5d","2","0","2025-07-16T10:02:46.380Z","","","","","","","","","","","","","","win-only","0","g1:NW,g2:SE","0.5","11","0","1182654.9","935.2","5972.7","69456.8","1","4","4","6","2","-4","-4","0","4","0","1108.3","3000","-775","[""down"",""right""]","{""num_key_presses"":12,""num_perfect"":6,""num_errors"":0,""num_randdir"":6,""num_randdir_good_moves"":2,""num_whilered"":0,""num_whileblue"":0,""num_blue"":6,""num_good_moves"":8}","[351.14285714285717,350.04910714285717,5.1,351.14285714285717,350.04910714285717,102.7,351.14285714285717,350.04910714285717,217,326.14285714285717,373.04910714285717,332.5,262.14285714285717,457.04910714285717,451.9,335.14285714285717,548.0491071428571,552.4,499.14285714285717,609.0491071428571,654.4,550.1428571428571,617.0491071428571,761.6,561.1428571428571,619.0491071428571,892.4,608.1428571428571,623.0491071428571,993.7,613.1428571428571,624.0491071428571,1094,613.1428571428571,624.0491071428571,1207,612.1428571428571,626.0491071428571,1323.9,571.1428571428571,644.0491071428571,1428,390.14285714285717,800.0491071428571,1533.6,307.14285714285717,800.0491071428571,1634.4,268.14285714285717,787.0491071428571,1739.2,268.14285714285717,787.0491071428571,1853.6,268.14285714285717,787.0491071428571,1956.3,268.14285714285717,787.0491071428571,2075.2,268.14285714285717,787.0491071428571,2178.1,268.14285714285717,787.0491071428571,2292.6,268.14285714285717,787.0491071428571,2397.8,268.14285714285717,787.0491071428571,2507.8,268.14285714285717,787.0491071428571,2619.8,268.14285714285717,787.0491071428571,2723.6,268.14285714285717,787.0491071428571,2838.8,268.14285714285717,787.0491071428571,2965.8,268.14285714285717,787.0491071428571,3170.3,268.14285714285717,787.0491071428571,3295.2,268.14285714285717,787.0491071428571,3400.9,268.14285714285717,787.0491071428571,3513.4,268.14285714285717,787.0491071428571,3655.3,268.14285714285717,787.0491071428571,3764,268.14285714285717,787.0491071428571,3931.7,268.14285714285717,787.0491071428571,4119,268.14285714285717,787.0491071428571,4231.8,268.14285714285717,787.0491071428571,4410.4,268.14285714285717,787.0491071428571,4514.5,268.14285714285717,787.0491071428571,4627.8,268.14285714285717,787.0491071428571,4763.6,268.14285714285717,787.0491071428571,4945.3]","[5254,5254,2239.2,2123.2,891.6,""smooth"",""right"",""right"",""good_move"",11625.7,6370.7,1934.5,9205.6,485.7,""smooth"",""right"",""right"",""good_move"",18292.7,6666.6,2533.6,15256.5,502.7,""smooth"",""right"",""right"",""good_move"",21409.8,3116.7,2463,18293.1,653.7,""oops"",""down"",""left"",""bad_move"",24260.1,2849.7,2210.2,21410.4,639.5,""oops"",""down"",""up"",""bad_move"",28100.9,3840,3209.1,24260.9,630.9,""oops"",""down"",""left"",""bad_move"",31897.5,3796.2,2993.7,28101.3,802.5,""oops"",""down"",""down"",""good_move"",36103.8,4205.3,2384.1,31898.5,1821.2,""oops"",""down"",""right"",""good_move"",43527,7422.2,3347,39635.4,544.6,""smooth"",""down"",""down"",""good_move"",50823.1,7295.8,2132.7,46726.1,1964.3,""smooth"",""down"",""down"",""good_move"",54102.5,3278.6,2806.4,50823.9,472.2,""smooth"",""down"",""down"",""good_move"",60020.7,5917.8,2277.6,57337,406.1,""oops"",""right"",""left"",""bad_move""]","",""
"34370","","<div style=""width:500px;"">
  <p>What determined the result of this run?</p>
  </div>","72","html-slider-response","60","1286356","0.0-5.0-1.10","92","1","2025-07-16 09:41:52","1f75c3e559b7213887762d5229550c2b","41.122.138.70","Mozilla/5.0 (Macintosh; Intel Mac OS X 10_15_7) AppleWebKit/537.36 (KHTML, like Gecko) Chrome/128.0.0.0 Safari/537.36","Macintosh","Chrome","128.0.0.0","OS X","10_15_7","https://app.prolific.com/","en-GB,en-US;q=0.9,en;q=0.8","678bad003d15e6aba1ee5a5d","68764874ac79eee8c1d4cb03","687762ccbca424a2b2ebd616","2","0","678bad003d15e6aba1ee5a5d","2","0","2025-07-16T10:03:20.753Z","","","","","","","","","","","AttribQ","","50","","","","","","","","","","","","","","","","","","","","","","","","","","","","",""
"2033","","<div style=""width:500px;"">
  <p>How much control did you have over the ball?</p>
  </div>","70","html-slider-response","61","1288395","0.0-5.0-2.10","92","1","2025-07-16 09:41:52","1f75c3e559b7213887762d5229550c2b","41.122.138.70","Mozilla/5.0 (Macintosh; Intel Mac OS X 10_15_7) AppleWebKit/537.36 (KHTML, like Gecko) Chrome/128.0.0.0 Safari/537.36","Macintosh","Chrome","128.0.0.0","OS X","10_15_7","https://app.prolific.com/","en-GB,en-US;q=0.9,en;q=0.8","678bad003d15e6aba1ee5a5d","68764874ac79eee8c1d4cb03","687762ccbca424a2b2ebd616","2","0","678bad003d15e6aba1ee5a5d","2","0","2025-07-16T10:03:22.792Z","","","","","","","","","","","ControlQ","","50","","","","","","","","","","","","","","","","","","","","","","","","","","","","",""
"1727","","<div style=""width:500px;"">
  <p>How would you describe your current emotional state?</p>
  </div>","32","html-slider-response","62","1290124","0.0-5.0-3.10","92","1","2025-07-16 09:41:52","1f75c3e559b7213887762d5229550c2b","41.122.138.70","Mozilla/5.0 (Macintosh; Intel Mac OS X 10_15_7) AppleWebKit/537.36 (KHTML, like Gecko) Chrome/128.0.0.0 Safari/537.36","Macintosh","Chrome","128.0.0.0","OS X","10_15_7","https://app.prolific.com/","en-GB,en-US;q=0.9,en;q=0.8","678bad003d15e6aba1ee5a5d","68764874ac79eee8c1d4cb03","687762ccbca424a2b2ebd616","2","0","678bad003d15e6aba1ee5a5d","2","0","2025-07-16T10:03:24.522Z","","","","","","","","","","","StressQ","","50","","","","","","","","","","","","","","","","","","","","","","","","","","","","",""
"1538","","<div style=""width:500px;"">
  <p>What best describes how you currently feel?</p>
  </div>","66","html-slider-response","63","1291666","0.0-5.0-4.10","92","1","2025-07-16 09:41:52","1f75c3e559b7213887762d5229550c2b","41.122.138.70","Mozilla/5.0 (Macintosh; Intel Mac OS X 10_15_7) AppleWebKit/537.36 (KHTML, like Gecko) Chrome/128.0.0.0 Safari/537.36","Macintosh","Chrome","128.0.0.0","OS X","10_15_7","https://app.prolific.com/","en-GB,en-US;q=0.9,en;q=0.8","678bad003d15e6aba1ee5a5d","68764874ac79eee8c1d4cb03","687762ccbca424a2b2ebd616","2","0","678bad003d15e6aba1ee5a5d","2","0","2025-07-16T10:03:26.063Z","","","","","","","","","","","MotivationQ","","50","","","","","","","","","","","","","","","","","","","","","","","","","","","","",""
"","","","","ctl-task-cpt","64","1381839","0.0-5.0-0.11","92","1","2025-07-16 09:41:52","1f75c3e559b7213887762d5229550c2b","41.122.138.70","Mozilla/5.0 (Macintosh; Intel Mac OS X 10_15_7) AppleWebKit/537.36 (KHTML, like Gecko) Chrome/128.0.0.0 Safari/537.36","Macintosh","Chrome","128.0.0.0","OS X","10_15_7","https://app.prolific.com/","en-GB,en-US;q=0.9,en;q=0.8","678bad003d15e6aba1ee5a5d","68764874ac79eee8c1d4cb03","687762ccbca424a2b2ebd616","2","0","678bad003d15e6aba1ee5a5d","2","0","2025-07-16T10:04:56.236Z","","","","","","","","","","","","","","win-only","2","g1:SE,g2:NW","0.6","12","0","1294817.2","1979.7","7107.2","87108.8","1","4","8","6","2","-8","-8","0","0","0","2409.2","3000","-670","[""left"",""up""]","{""num_key_presses"":16,""num_perfect"":9,""num_errors"":0,""num_randdir"":7,""num_randdir_good_moves"":0,""num_whilered"":0,""num_whileblue"":0,""num_blue"":5,""num_good_moves"":9}","[344.14285714285717,351.04910714285717,0.4,348.14285714285717,351.04910714285717,257.9,403.14285714285717,391.04910714285717,400.3,507.14285714285717,615.0491071428571,587.5,496.14285714285717,628.0491071428571,690.8,303.14285714285717,499.04910714285717,974,147.14285714285714,236.04910714285714,1086.4,121.14285714285714,210.04910714285714,1242.9,56.142857142857146,180.04910714285714,1344.3,24.142857142857146,166.04910714285714,1497.2,-372.85714285714283,800.0491071428571,1607.3,-135.85714285714286,99.04910714285714,1789.1,222.14285714285714,-98.95089285714286,1987.4,257.14285714285717,-87.95089285714286,2112.6,89.14285714285714,22.049107142857146,2245.6,87.14285714285714,23.049107142857146,2418.2,87.14285714285714,23.049107142857146,2696.3,87.14285714285714,23.049107142857146,2866.2,-6.857142857142854,106.04910714285714,2966.8,-6.857142857142854,106.04910714285714,3080.5,-6.857142857142854,105.04910714285714,3349.2,-5.857142857142854,104.04910714285714,3464.4,-5.857142857142854,103.04910714285714,3763,-5.857142857142854,103.04910714285714,3882.6,-5.857142857142854,103.04910714285714,3999.5,-5.857142857142854,103.04910714285714,4116.6,-5.857142857142854,103.04910714285714,4243.8,-5.857142857142854,103.04910714285714,4374.7,-5.857142857142854,103.04910714285714,4503.8,-5.857142857142854,103.04910714285714,4715.8,-5.857142857142854,103.04910714285714,4868.9,-5.857142857142854,103.04910714285714,4971.1]","[2295.8,2295.8,1000,0,1295.8,""oops"",""left"",""right"",""bad_move"",5508.7,3212.3,2601.1,2296.4,611.2,""smooth"",""left"",""left"",""good_move"",9725.1,4214.5,2657.6,5510.6,1556.9,""smooth"",""left"",""left"",""good_move"",13577.6,3849.4,2503.3,9728.2,1346.1,""smooth"",""left"",""left"",""good_move"",16785.1,3206.7,2814.7,13578.4,392,""smooth"",""left"",""left"",""good_move"",22704.1,5918.7,1940.4,20250.8,512.9,""oops"",""up"",""down"",""bad_move"",29873.7,7169.3,2673.3,26436,764.4,""oops"",""up"",""down"",""bad_move"",33056.9,3183.1,2467.2,29873.8,715.9,""smooth"",""up"",""up"",""good_move"",37518.9,4460.4,2347.8,33058.5,2112.6,""oops"",""up"",""down"",""bad_move"",44261.6,6742.2,2657.8,40928.7,675.1,""smooth"",""up"",""up"",""good_move"",51738.4,7476,2284.8,48247,1206.6,""smooth"",""up"",""up"",""good_move"",55220,3480.7,2793.9,51739.3,686.8,""oops"",""up"",""down"",""bad_move"",58561.4,3341,2695.3,55220.4,645.7,""smooth"",""up"",""up"",""good_move"",67620.4,9058.4,2076.9,64658,885.5,""oops"",""up"",""right"",""bad_move"",72488.3,4866.5,2146.9,67621.9,2719.5,""oops"",""up"",""down"",""bad_move"",75806.4,3314.1,2355.2,72492.3,958.9,""smooth"",""up"",""up"",""good_move""]","",""
"7773","","<div style=""width:500px;"">
  <p>What determined the result of this run?</p>
  </div>","35","html-slider-response","65","1389616","0.0-5.0-1.11","92","1","2025-07-16 09:41:52","1f75c3e559b7213887762d5229550c2b","41.122.138.70","Mozilla/5.0 (Macintosh; Intel Mac OS X 10_15_7) AppleWebKit/537.36 (KHTML, like Gecko) Chrome/128.0.0.0 Safari/537.36","Macintosh","Chrome","128.0.0.0","OS X","10_15_7","https://app.prolific.com/","en-GB,en-US;q=0.9,en;q=0.8","678bad003d15e6aba1ee5a5d","68764874ac79eee8c1d4cb03","687762ccbca424a2b2ebd616","2","0","678bad003d15e6aba1ee5a5d","2","0","2025-07-16T10:05:04.013Z","","","","","","","","","","","AttribQ","","50","","","","","","","","","","","","","","","","","","","","","","","","","","","","",""
"1263","","<div style=""width:500px;"">
  <p>How much control did you have over the ball?</p>
  </div>","58","html-slider-response","66","1390884","0.0-5.0-2.11","92","1","2025-07-16 09:41:52","1f75c3e559b7213887762d5229550c2b","41.122.138.70","Mozilla/5.0 (Macintosh; Intel Mac OS X 10_15_7) AppleWebKit/537.36 (KHTML, like Gecko) Chrome/128.0.0.0 Safari/537.36","Macintosh","Chrome","128.0.0.0","OS X","10_15_7","https://app.prolific.com/","en-GB,en-US;q=0.9,en;q=0.8","678bad003d15e6aba1ee5a5d","68764874ac79eee8c1d4cb03","687762ccbca424a2b2ebd616","2","0","678bad003d15e6aba1ee5a5d","2","0","2025-07-16T10:05:05.281Z","","","","","","","","","","","ControlQ","","50","","","","","","","","","","","","","","","","","","","","","","","","","","","","",""
"1633","","<div style=""width:500px;"">
  <p>How would you describe your current emotional state?</p>
  </div>","35","html-slider-response","67","1392521","0.0-5.0-3.11","92","1","2025-07-16 09:41:52","1f75c3e559b7213887762d5229550c2b","41.122.138.70","Mozilla/5.0 (Macintosh; Intel Mac OS X 10_15_7) AppleWebKit/537.36 (KHTML, like Gecko) Chrome/128.0.0.0 Safari/537.36","Macintosh","Chrome","128.0.0.0","OS X","10_15_7","https://app.prolific.com/","en-GB,en-US;q=0.9,en;q=0.8","678bad003d15e6aba1ee5a5d","68764874ac79eee8c1d4cb03","687762ccbca424a2b2ebd616","2","0","678bad003d15e6aba1ee5a5d","2","0","2025-07-16T10:05:06.918Z","","","","","","","","","","","StressQ","","50","","","","","","","","","","","","","","","","","","","","","","","","","","","","",""
"1755","","<div style=""width:500px;"">
  <p>What best describes how you currently feel?</p>
  </div>","61","html-slider-response","68","1394279","0.0-5.0-4.11","92","1","2025-07-16 09:41:52","1f75c3e559b7213887762d5229550c2b","41.122.138.70","Mozilla/5.0 (Macintosh; Intel Mac OS X 10_15_7) AppleWebKit/537.36 (KHTML, like Gecko) Chrome/128.0.0.0 Safari/537.36","Macintosh","Chrome","128.0.0.0","OS X","10_15_7","https://app.prolific.com/","en-GB,en-US;q=0.9,en;q=0.8","678bad003d15e6aba1ee5a5d","68764874ac79eee8c1d4cb03","687762ccbca424a2b2ebd616","2","0","678bad003d15e6aba1ee5a5d","2","0","2025-07-16T10:05:08.676Z","","","","","","","","","","","MotivationQ","","50","","","","","","","","","","","","","","","","","","","","","","","","","","","","",""
"","","","","ctl-task-cpt","69","1451424","0.0-5.0-0.12","92","1","2025-07-16 09:41:52","1f75c3e559b7213887762d5229550c2b","41.122.138.70","Mozilla/5.0 (Macintosh; Intel Mac OS X 10_15_7) AppleWebKit/537.36 (KHTML, like Gecko) Chrome/128.0.0.0 Safari/537.36","Macintosh","Chrome","128.0.0.0","OS X","10_15_7","https://app.prolific.com/","en-GB,en-US;q=0.9,en;q=0.8","678bad003d15e6aba1ee5a5d","68764874ac79eee8c1d4cb03","687762ccbca424a2b2ebd616","2","0","678bad003d15e6aba1ee5a5d","2","0","2025-07-16T10:06:05.821Z","","","","","","","","","","","","","","win-only","0","g1:NW,g2:SE","0.7","13","0","1397425.3","2699.9","7774.7","54120.4","1","4","4","6","2","4","4","4","0","0.030303030303030304","1304.4","3000","1485","[""down"",""right""]","{""num_key_presses"":10,""num_perfect"":7,""num_errors"":0,""num_randdir"":3,""num_randdir_good_moves"":2,""num_whilered"":0,""num_whileblue"":0,""num_blue"":3,""num_good_moves"":8}","[342.14285714285717,356.04910714285717,0.4,342.14285714285717,356.04910714285717,188.1,342.14285714285717,356.04910714285717,412.2,304.14285714285717,347.04910714285717,578.5,295.14285714285717,347.04910714285717,696.5,455.14285714285717,556.0491071428571,862,455.14285714285717,556.0491071428571,978.2,614.1428571428571,633.0491071428571,1129.8,614.1428571428571,633.0491071428571,1313.7,598.1428571428571,634.0491071428571,1457.4,407.14285714285717,733.0491071428571,1586.7,278.14285714285717,800.0491071428571,1737,213.14285714285714,800.0491071428571,1843.3,213.14285714285714,800.0491071428571,1963.9,213.14285714285714,800.0491071428571,2071.1,213.14285714285714,800.0491071428571,2182.5,213.14285714285714,800.0491071428571,2339.8,213.14285714285714,800.0491071428571,2466.6,213.14285714285714,800.0491071428571,2567.5,213.14285714285714,800.0491071428571,2673.7,213.14285714285714,800.0491071428571,2863.1,213.14285714285714,800.0491071428571,2980.6,213.14285714285714,800.0491071428571,3140.7,213.14285714285714,800.0491071428571,3247.6,213.14285714285714,800.0491071428571,3382.1,213.14285714285714,800.0491071428571,3545.7,213.14285714285714,800.0491071428571,3685.3,213.14285714285714,800.0491071428571,3816.3,213.14285714285714,800.0491071428571,4020.8,213.14285714285714,800.0491071428571,4215.8,213.14285714285714,800.0491071428571,4345.5,213.14285714285714,800.0491071428571,4569.4,213.14285714285714,800.0491071428571,4840.7,213.14285714285714,800.0491071428571,4969]","[2335.8,2335.8,1000,0,1335.8,""oops"",""up"",""right"",""good_move"",5292.5,2940.9,2273.9,2351.6,667,""smooth"",""up"",""up"",""bad_move"",9771.6,4475.4,2103.6,5296.3,2371.8,""smooth"",""right"",""right"",""good_move"",13209.5,3431.3,2851.6,9778.2,579.7,""smooth"",""down"",""down"",""good_move"",19245.8,6035.3,2195.4,16455,595.4,""oops"",""down"",""left"",""bad_move"",27847.1,8594.6,2695.5,24399.5,752.1,""smooth"",""down"",""down"",""good_move"",32730.1,4882.7,2686.9,27847.4,2195.8,""smooth"",""down"",""down"",""good_move"",40160.8,7430.2,3231.2,36280.8,648.8,""oops"",""down"",""right"",""good_move"",43230.9,3068.8,2398.6,40162.1,670.2,""smooth"",""down"",""down"",""good_move"",45924.3,2692.8,2166.1,43231.5,526.7,""smooth"",""right"",""right"",""good_move""]","",""
"38793","","<div style=""width:500px;"">
  <p>What determined the result of this run?</p>
  </div>","68","html-slider-response","70","1490222","0.0-5.0-1.12","92","1","2025-07-16 09:41:52","1f75c3e559b7213887762d5229550c2b","41.122.138.70","Mozilla/5.0 (Macintosh; Intel Mac OS X 10_15_7) AppleWebKit/537.36 (KHTML, like Gecko) Chrome/128.0.0.0 Safari/537.36","Macintosh","Chrome","128.0.0.0","OS X","10_15_7","https://app.prolific.com/","en-GB,en-US;q=0.9,en;q=0.8","678bad003d15e6aba1ee5a5d","68764874ac79eee8c1d4cb03","687762ccbca424a2b2ebd616","2","0","678bad003d15e6aba1ee5a5d","2","0","2025-07-16T10:06:44.619Z","","","","","","","","","","","AttribQ","","50","","","","","","","","","","","","","","","","","","","","","","","","","","","","",""
"2193","","<div style=""width:500px;"">
  <p>How much control did you have over the ball?</p>
  </div>","72","html-slider-response","71","1492419","0.0-5.0-2.12","92","1","2025-07-16 09:41:52","1f75c3e559b7213887762d5229550c2b","41.122.138.70","Mozilla/5.0 (Macintosh; Intel Mac OS X 10_15_7) AppleWebKit/537.36 (KHTML, like Gecko) Chrome/128.0.0.0 Safari/537.36","Macintosh","Chrome","128.0.0.0","OS X","10_15_7","https://app.prolific.com/","en-GB,en-US;q=0.9,en;q=0.8","678bad003d15e6aba1ee5a5d","68764874ac79eee8c1d4cb03","687762ccbca424a2b2ebd616","2","0","678bad003d15e6aba1ee5a5d","2","0","2025-07-16T10:06:46.816Z","","","","","","","","","","","ControlQ","","50","","","","","","","","","","","","","","","","","","","","","","","","","","","","",""
"1583","","<div style=""width:500px;"">
  <p>How would you describe your current emotional state?</p>
  </div>","37","html-slider-response","72","1494013","0.0-5.0-3.12","92","1","2025-07-16 09:41:52","1f75c3e559b7213887762d5229550c2b","41.122.138.70","Mozilla/5.0 (Macintosh; Intel Mac OS X 10_15_7) AppleWebKit/537.36 (KHTML, like Gecko) Chrome/128.0.0.0 Safari/537.36","Macintosh","Chrome","128.0.0.0","OS X","10_15_7","https://app.prolific.com/","en-GB,en-US;q=0.9,en;q=0.8","678bad003d15e6aba1ee5a5d","68764874ac79eee8c1d4cb03","687762ccbca424a2b2ebd616","2","0","678bad003d15e6aba1ee5a5d","2","0","2025-07-16T10:06:48.410Z","","","","","","","","","","","StressQ","","50","","","","","","","","","","","","","","","","","","","","","","","","","","","","",""
"3348","","<div style=""width:500px;"">
  <p>What best describes how you currently feel?</p>
  </div>","74","html-slider-response","73","1497365","0.0-5.0-4.12","92","1","2025-07-16 09:41:52","1f75c3e559b7213887762d5229550c2b","41.122.138.70","Mozilla/5.0 (Macintosh; Intel Mac OS X 10_15_7) AppleWebKit/537.36 (KHTML, like Gecko) Chrome/128.0.0.0 Safari/537.36","Macintosh","Chrome","128.0.0.0","OS X","10_15_7","https://app.prolific.com/","en-GB,en-US;q=0.9,en;q=0.8","678bad003d15e6aba1ee5a5d","68764874ac79eee8c1d4cb03","687762ccbca424a2b2ebd616","2","0","678bad003d15e6aba1ee5a5d","2","0","2025-07-16T10:06:51.762Z","","","","","","","","","","","MotivationQ","","50","","","","","","","","","","","","","","","","","","","","","","","","","","","","",""
"","","","","ctl-task-cpt","74","1552797","0.0-5.0-0.13","92","1","2025-07-16 09:41:52","1f75c3e559b7213887762d5229550c2b","41.122.138.70","Mozilla/5.0 (Macintosh; Intel Mac OS X 10_15_7) AppleWebKit/537.36 (KHTML, like Gecko) Chrome/128.0.0.0 Safari/537.36","Macintosh","Chrome","128.0.0.0","OS X","10_15_7","https://app.prolific.com/","en-GB,en-US;q=0.9,en;q=0.8","678bad003d15e6aba1ee5a5d","68764874ac79eee8c1d4cb03","687762ccbca424a2b2ebd616","2","0","678bad003d15e6aba1ee5a5d","2","0","2025-07-16T10:07:47.194Z","","","","","","","","","","","","","","win-only","1","g1:NE,g2:SW","0.8","14","0","1500504.3","11195","16212.9","52400.3","1","4","8","6","2","8","8","12","4","0.09090909090909091","966","3000","1450","[""down"",""left""]","{""num_key_presses"":8,""num_perfect"":7,""num_errors"":0,""num_randdir"":1,""num_randdir_good_moves"":0,""num_whilered"":0,""num_whileblue"":0,""num_blue"":1,""num_good_moves"":7}","[343.14285714285717,348.04910714285717,0.5,343.14285714285717,348.04910714285717,118.1,343.14285714285717,348.04910714285717,235.8,351.14285714285717,346.04910714285717,352,203.14285714285714,431.04910714285717,472.3,110.14285714285714,551.0491071428571,582.2,82.14285714285714,571.0491071428571,685.5,73.14285714285714,584.0491071428571,792.9,51.142857142857146,617.0491071428571,905.9,51.142857142857146,617.0491071428571,1023.2,51.142857142857146,617.0491071428571,1144,51.142857142857146,617.0491071428571,1252.5,53.142857142857146,612.0491071428571,1369.8,54.142857142857146,607.0491071428571,1487.1,54.142857142857146,607.0491071428571,1598.8,45.142857142857146,571.0491071428571,1713.8,45.142857142857146,571.0491071428571,1816.2,45.142857142857146,571.0491071428571,1918.5,45.142857142857146,571.0491071428571,2034,45.142857142857146,571.0491071428571,2145.7,45.142857142857146,571.0491071428571,2245.9,45.142857142857146,571.0491071428571,2357.5,45.142857142857146,571.0491071428571,2465.1,45.142857142857146,571.0491071428571,2579,45.142857142857146,571.0491071428571,2683.7,45.142857142857146,571.0491071428571,2785.4,45.142857142857146,571.0491071428571,2887.9,45.142857142857146,571.0491071428571,3009.5,45.142857142857146,571.0491071428571,3121.4,45.142857142857146,571.0491071428571,3236.9,45.142857142857146,571.0491071428571,3351.9,45.142857142857146,571.0491071428571,3463.2,45.142857142857146,571.0491071428571,3581.1,45.142857142857146,571.0491071428571,3691.9,45.142857142857146,571.0491071428571,3806.1,45.142857142857146,571.0491071428571,3914.3,45.142857142857146,571.0491071428571,4032.9,45.142857142857146,571.0491071428571,4150.8,45.142857142857146,571.0491071428571,4280.8,45.142857142857146,571.0491071428571,4383.6,45.142857142857146,571.0491071428571,4492.5,45.142857142857146,571.0491071428571,4614.8,45.142857142857146,571.0491071428571,4727.1,45.142857142857146,571.0491071428571,4843.9,45.142857142857146,571.0491071428571,4955.6]","[2230.8,2230.8,1000,0,1230.8,""smooth"",""down"",""down"",""good_move"",5660.7,3429.3,2584,2231.4,845.3,""smooth"",""down"",""down"",""good_move"",9268.1,3606.2,2513,5661.9,1093.2,""smooth"",""down"",""down"",""good_move"",13268.9,4000,2577.8,9269.1,1422,""smooth"",""left"",""left"",""good_move"",16828.2,3558.4,2212.3,13269.8,1346.1,""oops"",""left"",""up"",""bad_move"",20215.4,3386.7,2280.2,16828.7,1106.5,""smooth"",""left"",""left"",""good_move"",27989.2,7773.3,2899.2,20215.9,4874.1,""smooth"",""left"",""left"",""good_move"",35911.5,7922,2507.8,32872.7,531,""smooth"",""down"",""down"",""good_move""]","",""
"9312","","<div style=""width:500px;"">
  <p>What determined the result of this run?</p>
