"rt","response_timestamp","stimulus","response","trial_type","trial_index","time_elapsed","internal_node_id","run_id","condition","recorded_at","source_code_version","ip","user_agent","device","browser","browser_version","platform","platform_version","referer","accept_language","PROLIFIC_PID","STUDY_ID","SESSION_ID","WEEK","BATCH","prolific_id","week","batch","realtime","success","responses","item_order","radio_event_ids","radio_event_times","key_event_times","mouse_event_times","straightlining","zigzagging","honeypot","eventType","view_history","slider_start","which_type","canvas_config","goals_layout","control_level","trial_number","tutorial_trial_number","trial_start_time","phase1_start_time","phase2_start_time","phase3_start_time","goal_1_value","goal_1_distance","goal_2_value","goal_2_distance","goal_selected","outcome","outcome_total","participant_final_score","participant_initial_score","participant_final_score_prop","goal_choice_rt","allocated_time","allocated_time_remaining","goal_direction","counts","mouse_movements","key_presses","question_order","question_id"
"2104","1753959246649","<p style='font-size:40px;line-height:1.25'><strong>Welcome to the experiment!</strong></p><p style='font-size:1.1em;line-height:1.25'>Thank you for participanting in our experiment again! You will be asked to play the Dysfunctional Ball Game again. We will briefly recap the rules before we start.</p><p style='font-size:1.1em;line-height:1.25'>Press <strong>Next</strong> to continue.</p>","0","custom-html-button-response","0","2112","0.0-0.0","307","1","2025-07-31 10:54:03","1f75c3e559b7213887762d5229550c2b","37.47.254.154","Mozilla/5.0 (Windows NT 10.0; Win64; x64; rv:141.0) Gecko/20100101 Firefox/141.0","","Firefox","141.0","Windows","10.0","https://app.prolific.com/","pl","66a6211743bf2623c0a8eb81","6877631c9844ddd5501205fc","688b4b34069ee6fbe874d947","3","1","66a6211743bf2623c0a8eb81","3","1","2025-07-31T10:54:06.649Z","","","","","","","","","","","","","","","","","","","","","","","","","","","","","","","","","","","","","","","","","",""
"7876","","","","fullscreen","1","11059","0.0-1.0","307","1","2025-07-31 10:54:03","1f75c3e559b7213887762d5229550c2b","37.47.254.154","Mozilla/5.0 (Windows NT 10.0; Win64; x64; rv:141.0) Gecko/20100101 Firefox/141.0","","Firefox","141.0","Windows","10.0","https://app.prolific.com/","pl","66a6211743bf2623c0a8eb81","6877631c9844ddd5501205fc","688b4b34069ee6fbe874d947","3","1","66a6211743bf2623c0a8eb81","3","1","","true","","","","","","","","","","","","","","","","","","","","","","","","","","","","","","","","","","","","","","","","",""
"2342","1753959257947","<p style='font-size:1.1em;line-height:1.25'>In the following, we will ask you a few questions relating to your feelings in the last 24 hours.<br></p><p style='font-size:1.1em;line-height:1.25'>Press the <strong>Next</strong> button to continue.</p>","0","custom-html-button-response","2","13411","0.0-2.0-0.0","307","1","2025-07-31 10:54:03","1f75c3e559b7213887762d5229550c2b","37.47.254.154","Mozilla/5.0 (Windows NT 10.0; Win64; x64; rv:141.0) Gecko/20100101 Firefox/141.0","","Firefox","141.0","Windows","10.0","https://app.prolific.com/","pl","66a6211743bf2623c0a8eb81","6877631c9844ddd5501205fc","688b4b34069ee6fbe874d947","3","1","66a6211743bf2623c0a8eb81","3","1","2025-07-31T10:54:17.948Z","","","","","","","","","","","","","","","","","","","","","","","","","","","","","","","","","","","","","","","","","",""
"43910","","","","survey-template","3","57355","0.0-2.0-1.0","307","1","2025-07-31 10:54:03","1f75c3e559b7213887762d5229550c2b","37.47.254.154","Mozilla/5.0 (Windows NT 10.0; Win64; x64; rv:141.0) Gecko/20100101 Firefox/141.0","","Firefox","141.0","Windows","10.0","https://app.prolific.com/","pl","66a6211743bf2623c0a8eb81","6877631c9844ddd5501205fc","688b4b34069ee6fbe874d947","3","1","66a6211743bf2623c0a8eb81","3","1","2025-07-31T10:55:01.892Z","","{""Q01"":""0"",""Q02"":""0"",""Q03"":""0"",""Q04"":""0"",""Q05"":""0"",""Q06"":""0"",""Q07"":""0"",""Q08"":""0"",""Q09"":""1"",""Q10"":""1"",""Q11"":""0"",""Q12"":""0"",""Q13"":""5"",""Q14"":""0"",""Q15"":""1"",""Q16"":""1"",""Q17"":""0"",""Q18"":""0"",""Q19"":""0"",""Q20"":""0"",""Q21"":""0"",""Q22"":""0""}","[0,1,2,3,4,5,6,7,8,9,10,11,12,13,14,15,16,17,18,19,20,21]","[""Q01"",""Q02"",""Q03"",""Q04"",""Q05"",""Q06"",""Q07"",""Q07"",""Q07"",""Q08"",""Q09"",""Q10"",""Q11"",""Q12"",""Q13"",""Q14"",""Q15"",""Q16"",""Q17"",""Q19"",""Q18"",""Q20"",""Q21"",""Q22""]","[2589,3678,4593,5457,6802,9119,11084,11131,11164,13743,15905,17586,19349,20607,21745,27363,30023,32571,33453,34783,35505,37619,38707,39812]","[]","[0,2589,3678,4593,5457,6802,9119,11084,11131,11164,13743,15265,15905,17586,19349,20607,21745,27363,30023,32571,33453,34061,34783,35505,37619,38707,39812,43905]","0.7727272727272727","0.2857142857142857","0","drsp","","","","","","","","","","","","","","","","","","","","","","","","","","","","","","",""
"15626","","","","survey-template","4","72989","0.0-2.0-2.0","307","1","2025-07-31 10:54:03","1f75c3e559b7213887762d5229550c2b","37.47.254.154","Mozilla/5.0 (Windows NT 10.0; Win64; x64; rv:141.0) Gecko/20100101 Firefox/141.0","","Firefox","141.0","Windows","10.0","https://app.prolific.com/","pl","66a6211743bf2623c0a8eb81","6877631c9844ddd5501205fc","688b4b34069ee6fbe874d947","3","1","66a6211743bf2623c0a8eb81","3","1","2025-07-31T10:55:17.526Z","","{""Q01"":""1"",""Q02"":""1"",""Q03"":""0""}","[0,1,2]","[""Q01"",""Q01"",""Q02"",""Q03""]","[9868,11486,12941,14422]","[]","[9868,11486,12941,14422,15625]","0.3333333333333333","0","0","stress","","","","","","","","","","","","","","","","","","","","","","","","","","","","","","",""
"61641","","","","instructions","5","134640","0.0-3.0-0.0","307","1","2025-07-31 10:54:03","1f75c3e559b7213887762d5229550c2b","37.47.254.154","Mozilla/5.0 (Windows NT 10.0; Win64; x64; rv:141.0) Gecko/20100101 Firefox/141.0","","Firefox","141.0","Windows","10.0","https://app.prolific.com/","pl","66a6211743bf2623c0a8eb81","6877631c9844ddd5501205fc","688b4b34069ee6fbe874d947","3","1","66a6211743bf2623c0a8eb81","3","1","","","","","","","","","","","","","[{""page_index"":0,""viewing_time"":61641}]","","","","","","","","","","","","","","","","","","","","","","","","","","","","","",""
"3935","","<p>Before you start with this game please answer the following three questions yourself. </p>
  <p>Through this game, we measure several aspects of your cognitive performance, such as reaction times, multi-tasking capabilities </p>
  <p>and the ability to assess the situation you are in.</p>
  <p></p>
  <p><b>How good do you usually are in such tasks?</b></p>","57","html-slider-response","6","138584","0.0-4.0-0.0","307","1","2025-07-31 10:54:03","1f75c3e559b7213887762d5229550c2b","37.47.254.154","Mozilla/5.0 (Windows NT 10.0; Win64; x64; rv:141.0) Gecko/20100101 Firefox/141.0","","Firefox","141.0","Windows","10.0","https://app.prolific.com/","pl","66a6211743bf2623c0a8eb81","6877631c9844ddd5501205fc","688b4b34069ee6fbe874d947","3","1","66a6211743bf2623c0a8eb81","3","1","2025-07-31T10:56:23.121Z","","","","","","","","","","","PreSkillQ","","50","","","","","","","","","","","","","","","","","","","","","","","","","","","","",""
"3141","","<div style=""width:500px;"">
  <p>How well do you think you will perform in this task compared to other participants?</p>
  </div>","55","html-slider-response","7","141731","0.0-4.0-1.0","307","1","2025-07-31 10:54:03","1f75c3e559b7213887762d5229550c2b","37.47.254.154","Mozilla/5.0 (Windows NT 10.0; Win64; x64; rv:141.0) Gecko/20100101 Firefox/141.0","","Firefox","141.0","Windows","10.0","https://app.prolific.com/","pl","66a6211743bf2623c0a8eb81","6877631c9844ddd5501205fc","688b4b34069ee6fbe874d947","3","1","66a6211743bf2623c0a8eb81","3","1","2025-07-31T10:56:26.268Z","","","","","","","","","","","PrePerfQ","","50","","","","","","","","","","","","","","","","","","","","","","","","","","","","",""
"2336","","<div style=""width:500px;"">
  <p>What best describes how you currently feel?</p>
  </div>","92","html-slider-response","8","144072","0.0-4.0-2.0","307","1","2025-07-31 10:54:03","1f75c3e559b7213887762d5229550c2b","37.47.254.154","Mozilla/5.0 (Windows NT 10.0; Win64; x64; rv:141.0) Gecko/20100101 Firefox/141.0","","Firefox","141.0","Windows","10.0","https://app.prolific.com/","pl","66a6211743bf2623c0a8eb81","6877631c9844ddd5501205fc","688b4b34069ee6fbe874d947","3","1","66a6211743bf2623c0a8eb81","3","1","2025-07-31T10:56:28.609Z","","","","","","","","","","","PreMotivationQ","","50","","","","","","","","","","","","","","","","","","","","","","","","","","","","",""
"","","","","ctl-task-cpt","9","184094","0.0-5.0-0.0","307","1","2025-07-31 10:54:03","1f75c3e559b7213887762d5229550c2b","37.47.254.154","Mozilla/5.0 (Windows NT 10.0; Win64; x64; rv:141.0) Gecko/20100101 Firefox/141.0","","Firefox","141.0","Windows","10.0","https://app.prolific.com/","pl","66a6211743bf2623c0a8eb81","6877631c9844ddd5501205fc","688b4b34069ee6fbe874d947","3","1","66a6211743bf2623c0a8eb81","3","1","2025-07-31T10:57:08.631Z","","","","","","","","","","","","","","win-only","3","g1:SW,g2:NE","1","1","0","147210","1005","6020","36994","1","4","8","6","2","8","7","7","0","0.05303030303030303","1017","3000","1920","[""up"",""right""]","{""num_key_presses"":8,""num_perfect"":7,""num_errors"":1,""num_randdir"":0,""num_randdir_good_moves"":0,""num_whilered"":0,""num_whileblue"":1,""num_blue"":3,""num_good_moves"":7}","[300.22857753208706,295.92857448032925,12,300.22857753208706,295.92857448032925,100,300.22857753208706,295.92857448032925,210,300.22857753208706,295.92857448032925,320,300.22857753208706,295.92857448032925,431,307.22857753208706,287.92857448032925,540,470.22857753208706,121.92857448032925,650,486.22857753208706,85.92857448032925,759,508.22857753208706,76.92857448032925,869,539.228577532087,73.92857448032925,979,539.228577532087,73.92857448032925,1091,539.228577532087,73.92857448032925,1199,539.228577532087,73.92857448032925,1311,539.228577532087,73.92857448032925,1422,539.228577532087,73.92857448032925,1533,539.228577532087,73.92857448032925,1644,539.228577532087,73.92857448032925,1754,539.228577532087,73.92857448032925,1864,539.228577532087,73.92857448032925,1975,539.228577532087,73.92857448032925,2084,539.228577532087,73.92857448032925,2195,539.228577532087,73.92857448032925,2308,539.228577532087,73.92857448032925,2419,539.228577532087,73.92857448032925,2529,539.228577532087,73.92857448032925,2640,539.228577532087,73.92857448032925,2750,539.228577532087,73.92857448032925,2861,539.228577532087,73.92857448032925,2970,539.228577532087,73.92857448032925,3080,539.228577532087,73.92857448032925,3189,539.228577532087,73.92857448032925,3300,539.228577532087,73.92857448032925,3411,539.228577532087,73.92857448032925,3522,539.228577532087,73.92857448032925,3632,539.228577532087,73.92857448032925,3745,539.228577532087,73.92857448032925,3852,539.228577532087,73.92857448032925,3962,539.228577532087,73.92857448032925,4072,539.228577532087,73.92857448032925,4181,539.228577532087,73.92857448032925,4293,539.228577532087,73.92857448032925,4404,539.228577532087,73.92857448032925,4513,539.228577532087,73.92857448032925,4623,539.228577532087,73.92857448032925,4733,539.228577532087,73.92857448032925,4843,539.228577532087,73.92857448032925,4952]","[4560,4560,2047,2016,497,""smooth"",""up"",""up"",""good_move"",7690,3130,2561.6,4560,568.4,""smooth"",""right"",""right"",""good_move"",10627,2937,2302,7690,635,""smooth"",""up"",""up"",""good_move"",13735,3108,2390.9,10627,717.1,""smooth"",""right"",""right"",""good_move"",17496,3760,3301,13736,459,""smooth"",""right"",""right"",""good_move"",20427,2931,2551,17497,380,""while_blue"",""up"",""left"",""bad_move"",27223,6795,2621.7,24116,485.3,""smooth"",""up"",""up"",""good_move"",30677,3453,2922.3,27224,530.7,""smooth"",""right"",""right"",""good_move""]","",""
"2657","","<div style=""width:500px;"">
  <p>What determined the result of this run?</p>
  </div>","79","html-slider-response","10","186754","0.0-5.0-1.0","307","1","2025-07-31 10:54:03","1f75c3e559b7213887762d5229550c2b","37.47.254.154","Mozilla/5.0 (Windows NT 10.0; Win64; x64; rv:141.0) Gecko/20100101 Firefox/141.0","","Firefox","141.0","Windows","10.0","https://app.prolific.com/","pl","66a6211743bf2623c0a8eb81","6877631c9844ddd5501205fc","688b4b34069ee6fbe874d947","3","1","66a6211743bf2623c0a8eb81","3","1","2025-07-31T10:57:11.291Z","","","","","","","","","","","AttribQ","","50","","","","","","","","","","","","","","","","","","","","","","","","","","","","",""
"1408","","<div style=""width:500px;"">
  <p>How much control did you have over the ball?</p>
  </div>","93","html-slider-response","11","188163","0.0-5.0-2.0","307","1","2025-07-31 10:54:03","1f75c3e559b7213887762d5229550c2b","37.47.254.154","Mozilla/5.0 (Windows NT 10.0; Win64; x64; rv:141.0) Gecko/20100101 Firefox/141.0","","Firefox","141.0","Windows","10.0","https://app.prolific.com/","pl","66a6211743bf2623c0a8eb81","6877631c9844ddd5501205fc","688b4b34069ee6fbe874d947","3","1","66a6211743bf2623c0a8eb81","3","1","2025-07-31T10:57:12.700Z","","","","","","","","","","","ControlQ","","50","","","","","","","","","","","","","","","","","","","","","","","","","","","","",""
"2671","","<div style=""width:500px;"">
  <p>How would you describe your current emotional state?</p>
  </div>","4","html-slider-response","12","190837","0.0-5.0-3.0","307","1","2025-07-31 10:54:03","1f75c3e559b7213887762d5229550c2b","37.47.254.154","Mozilla/5.0 (Windows NT 10.0; Win64; x64; rv:141.0) Gecko/20100101 Firefox/141.0","","Firefox","141.0","Windows","10.0","https://app.prolific.com/","pl","66a6211743bf2623c0a8eb81","6877631c9844ddd5501205fc","688b4b34069ee6fbe874d947","3","1","66a6211743bf2623c0a8eb81","3","1","2025-07-31T10:57:15.375Z","","","","","","","","","","","StressQ","","50","","","","","","","","","","","","","","","","","","","","","","","","","","","","",""
"2373","","<div style=""width:500px;"">
  <p>What best describes how you currently feel?</p>
  </div>","95","html-slider-response","13","193214","0.0-5.0-4.0","307","1","2025-07-31 10:54:03","1f75c3e559b7213887762d5229550c2b","37.47.254.154","Mozilla/5.0 (Windows NT 10.0; Win64; x64; rv:141.0) Gecko/20100101 Firefox/141.0","","Firefox","141.0","Windows","10.0","https://app.prolific.com/","pl","66a6211743bf2623c0a8eb81","6877631c9844ddd5501205fc","688b4b34069ee6fbe874d947","3","1","66a6211743bf2623c0a8eb81","3","1","2025-07-31T10:57:17.751Z","","","","","","","","","","","MotivationQ","","50","","","","","","","","","","","","","","","","","","","","","","","","","","","","",""
"","","","","ctl-task-cpt","14","227000","0.0-5.0-0.1","307","1","2025-07-31 10:54:03","1f75c3e559b7213887762d5229550c2b","37.47.254.154","Mozilla/5.0 (Windows NT 10.0; Win64; x64; rv:141.0) Gecko/20100101 Firefox/141.0","","Firefox","141.0","Windows","10.0","https://app.prolific.com/","pl","66a6211743bf2623c0a8eb81","6877631c9844ddd5501205fc","688b4b34069ee6fbe874d947","3","1","66a6211743bf2623c0a8eb81","3","1","2025-07-31T10:57:51.537Z","","","","","","","","","","","","","","win-only","1","g1:NE,g2:SW","0.9","2","0","196334","746","5763","30776","1","4","4","6","2","4","4","11","7","0.08333333333333333","1127","3000","2070","[""down"",""left""]","{""num_key_presses"":6,""num_perfect"":5,""num_errors"":0,""num_randdir"":1,""num_randdir_good_moves"":1,""num_whilered"":0,""num_whileblue"":0,""num_blue"":2,""num_good_moves"":6}","[294.22857753208706,298.92857448032925,1,294.22857753208706,298.92857448032925,102,294.22857753208706,298.92857448032925,211,294.22857753208706,298.92857448032925,321,294.22857753208706,298.92857448032925,432,294.22857753208706,298.92857448032925,542,283.22857753208706,304.92857448032925,656,138.22857753208706,472.92857448032925,760,118.22857753208706,498.92857448032925,870,98.22857753208706,515.9285744803292,980,63.22857753208705,525.9285744803292,1089,63.22857753208705,525.9285744803292,1202,63.22857753208705,525.9285744803292,1312,63.22857753208705,525.9285744803292,1424,131.22857753208706,502.92857448032925,1535,978.228577532087,353.92857448032925,1645,973.228577532087,344.92857448032925,1754,902.228577532087,332.92857448032925,1868,846.228577532087,325.92857448032925,1976,830.228577532087,325.92857448032925,2085,824.228577532087,325.92857448032925,2195,824.228577532087,325.92857448032925,2307,824.228577532087,325.92857448032925,2419,824.228577532087,325.92857448032925,2529,824.228577532087,325.92857448032925,2638,824.228577532087,325.92857448032925,2750,824.228577532087,325.92857448032925,2859,824.228577532087,325.92857448032925,2969,824.228577532087,325.92857448032925,3078,824.228577532087,325.92857448032925,3188,824.228577532087,325.92857448032925,3300,824.228577532087,325.92857448032925,3414,824.228577532087,325.92857448032925,3523,824.228577532087,325.92857448032925,3632,824.228577532087,325.92857448032925,3742,824.228577532087,325.92857448032925,3852,824.228577532087,325.92857448032925,3963,824.228577532087,325.92857448032925,4072,824.228577532087,325.92857448032925,4181,824.228577532087,325.92857448032925,4292,824.228577532087,325.92857448032925,4403,824.228577532087,325.92857448032925,4515,824.228577532087,325.92857448032925,4624,824.228577532087,325.92857448032925,4734,824.228577532087,325.92857448032925,4845,824.228577532087,325.92857448032925,4954]","[1504,1504,1000,0,504,""oops"",""down"",""left"",""good_move"",4626,3122,2252.5,1504,869.5,""smooth"",""down"",""down"",""good_move"",7659,3032,2585.4,4627,446.6,""smooth"",""down"",""down"",""good_move"",10854,3195,2704.9,7659,490.1,""smooth"",""left"",""left"",""good_move"",21768,10914,2918.7,18283,566.3,""smooth"",""down"",""down"",""good_move"",24742,2974,2398.4,21768,575.6,""smooth"",""left"",""left"",""good_move""]","",""
"3709","","<div style=""width:500px;"">
  <p>What determined the result of this run?</p>
  </div>","78","html-slider-response","15","230711","0.0-5.0-1.1","307","1","2025-07-31 10:54:03","1f75c3e559b7213887762d5229550c2b","37.47.254.154","Mozilla/5.0 (Windows NT 10.0; Win64; x64; rv:141.0) Gecko/20100101 Firefox/141.0","","Firefox","141.0","Windows","10.0","https://app.prolific.com/","pl","66a6211743bf2623c0a8eb81","6877631c9844ddd5501205fc","688b4b34069ee6fbe874d947","3","1","66a6211743bf2623c0a8eb81","3","1","2025-07-31T10:57:55.248Z","","","","","","","","","","","AttribQ","","50","","","","","","","","","","","","","","","","","","","","","","","","","","","","",""
"2354","","<div style=""width:500px;"">
  <p>How much control did you have over the ball?</p>
  </div>","85","html-slider-response","16","233067","0.0-5.0-2.1","307","1","2025-07-31 10:54:03","1f75c3e559b7213887762d5229550c2b","37.47.254.154","Mozilla/5.0 (Windows NT 10.0; Win64; x64; rv:141.0) Gecko/20100101 Firefox/141.0","","Firefox","141.0","Windows","10.0","https://app.prolific.com/","pl","66a6211743bf2623c0a8eb81","6877631c9844ddd5501205fc","688b4b34069ee6fbe874d947","3","1","66a6211743bf2623c0a8eb81","3","1","2025-07-31T10:57:57.604Z","","","","","","","","","","","ControlQ","","50","","","","","","","","","","","","","","","","","","","","","","","","","","","","",""
"2375","","<div style=""width:500px;"">
  <p>How would you describe your current emotional state?</p>
  </div>","3","html-slider-response","17","235445","0.0-5.0-3.1","307","1","2025-07-31 10:54:03","1f75c3e559b7213887762d5229550c2b","37.47.254.154","Mozilla/5.0 (Windows NT 10.0; Win64; x64; rv:141.0) Gecko/20100101 Firefox/141.0","","Firefox","141.0","Windows","10.0","https://app.prolific.com/","pl","66a6211743bf2623c0a8eb81","6877631c9844ddd5501205fc","688b4b34069ee6fbe874d947","3","1","66a6211743bf2623c0a8eb81","3","1","2025-07-31T10:57:59.982Z","","","","","","","","","","","StressQ","","50","","","","","","","","","","","","","","","","","","","","","","","","","","","","",""
"2129","","<div style=""width:500px;"">
  <p>What best describes how you currently feel?</p>
  </div>","91","html-slider-response","18","237577","0.0-5.0-4.1","307","1","2025-07-31 10:54:03","1f75c3e559b7213887762d5229550c2b","37.47.254.154","Mozilla/5.0 (Windows NT 10.0; Win64; x64; rv:141.0) Gecko/20100101 Firefox/141.0","","Firefox","141.0","Windows","10.0","https://app.prolific.com/","pl","66a6211743bf2623c0a8eb81","6877631c9844ddd5501205fc","688b4b34069ee6fbe874d947","3","1","66a6211743bf2623c0a8eb81","3","1","2025-07-31T10:58:02.114Z","","","","","","","","","","","MotivationQ","","50","","","","","","","","","","","","","","","","","","","","","","","","","","","","",""
"","","","","ctl-task-cpt","19","261500","0.0-5.0-0.2","307","1","2025-07-31 10:54:03","1f75c3e559b7213887762d5229550c2b","37.47.254.154","Mozilla/5.0 (Windows NT 10.0; Win64; x64; rv:141.0) Gecko/20100101 Firefox/141.0","","Firefox","141.0","Windows","10.0","https://app.prolific.com/","pl","66a6211743bf2623c0a8eb81","6877631c9844ddd5501205fc","688b4b34069ee6fbe874d947","3","1","66a6211743bf2623c0a8eb81","3","1","2025-07-31T10:58:26.037Z","","","","","","","","","","","","","","win-only","2","g1:SE,g2:NW","0.8","3","0","240698","1008","6020","20913","1","4","4","6","1","1","1","12","11","0.09090909090909091","1357","3000","2225","[""down"",""right""]","{""num_key_presses"":4,""num_perfect"":4,""num_errors"":0,""num_randdir"":0,""num_randdir_good_moves"":0,""num_whilered"":0,""num_whileblue"":0,""num_blue"":1,""num_good_moves"":4}","[301.22857753208706,290.92857448032925,0,301.22857753208706,290.92857448032925,105,301.22857753208706,290.92857448032925,216,301.22857753208706,290.92857448032925,325,301.22857753208706,290.92857448032925,435,301.22857753208706,290.92857448032925,548,301.22857753208706,290.92857448032925,655,301.22857753208706,290.92857448032925,765,370.22857753208706,360.92857448032925,876,441.22857753208706,446.92857448032925,985,488.22857753208706,490.92857448032925,1097,520.228577532087,512.9285744803292,1207,531.228577532087,519.9285744803292,1319,531.228577532087,519.9285744803292,1431,531.228577532087,519.9285744803292,1542,531.228577532087,519.9285744803292,1655,618.228577532087,488.92857448032925,1765,859.228577532087,342.92857448032925,1876,859.228577532087,342.92857448032925,1985,859.228577532087,342.92857448032925,2097,859.228577532087,342.92857448032925,2205,859.228577532087,342.92857448032925,2317,859.228577532087,342.92857448032925,2429,859.228577532087,342.92857448032925,2539,859.228577532087,342.92857448032925,2648,859.228577532087,342.92857448032925,2759,859.228577532087,342.92857448032925,2870,859.228577532087,342.92857448032925,2980,859.228577532087,342.92857448032925,3088,859.228577532087,342.92857448032925,3198,859.228577532087,342.92857448032925,3309,859.228577532087,342.92857448032925,3421,859.228577532087,342.92857448032925,3531,859.228577532087,342.92857448032925,3640,859.228577532087,342.92857448032925,3751,859.228577532087,342.92857448032925,3861,859.228577532087,342.92857448032925,3971,859.228577532087,342.92857448032925,4080,859.228577532087,342.92857448032925,4190,859.228577532087,342.92857448032925,4303,859.228577532087,342.92857448032925,4414,859.228577532087,342.92857448032925,4525,859.228577532087,342.92857448032925,4634,859.228577532087,342.92857448032925,4745,859.228577532087,342.92857448032925,4855,859.228577532087,342.92857448032925,4964]","[4937,4937,2277.2,2015,644.8,""smooth"",""down"",""down"",""good_move"",8043,3106,2417.1,4937,688.9,""smooth"",""down"",""down"",""good_move"",10930,2887,2238,8043,649,""smooth"",""right"",""right"",""good_move"",14615,3685,3173.9,10930,511.1,""smooth"",""right"",""right"",""good_move""]","",""
"4184","","<div style=""width:500px;"">
  <p>What determined the result of this run?</p>
  </div>","80","html-slider-response","20","265687","0.0-5.0-1.2","307","1","2025-07-31 10:54:03","1f75c3e559b7213887762d5229550c2b","37.47.254.154","Mozilla/5.0 (Windows NT 10.0; Win64; x64; rv:141.0) Gecko/20100101 Firefox/141.0","","Firefox","141.0","Windows","10.0","https://app.prolific.com/","pl","66a6211743bf2623c0a8eb81","6877631c9844ddd5501205fc","688b4b34069ee6fbe874d947","3","1","66a6211743bf2623c0a8eb81","3","1","2025-07-31T10:58:30.224Z","","","","","","","","","","","AttribQ","","50","","","","","","","","","","","","","","","","","","","","","","","","","","","","",""
"2008","","<div style=""width:500px;"">
  <p>How much control did you have over the ball?</p>
  </div>","86","html-slider-response","21","267697","0.0-5.0-2.2","307","1","2025-07-31 10:54:03","1f75c3e559b7213887762d5229550c2b","37.47.254.154","Mozilla/5.0 (Windows NT 10.0; Win64; x64; rv:141.0) Gecko/20100101 Firefox/141.0","","Firefox","141.0","Windows","10.0","https://app.prolific.com/","pl","66a6211743bf2623c0a8eb81","6877631c9844ddd5501205fc","688b4b34069ee6fbe874d947","3","1","66a6211743bf2623c0a8eb81","3","1","2025-07-31T10:58:32.234Z","","","","","","","","","","","ControlQ","","50","","","","","","","","","","","","","","","","","","","","","","","","","","","","",""
"1767","","<div style=""width:500px;"">
  <p>How would you describe your current emotional state?</p>
  </div>","5","html-slider-response","22","269468","0.0-5.0-3.2","307","1","2025-07-31 10:54:03","1f75c3e559b7213887762d5229550c2b","37.47.254.154","Mozilla/5.0 (Windows NT 10.0; Win64; x64; rv:141.0) Gecko/20100101 Firefox/141.0","","Firefox","141.0","Windows","10.0","https://app.prolific.com/","pl","66a6211743bf2623c0a8eb81","6877631c9844ddd5501205fc","688b4b34069ee6fbe874d947","3","1","66a6211743bf2623c0a8eb81","3","1","2025-07-31T10:58:34.005Z","","","","","","","","","","","StressQ","","50","","","","","","","","","","","","","","","","","","","","","","","","","","","","",""
"1586","","<div style=""width:500px;"">
  <p>What best describes how you currently feel?</p>
  </div>","94","html-slider-response","23","271055","0.0-5.0-4.2","307","1","2025-07-31 10:54:03","1f75c3e559b7213887762d5229550c2b","37.47.254.154","Mozilla/5.0 (Windows NT 10.0; Win64; x64; rv:141.0) Gecko/20100101 Firefox/141.0","","Firefox","141.0","Windows","10.0","https://app.prolific.com/","pl","66a6211743bf2623c0a8eb81","6877631c9844ddd5501205fc","688b4b34069ee6fbe874d947","3","1","66a6211743bf2623c0a8eb81","3","1","2025-07-31T10:58:35.592Z","","","","","","","","","","","MotivationQ","","50","","","","","","","","","","","","","","","","","","","","","","","","","","","","",""
"","","","","ctl-task-cpt","24","302292","0.0-5.0-0.3","307","1","2025-07-31 10:54:03","1f75c3e559b7213887762d5229550c2b","37.47.254.154","Mozilla/5.0 (Windows NT 10.0; Win64; x64; rv:141.0) Gecko/20100101 Firefox/141.0","","Firefox","141.0","Windows","10.0","https://app.prolific.com/","pl","66a6211743bf2623c0a8eb81","6877631c9844ddd5501205fc","688b4b34069ee6fbe874d947","3","1","66a6211743bf2623c0a8eb81","3","1","2025-07-31T10:59:06.829Z","","","","","","","","","","","","","","win-only","3","g1:SW,g2:NE","0.7","4","0","274176","1084","6090","28228","1","4","8","6","1","1","1","13","12","0.09848484848484848","1082","3000","2285","[""down"",""left""]","{""num_key_presses"":4,""num_perfect"":4,""num_errors"":0,""num_randdir"":0,""num_randdir_good_moves"":0,""num_whilered"":0,""num_whileblue"":0,""num_blue"":3,""num_good_moves"":4}","[293.22857753208706,300.92857448032925,0,293.22857753208706,299.92857448032925,107,293.22857753208706,299.92857448032925,217,293.22857753208706,299.92857448032925,328,293.22857753208706,299.92857448032925,437,293.22857753208706,299.92857448032925,547,283.22857753208706,305.92857448032925,656,134.22857753208706,436.92857448032925,765,68.22857753208706,507.92857448032925,878,19.22857753208705,534.9285744803292,986,17.22857753208705,534.9285744803292,1096,17.22857753208705,534.9285744803292,1212,17.22857753208705,534.9285744803292,1320,18.22857753208705,532.9285744803292,1432,-140.77142246791294,406.92857448032925,1544,-207.77142246791294,372.92857448032925,1652,-199.77142246791294,359.92857448032925,1763,-193.77142246791294,350.92857448032925,1872,-193.77142246791294,350.92857448032925,1983,-193.77142246791294,350.92857448032925,2093,-193.77142246791294,350.92857448032925,2202,-193.77142246791294,350.92857448032925,2313,-193.77142246791294,350.92857448032925,2426,-193.77142246791294,350.92857448032925,2534,-193.77142246791294,350.92857448032925,2642,-193.77142246791294,350.92857448032925,2754,-193.77142246791294,350.92857448032925,2864,-193.77142246791294,350.92857448032925,2975,-193.77142246791294,350.92857448032925,3083,-193.77142246791294,350.92857448032925,3193,-193.77142246791294,350.92857448032925,3304,-193.77142246791294,350.92857448032925,3416,-193.77142246791294,350.92857448032925,3525,-193.77142246791294,350.92857448032925,3636,-193.77142246791294,350.92857448032925,3746,-193.77142246791294,350.92857448032925,3858,-193.77142246791294,350.92857448032925,3965,-193.77142246791294,350.92857448032925,4075,-193.77142246791294,350.92857448032925,4184,-193.77142246791294,350.92857448032925,4296,-193.77142246791294,350.92857448032925,4407,-193.77142246791294,350.92857448032925,4517,-193.77142246791294,350.92857448032925,4627,-193.77142246791294,350.92857448032925,4739,-193.77142246791294,350.92857448032925,4847,-193.77142246791294,350.92857448032925,4958]","[5398,5398,2887,2012,499,""smooth"",""down"",""down"",""good_move"",12562,7164,2451,9510,601,""smooth"",""down"",""down"",""good_move"",18605,6042,2493.5,15521,590.5,""smooth"",""left"",""left"",""good_move"",21867,3262,2412.8,18605,849.2,""smooth"",""left"",""left"",""good_move""]","",""
"3031","","<div style=""width:500px;"">
  <p>What determined the result of this run?</p>
  </div>","87","html-slider-response","25","305325","0.0-5.0-1.3","307","1","2025-07-31 10:54:03","1f75c3e559b7213887762d5229550c2b","37.47.254.154","Mozilla/5.0 (Windows NT 10.0; Win64; x64; rv:141.0) Gecko/20100101 Firefox/141.0","","Firefox","141.0","Windows","10.0","https://app.prolific.com/","pl","66a6211743bf2623c0a8eb81","6877631c9844ddd5501205fc","688b4b34069ee6fbe874d947","3","1","66a6211743bf2623c0a8eb81","3","1","2025-07-31T10:59:09.862Z","","","","","","","","","","","AttribQ","","50","","","","","","","","","","","","","","","","","","","","","","","","","","","","",""
"1809","","<div style=""width:500px;"">
  <p>How much control did you have over the ball?</p>
  </div>","97","html-slider-response","26","307134","0.0-5.0-2.3","307","1","2025-07-31 10:54:03","1f75c3e559b7213887762d5229550c2b","37.47.254.154","Mozilla/5.0 (Windows NT 10.0; Win64; x64; rv:141.0) Gecko/20100101 Firefox/141.0","","Firefox","141.0","Windows","10.0","https://app.prolific.com/","pl","66a6211743bf2623c0a8eb81","6877631c9844ddd5501205fc","688b4b34069ee6fbe874d947","3","1","66a6211743bf2623c0a8eb81","3","1","2025-07-31T10:59:11.672Z","","","","","","","","","","","ControlQ","","50","","","","","","","","","","","","","","","","","","","","","","","","","","","","",""
"1630","","<div style=""width:500px;"">
  <p>How would you describe your current emotional state?</p>
  </div>","2","html-slider-response","27","308768","0.0-5.0-3.3","307","1","2025-07-31 10:54:03","1f75c3e559b7213887762d5229550c2b","37.47.254.154","Mozilla/5.0 (Windows NT 10.0; Win64; x64; rv:141.0) Gecko/20100101 Firefox/141.0","","Firefox","141.0","Windows","10.0","https://app.prolific.com/","pl","66a6211743bf2623c0a8eb81","6877631c9844ddd5501205fc","688b4b34069ee6fbe874d947","3","1","66a6211743bf2623c0a8eb81","3","1","2025-07-31T10:59:13.305Z","","","","","","","","","","","StressQ","","50","","","","","","","","","","","","","","","","","","","","","","","","","","","","",""
"1875","","<div style=""width:500px;"">
  <p>What best describes how you currently feel?</p>
  </div>","97","html-slider-response","28","310645","0.0-5.0-4.3","307","1","2025-07-31 10:54:03","1f75c3e559b7213887762d5229550c2b","37.47.254.154","Mozilla/5.0 (Windows NT 10.0; Win64; x64; rv:141.0) Gecko/20100101 Firefox/141.0","","Firefox","141.0","Windows","10.0","https://app.prolific.com/","pl","66a6211743bf2623c0a8eb81","6877631c9844ddd5501205fc","688b4b34069ee6fbe874d947","3","1","66a6211743bf2623c0a8eb81","3","1","2025-07-31T10:59:15.182Z","","","","","","","","","","","MotivationQ","","50","","","","","","","","","","","","","","","","","","","","","","","","","","","","",""
"","","","","ctl-task-cpt","29","368188","0.0-5.0-0.4","307","1","2025-07-31 10:54:03","1f75c3e559b7213887762d5229550c2b","37.47.254.154","Mozilla/5.0 (Windows NT 10.0; Win64; x64; rv:141.0) Gecko/20100101 Firefox/141.0","","Firefox","141.0","Windows","10.0","https://app.prolific.com/","pl","66a6211743bf2623c0a8eb81","6877631c9844ddd5501205fc","688b4b34069ee6fbe874d947","3","1","66a6211743bf2623c0a8eb81","3","1","2025-07-31T11:00:12.725Z","","","","","","","","","","","","","","win-only","2","g1:SE,g2:NW","0.6","5","0","313766","948","5962","54534","1","4","4","6","2","4","4","17","13","0.12878787878787878","3550","3000","1185","[""left"",""up""]","{""num_key_presses"":10,""num_perfect"":6,""num_errors"":0,""num_randdir"":4,""num_randdir_good_moves"":2,""num_whilered"":0,""num_whileblue"":0,""num_blue"":5,""num_good_moves"":8}","[300.22857753208706,296.92857448032925,0,300.22857753208706,296.92857448032925,106,300.22857753208706,296.92857448032925,215,300.22857753208706,296.92857448032925,326,300.22857753208706,296.92857448032925,436,306.22857753208706,297.92857448032925,545,305.22857753208706,287.92857448032925,658,305.22857753208706,287.92857448032925,769,380.22857753208706,320.92857448032925,881,475.22857753208706,425.92857448032925,992,545.228577532087,505.92857448032925,1102,549.228577532087,520.9285744803292,1212,549.228577532087,532.9285744803292,1321,548.228577532087,535.9285744803292,1434,548.228577532087,535.9285744803292,1542,548.228577532087,535.9285744803292,1653,548.228577532087,535.9285744803292,1762,548.228577532087,535.9285744803292,1873,548.228577532087,535.9285744803292,1984,548.228577532087,535.9285744803292,2091,548.228577532087,535.9285744803292,2201,548.228577532087,535.9285744803292,2312,548.228577532087,535.9285744803292,2423,548.228577532087,535.9285744803292,2533,548.228577532087,535.9285744803292,2645,548.228577532087,535.9285744803292,2754,447.22857753208706,428.92857448032925,2867,410.22857753208706,400.92857448032925,2975,159.22857753208706,164.92857448032925,3085,126.22857753208706,124.92857448032925,3194,107.22857753208706,104.92857448032925,3305,63.22857753208705,73.92857448032925,3416,62.22857753208705,70.92857448032925,3526,62.22857753208705,70.92857448032925,3636,62.22857753208705,70.92857448032925,3747,62.22857753208705,70.92857448032925,3858,62.22857753208705,70.92857448032925,3971,616.228577532087,173.92857448032925,4083,645.228577532087,175.92857448032925,4191,645.228577532087,175.92857448032925,4302,645.228577532087,175.92857448032925,4414,645.228577532087,175.92857448032925,4524,645.228577532087,175.92857448032925,4635,645.228577532087,175.92857448032925,4746,645.228577532087,175.92857448032925,4855,645.228577532087,175.92857448032925,4965]","[4750,4750,2205.7,2017,527.3,""oops"",""up"",""up"",""good_move"",11575,6825,2594.3,8414,566.7,""oops"",""up"",""up"",""good_move"",14854,3279,2140.8,11575,1138.2,""oops"",""left"",""right"",""bad_move"",25520,10666,2933.2,22040,546.8,""smooth"",""up"",""up"",""good_move"",28976,3456,3007.5,25520,448.5,""smooth"",""left"",""left"",""good_move"",32146,3169,2755.7,28977,413.3,""smooth"",""left"",""left"",""good_move"",39076,6930,2758.9,35822,495.1,""smooth"",""left"",""left"",""good_move"",42233,3156,2628.3,39077,527.7,""oops"",""left"",""right"",""bad_move"",44432,2199,1664.7,42233,534.3,""smooth"",""left"",""left"",""good_move"",48304,3872,2071.9,44432,1801.1,""smooth"",""left"",""left"",""good_move""]","",""
"1873","","<div style=""width:500px;"">
  <p>What determined the result of this run?</p>
  </div>","89","html-slider-response","30","370062","0.0-5.0-1.4","307","1","2025-07-31 10:54:03","1f75c3e559b7213887762d5229550c2b","37.47.254.154","Mozilla/5.0 (Windows NT 10.0; Win64; x64; rv:141.0) Gecko/20100101 Firefox/141.0","","Firefox","141.0","Windows","10.0","https://app.prolific.com/","pl","66a6211743bf2623c0a8eb81","6877631c9844ddd5501205fc","688b4b34069ee6fbe874d947","3","1","66a6211743bf2623c0a8eb81","3","1","2025-07-31T11:00:14.599Z","","","","","","","","","","","AttribQ","","50","","","","","","","","","","","","","","","","","","","","","","","","","","","","",""
"1182","","<div style=""width:500px;"">
  <p>How much control did you have over the ball?</p>
  </div>","65","html-slider-response","31","371246","0.0-5.0-2.4","307","1","2025-07-31 10:54:03","1f75c3e559b7213887762d5229550c2b","37.47.254.154","Mozilla/5.0 (Windows NT 10.0; Win64; x64; rv:141.0) Gecko/20100101 Firefox/141.0","","Firefox","141.0","Windows","10.0","https://app.prolific.com/","pl","66a6211743bf2623c0a8eb81","6877631c9844ddd5501205fc","688b4b34069ee6fbe874d947","3","1","66a6211743bf2623c0a8eb81","3","1","2025-07-31T11:00:15.783Z","","","","","","","","","","","ControlQ","","50","","","","","","","","","","","","","","","","","","","","","","","","","","","","",""
"1393","","<div style=""width:500px;"">
  <p>How would you describe your current emotional state?</p>
  </div>","19","html-slider-response","32","372642","0.0-5.0-3.4","307","1","2025-07-31 10:54:03","1f75c3e559b7213887762d5229550c2b","37.47.254.154","Mozilla/5.0 (Windows NT 10.0; Win64; x64; rv:141.0) Gecko/20100101 Firefox/141.0","","Firefox","141.0","Windows","10.0","https://app.prolific.com/","pl","66a6211743bf2623c0a8eb81","6877631c9844ddd5501205fc","688b4b34069ee6fbe874d947","3","1","66a6211743bf2623c0a8eb81","3","1","2025-07-31T11:00:17.179Z","","","","","","","","","","","StressQ","","50","","","","","","","","","","","","","","","","","","","","","","","","","","","","",""
"1680","","<div style=""width:500px;"">
  <p>What best describes how you currently feel?</p>
  </div>","90","html-slider-response","33","374323","0.0-5.0-4.4","307","1","2025-07-31 10:54:03","1f75c3e559b7213887762d5229550c2b","37.47.254.154","Mozilla/5.0 (Windows NT 10.0; Win64; x64; rv:141.0) Gecko/20100101 Firefox/141.0","","Firefox","141.0","Windows","10.0","https://app.prolific.com/","pl","66a6211743bf2623c0a8eb81","6877631c9844ddd5501205fc","688b4b34069ee6fbe874d947","3","1","66a6211743bf2623c0a8eb81","3","1","2025-07-31T11:00:18.860Z","","","","","","","","","","","MotivationQ","","50","","","","","","","","","","","","","","","","","","","","","","","","","","","","",""
"","","","","ctl-task-cpt","34","414656","0.0-5.0-0.5","307","1","2025-07-31 10:54:03","1f75c3e559b7213887762d5229550c2b","37.47.254.154","Mozilla/5.0 (Windows NT 10.0; Win64; x64; rv:141.0) Gecko/20100101 Firefox/141.0","","Firefox","141.0","Windows","10.0","https://app.prolific.com/","pl","66a6211743bf2623c0a8eb81","6877631c9844ddd5501205fc","688b4b34069ee6fbe874d947","3","1","66a6211743bf2623c0a8eb81","3","1","2025-07-31T11:00:59.193Z","","","","","","","","","","","","","","win-only","0","g1:NW,g2:SE","0.5","6","0","377443","912","5915","37328","1","4","8","6","2","8","8","25","17","0.1893939393939394","1082","3000","1645","[""down"",""right""]","{""num_key_presses"":10,""num_perfect"":5,""num_errors"":0,""num_randdir"":5,""num_randdir_good_moves"":3,""num_whilered"":0,""num_whileblue"":0,""num_blue"":0,""num_good_moves"":8}","[300.22857753208706,295.92857448032925,0,300.22857753208706,295.92857448032925,112,300.22857753208706,295.92857448032925,223,300.22857753208706,295.92857448032925,336,300.22857753208706,295.92857448032925,448,350.22857753208706,334.92857448032925,558,493.22857753208706,431.92857448032925,668,494.22857753208706,447.92857448032925,778,508.22857753208706,476.92857448032925,887,523.228577532087,518.9285744803292,998,526.228577532087,527.9285744803292,1107,526.228577532087,527.9285744803292,1217,526.228577532087,527.9285744803292,1327,829.228577532087,377.92857448032925,1439,843.228577532087,370.92857448032925,1552,843.228577532087,370.92857448032925,1664,843.228577532087,370.92857448032925,1773,843.228577532087,370.92857448032925,1883,843.228577532087,370.92857448032925,1992,843.228577532087,370.92857448032925,2102,843.228577532087,370.92857448032925,2214,843.228577532087,370.92857448032925,2326,843.228577532087,370.92857448032925,2436,843.228577532087,370.92857448032925,2547,843.228577532087,370.92857448032925,2656,843.228577532087,370.92857448032925,2766,843.228577532087,370.92857448032925,2877,843.228577532087,370.92857448032925,2986,843.228577532087,370.92857448032925,3095,843.228577532087,370.92857448032925,3206,843.228577532087,370.92857448032925,3318,843.228577532087,370.92857448032925,3429,843.228577532087,370.92857448032925,3539,843.228577532087,370.92857448032925,3650,843.228577532087,370.92857448032925,3760,843.228577532087,370.92857448032925,3869,843.228577532087,370.92857448032925,3980,843.228577532087,370.92857448032925,4089,843.228577532087,370.92857448032925,4199,843.228577532087,370.92857448032925,4312,843.228577532087,370.92857448032925,4422,843.228577532087,370.92857448032925,4533,843.228577532087,370.92857448032925,4645,843.228577532087,370.92857448032925,4752,843.228577532087,370.92857448032925,4862,843.228577532087,370.92857448032925,4972]","[1406,1406,1000,0,406,""smooth"",""down"",""down"",""good_move"",4629,3223,2825,1406,398,""smooth"",""down"",""down"",""good_move"",7518,2889,2438,4629,451,""smooth"",""right"",""right"",""good_move"",11191,3673,3281.8,7518,391.2,""smooth"",""down"",""down"",""good_move"",14732,3540,3169.6,11192,370.4,""smooth"",""right"",""right"",""good_move"",18230,3497,3108.8,14733,388.2,""oops"",""right"",""up"",""bad_move"",21268,3037,2414.5,18231,622.5,""oops"",""down"",""up"",""bad_move"",24753,3484,2694.5,21269,789.5,""oops"",""down"",""right"",""good_move"",27759,3006,2598.7,24753,407.3,""oops"",""down"",""down"",""good_move"",31117,3358,2947.9,27759,410.1,""oops"",""down"",""down"",""good_move""]","",""
"1887","","<div style=""width:500px;"">
  <p>What determined the result of this run?</p>
  </div>","76","html-slider-response","35","416544","0.0-5.0-1.5","307","1","2025-07-31 10:54:03","1f75c3e559b7213887762d5229550c2b","37.47.254.154","Mozilla/5.0 (Windows NT 10.0; Win64; x64; rv:141.0) Gecko/20100101 Firefox/141.0","","Firefox","141.0","Windows","10.0","https://app.prolific.com/","pl","66a6211743bf2623c0a8eb81","6877631c9844ddd5501205fc","688b4b34069ee6fbe874d947","3","1","66a6211743bf2623c0a8eb81","3","1","2025-07-31T11:01:01.081Z","","","","","","","","","","","AttribQ","","50","","","","","","","","","","","","","","","","","","","","","","","","","","","","",""
"1520","","<div style=""width:500px;"">
  <p>How much control did you have over the ball?</p>
  </div>","64","html-slider-response","36","418066","0.0-5.0-2.5","307","1","2025-07-31 10:54:03","1f75c3e559b7213887762d5229550c2b","37.47.254.154","Mozilla/5.0 (Windows NT 10.0; Win64; x64; rv:141.0) Gecko/20100101 Firefox/141.0","","Firefox","141.0","Windows","10.0","https://app.prolific.com/","pl","66a6211743bf2623c0a8eb81","6877631c9844ddd5501205fc","688b4b34069ee6fbe874d947","3","1","66a6211743bf2623c0a8eb81","3","1","2025-07-31T11:01:02.603Z","","","","","","","","","","","ControlQ","","50","","","","","","","","","","","","","","","","","","","","","","","","","","","","",""
"4106","","<div style=""width:500px;"">
  <p>How would you describe your current emotional state?</p>
  </div>","22","html-slider-response","37","422174","0.0-5.0-3.5","307","1","2025-07-31 10:54:03","1f75c3e559b7213887762d5229550c2b","37.47.254.154","Mozilla/5.0 (Windows NT 10.0; Win64; x64; rv:141.0) Gecko/20100101 Firefox/141.0","","Firefox","141.0","Windows","10.0","https://app.prolific.com/","pl","66a6211743bf2623c0a8eb81","6877631c9844ddd5501205fc","688b4b34069ee6fbe874d947","3","1","66a6211743bf2623c0a8eb81","3","1","2025-07-31T11:01:06.712Z","","","","","","","","","","","StressQ","","50","","","","","","","","","","","","","","","","","","","","","","","","","","","","",""
"1898","","<div style=""width:500px;"">
  <p>What best describes how you currently feel?</p>
  </div>","90","html-slider-response","38","424075","0.0-5.0-4.5","307","1","2025-07-31 10:54:03","1f75c3e559b7213887762d5229550c2b","37.47.254.154","Mozilla/5.0 (Windows NT 10.0; Win64; x64; rv:141.0) Gecko/20100101 Firefox/141.0","","Firefox","141.0","Windows","10.0","https://app.prolific.com/","pl","66a6211743bf2623c0a8eb81","6877631c9844ddd5501205fc","688b4b34069ee6fbe874d947","3","1","66a6211743bf2623c0a8eb81","3","1","2025-07-31T11:01:08.612Z","","","","","","","","","","","MotivationQ","","50","","","","","","","","","","","","","","","","","","","","","","","","","","","","",""
"","","","","ctl-task-cpt","39","504790","0.0-5.0-0.6","307","1","2025-07-31 10:54:03","1f75c3e559b7213887762d5229550c2b","37.47.254.154","Mozilla/5.0 (Windows NT 10.0; Win64; x64; rv:141.0) Gecko/20100101 Firefox/141.0","","Firefox","141.0","Windows","10.0","https://app.prolific.com/","pl","66a6211743bf2623c0a8eb81","6877631c9844ddd5501205fc","688b4b34069ee6fbe874d947","3","1","66a6211743bf2623c0a8eb81","3","1","2025-07-31T11:02:29.327Z","","","","","","","","","","","","","","win-only","3","g1:SW,g2:NE","0.4","7","0","427195","796","5807","77709","1","4","8","6","2","8","8","33","25","0.25","1964","3000","580","[""up"",""right""]","{""num_key_presses"":18,""num_perfect"":8,""num_errors"":0,""num_randdir"":10,""num_randdir_good_moves"":4,""num_whilered"":0,""num_whileblue"":0,""num_blue"":5,""num_good_moves"":12}","[300.22857753208706,296.92857448032925,1,300.22857753208706,296.92857448032925,108,300.22857753208706,296.92857448032925,217,300.22857753208706,296.92857448032925,327,300.22857753208706,296.92857448032925,438,295.22857753208706,304.92857448032925,547,262.22857753208706,351.92857448032925,657,260.22857753208706,353.92857448032925,767,260.22857753208706,353.92857448032925,877,260.22857753208706,353.92857448032925,987,260.22857753208706,353.92857448032925,1097,260.22857753208706,353.92857448032925,1209,272.22857753208706,338.92857448032925,1321,545.228577532087,103.92857448032925,1432,546.228577532087,97.92857448032925,1543,546.228577532087,92.92857448032925,1653,551.228577532087,61.92857448032924,1763,551.228577532087,61.92857448032924,1873,551.228577532087,61.92857448032924,1983,551.228577532087,61.92857448032924,2096,551.228577532087,61.92857448032924,2204,552.228577532087,61.92857448032924,2316,773.228577532087,95.92857448032925,2428,773.228577532087,95.92857448032925,2538,773.228577532087,95.92857448032925,2648,773.228577532087,95.92857448032925,2759,773.228577532087,95.92857448032925,2868,773.228577532087,95.92857448032925,2978,773.228577532087,95.92857448032925,3088,773.228577532087,95.92857448032925,3198,773.228577532087,95.92857448032925,3311,773.228577532087,95.92857448032925,3419,773.228577532087,95.92857448032925,3529,773.228577532087,95.92857448032925,3640,773.228577532087,95.92857448032925,3751,773.228577532087,95.92857448032925,3861,773.228577532087,95.92857448032925,3971,773.228577532087,95.92857448032925,4083,773.228577532087,95.92857448032925,4191,773.228577532087,95.92857448032925,4302,773.228577532087,95.92857448032925,4414,773.228577532087,95.92857448032925,4528,773.228577532087,95.92857448032925,4636,773.228577532087,95.92857448032925,4745,773.228577532087,95.92857448032925,4854,773.228577532087,95.92857448032925,4964]","[5103,5103,2637,2019,447,""smooth"",""up"",""up"",""good_move"",8174,3070,1914,5104,1156,""smooth"",""right"",""right"",""good_move"",11056,2882,2463.3,8174,418.7,""smooth"",""right"",""right"",""good_move"",14271,3215,2824.6,11056,390.4,""smooth"",""up"",""up"",""good_move"",17491,3220,2274.5,14271,945.5,""oops"",""up"",""right"",""good_move"",20885,3394,2943.6,17491,450.4,""oops"",""up"",""down"",""bad_move"",23834,2949,2377.6,20885,571.4,""oops"",""up"",""up"",""good_move"",34470,10636,2707.7,31352,410.3,""oops"",""up"",""down"",""bad_move"",40415,5945,1905.8,38049,460.2,""oops"",""up"",""down"",""bad_move"",43216,2801,2349.5,40415,451.5,""oops"",""up"",""down"",""bad_move"",45843,2627,2197.6,43216,429.4,""oops"",""up"",""down"",""bad_move"",48091,2248,1812.2,45843,435.8,""oops"",""up"",""left"",""bad_move"",51320,3230,2526.4,48091,703.6,""oops"",""up"",""right"",""good_move"",54765,3444,3071.9,51321,372.1,""oops"",""up"",""up"",""good_move"",58579,3814,3415.7,54765,398.3,""smooth"",""up"",""up"",""good_move"",65569,6990,2958.6,62242,368.4,""smooth"",""up"",""up"",""good_move"",68610,3040,1958.7,65570,1081.3,""smooth"",""up"",""up"",""good_move"",71631,3021,1983.5,68610,1037.5,""smooth"",""up"",""up"",""good_move""]","",""
"2992","","<div style=""width:500px;"">
  <p>What determined the result of this run?</p>
  </div>","80","html-slider-response","40","507784","0.0-5.0-1.6","307","1","2025-07-31 10:54:03","1f75c3e559b7213887762d5229550c2b","37.47.254.154","Mozilla/5.0 (Windows NT 10.0; Win64; x64; rv:141.0) Gecko/20100101 Firefox/141.0","","Firefox","141.0","Windows","10.0","https://app.prolific.com/","pl","66a6211743bf2623c0a8eb81","6877631c9844ddd5501205fc","688b4b34069ee6fbe874d947","3","1","66a6211743bf2623c0a8eb81","3","1","2025-07-31T11:02:32.321Z","","","","","","","","","","","AttribQ","","50","","","","","","","","","","","","","","","","","","","","","","","","","","","","",""
"1926","","<div style=""width:500px;"">
  <p>How much control did you have over the ball?</p>
  </div>","24","html-slider-response","41","509710","0.0-5.0-2.6","307","1","2025-07-31 10:54:03","1f75c3e559b7213887762d5229550c2b","37.47.254.154","Mozilla/5.0 (Windows NT 10.0; Win64; x64; rv:141.0) Gecko/20100101 Firefox/141.0","","Firefox","141.0","Windows","10.0","https://app.prolific.com/","pl","66a6211743bf2623c0a8eb81","6877631c9844ddd5501205fc","688b4b34069ee6fbe874d947","3","1","66a6211743bf2623c0a8eb81","3","1","2025-07-31T11:02:34.247Z","","","","","","","","","","","ControlQ","","50","","","","","","","","","","","","","","","","","","","","","","","","","","","","",""
"1406","","<div style=""width:500px;"">
  <p>How would you describe your current emotional state?</p>
  </div>","40","html-slider-response","42","511119","0.0-5.0-3.6","307","1","2025-07-31 10:54:03","1f75c3e559b7213887762d5229550c2b","37.47.254.154","Mozilla/5.0 (Windows NT 10.0; Win64; x64; rv:141.0) Gecko/20100101 Firefox/141.0","","Firefox","141.0","Windows","10.0","https://app.prolific.com/","pl","66a6211743bf2623c0a8eb81","6877631c9844ddd5501205fc","688b4b34069ee6fbe874d947","3","1","66a6211743bf2623c0a8eb81","3","1","2025-07-31T11:02:35.656Z","","","","","","","","","","","StressQ","","50","","","","","","","","","","","","","","","","","","","","","","","","","","","","",""
"1583","","<div style=""width:500px;"">
  <p>What best describes how you currently feel?</p>
  </div>","91","html-slider-response","43","512705","0.0-5.0-4.6","307","1","2025-07-31 10:54:03","1f75c3e559b7213887762d5229550c2b","37.47.254.154","Mozilla/5.0 (Windows NT 10.0; Win64; x64; rv:141.0) Gecko/20100101 Firefox/141.0","","Firefox","141.0","Windows","10.0","https://app.prolific.com/","pl","66a6211743bf2623c0a8eb81","6877631c9844ddd5501205fc","688b4b34069ee6fbe874d947","3","1","66a6211743bf2623c0a8eb81","3","1","2025-07-31T11:02:37.242Z","","","","","","","","","","","MotivationQ","","50","","","","","","","","","","","","","","","","","","","","","","","","","","","","",""
"","","","","ctl-task-cpt","44","542629","0.0-5.0-0.7","307","1","2025-07-31 10:54:03","1f75c3e559b7213887762d5229550c2b","37.47.254.154","Mozilla/5.0 (Windows NT 10.0; Win64; x64; rv:141.0) Gecko/20100101 Firefox/141.0","","Firefox","141.0","Windows","10.0","https://app.prolific.com/","pl","66a6211743bf2623c0a8eb81","6877631c9844ddd5501205fc","688b4b34069ee6fbe874d947","3","1","66a6211743bf2623c0a8eb81","3","1","2025-07-31T11:03:07.167Z","","","","","","","","","","","","","","win-only","1","g1:NE,g2:SW","0.3","8","0","515825","620","5633","26920","1","4","4","6","1","1","1","34","33","0.25757575757575757","1019","3000","2420","[""up"",""right""]","{""num_key_presses"":4,""num_perfect"":2,""num_errors"":0,""num_randdir"":2,""num_randdir_good_moves"":2,""num_whilered"":0,""num_whileblue"":0,""num_blue"":3,""num_good_moves"":4}","[295.22857753208706,292.92857448032925,1,295.22857753208706,292.92857448032925,109,295.22857753208706,292.92857448032925,213,295.22857753208706,292.92857448032925,324,295.22857753208706,292.92857448032925,434,320.22857753208706,285.92857448032925,544,455.22857753208706,157.92857448032925,657,501.22857753208706,119.92857448032925,768,530.228577532087,95.92857448032925,880,542.228577532087,65.92857448032925,991,542.228577532087,63.92857448032924,1099,542.228577532087,63.92857448032924,1210,553.228577532087,64.92857448032925,1324,884.228577532087,110.92857448032925,1433,884.228577532087,110.92857448032925,1545,884.228577532087,110.92857448032925,1656,884.228577532087,110.92857448032925,1765,884.228577532087,110.92857448032925,1876,884.228577532087,110.92857448032925,1987,884.228577532087,110.92857448032925,2096,884.228577532087,110.92857448032925,2205,884.228577532087,110.92857448032925,2317,884.228577532087,110.92857448032925,2429,884.228577532087,110.92857448032925,2539,884.228577532087,110.92857448032925,2650,884.228577532087,110.92857448032925,2760,884.228577532087,110.92857448032925,2872,884.228577532087,110.92857448032925,2980,884.228577532087,110.92857448032925,3091,884.228577532087,110.92857448032925,3199,884.228577532087,110.92857448032925,3310,884.228577532087,110.92857448032925,3422,884.228577532087,110.92857448032925,3532,884.228577532087,110.92857448032925,3643,884.228577532087,110.92857448032925,3754,884.228577532087,110.92857448032925,3862,884.228577532087,110.92857448032925,3974,884.228577532087,110.92857448032925,4083,884.228577532087,110.92857448032925,4192,884.228577532087,110.92857448032925,4303,884.228577532087,110.92857448032925,4414,884.228577532087,110.92857448032925,4525,884.228577532087,110.92857448032925,4637,884.228577532087,110.92857448032925,4746,884.228577532087,110.92857448032925,4856,884.228577532087,110.92857448032925,4967]","[1380,1380,1000,0,380,""oops"",""up"",""right"",""good_move"",7879,6499,2155,5254,470,""oops"",""up"",""right"",""good_move"",10647,2768,2181.4,7879,586.6,""smooth"",""up"",""up"",""good_move"",21005,10357,2399.4,18176,429.6,""smooth"",""up"",""up"",""good_move""]","",""
"16304","","<div style=""width:500px;"">
  <p>What determined the result of this run?</p>
  </div>","82","html-slider-response","45","558934","0.0-5.0-1.7","307","1","2025-07-31 10:54:03","1f75c3e559b7213887762d5229550c2b","37.47.254.154","Mozilla/5.0 (Windows NT 10.0; Win64; x64; rv:141.0) Gecko/20100101 Firefox/141.0","","Firefox","141.0","Windows","10.0","https://app.prolific.com/","pl","66a6211743bf2623c0a8eb81","6877631c9844ddd5501205fc","688b4b34069ee6fbe874d947","3","1","66a6211743bf2623c0a8eb81","3","1","2025-07-31T11:03:23.472Z","","","","","","","","","","","AttribQ","","50","","","","","","","","","","","","","","","","","","","","","","","","","","","","",""
"1214","","<div style=""width:500px;"">
  <p>How much control did you have over the ball?</p>
  </div>","87","html-slider-response","46","560152","0.0-5.0-2.7","307","1","2025-07-31 10:54:03","1f75c3e559b7213887762d5229550c2b","37.47.254.154","Mozilla/5.0 (Windows NT 10.0; Win64; x64; rv:141.0) Gecko/20100101 Firefox/141.0","","Firefox","141.0","Windows","10.0","https://app.prolific.com/","pl","66a6211743bf2623c0a8eb81","6877631c9844ddd5501205fc","688b4b34069ee6fbe874d947","3","1","66a6211743bf2623c0a8eb81","3","1","2025-07-31T11:03:24.689Z","","","","","","","","","","","ControlQ","","50","","","","","","","","","","","","","","","","","","","","","","","","","","","","",""
"1263","","<div style=""width:500px;"">
  <p>How would you describe your current emotional state?</p>
  </div>","8","html-slider-response","47","561416","0.0-5.0-3.7","307","1","2025-07-31 10:54:03","1f75c3e559b7213887762d5229550c2b","37.47.254.154","Mozilla/5.0 (Windows NT 10.0; Win64; x64; rv:141.0) Gecko/20100101 Firefox/141.0","","Firefox","141.0","Windows","10.0","https://app.prolific.com/","pl","66a6211743bf2623c0a8eb81","6877631c9844ddd5501205fc","688b4b34069ee6fbe874d947","3","1","66a6211743bf2623c0a8eb81","3","1","2025-07-31T11:03:25.953Z","","","","","","","","","","","StressQ","","50","","","","","","","","","","","","","","","","","","","","","","","","","","","","",""
"1568","","<div style=""width:500px;"">
  <p>What best describes how you currently feel?</p>
  </div>","96","html-slider-response","48","562986","0.0-5.0-4.7","307","1","2025-07-31 10:54:03","1f75c3e559b7213887762d5229550c2b","37.47.254.154","Mozilla/5.0 (Windows NT 10.0; Win64; x64; rv:141.0) Gecko/20100101 Firefox/141.0","","Firefox","141.0","Windows","10.0","https://app.prolific.com/","pl","66a6211743bf2623c0a8eb81","6877631c9844ddd5501205fc","688b4b34069ee6fbe874d947","3","1","66a6211743bf2623c0a8eb81","3","1","2025-07-31T11:03:27.524Z","","","","","","","","","","","MotivationQ","","50","","","","","","","","","","","","","","","","","","","","","","","","","","","","",""
"","","","","ctl-task-cpt","49","625386","0.0-5.0-0.8","307","1","2025-07-31 10:54:03","1f75c3e559b7213887762d5229550c2b","37.47.254.154","Mozilla/5.0 (Windows NT 10.0; Win64; x64; rv:141.0) Gecko/20100101 Firefox/141.0","","Firefox","141.0","Windows","10.0","https://app.prolific.com/","pl","66a6211743bf2623c0a8eb81","6877631c9844ddd5501205fc","688b4b34069ee6fbe874d947","3","1","66a6211743bf2623c0a8eb81","3","1","2025-07-31T11:04:29.923Z","","","","","","","","","","","","","","win-only","3","g1:SW,g2:NE","0.2","9","0","566107","1150","6152","59392","1","4","8","6","2","8","8","42","34","0.3181818181818182","1011","3000","1365","[""up"",""right""]","{""num_key_presses"":12,""num_perfect"":2,""num_errors"":0,""num_randdir"":10,""num_randdir_good_moves"":7,""num_whilered"":0,""num_whileblue"":0,""num_blue"":5,""num_good_moves"":9}","[300.22857753208706,303.92857448032925,0,300.22857753208706,303.92857448032925,114,300.22857753208706,303.92857448032925,221,300.22857753208706,303.92857448032925,332,300.22857753208706,303.92857448032925,442,300.22857753208706,303.92857448032925,553,446.22857753208706,150.92857448032925,662,471.22857753208706,103.92857448032925,771,492.22857753208706,75.92857448032925,882,511.22857753208706,60.92857448032924,993,511.22857753208706,60.92857448032924,1102,511.22857753208706,60.92857448032924,1213,539.228577532087,72.92857448032925,1323,790.228577532087,115.92857448032925,1437,790.228577532087,115.92857448032925,1548,790.228577532087,115.92857448032925,1660,790.228577532087,115.92857448032925,1768,790.228577532087,115.92857448032925,1878,790.228577532087,115.92857448032925,1989,790.228577532087,115.92857448032925,2099,790.228577532087,115.92857448032925,2211,790.228577532087,115.92857448032925,2320,790.228577532087,115.92857448032925,2431,790.228577532087,115.92857448032925,2543,790.228577532087,115.92857448032925,2651,790.228577532087,115.92857448032925,2763,790.228577532087,115.92857448032925,2871,790.228577532087,115.92857448032925,2983,790.228577532087,115.92857448032925,3093,790.228577532087,115.92857448032925,3202,790.228577532087,115.92857448032925,3315,790.228577532087,115.92857448032925,3427,790.228577532087,115.92857448032925,3537,790.228577532087,115.92857448032925,3646,790.228577532087,115.92857448032925,3759,790.228577532087,115.92857448032925,3867,790.228577532087,115.92857448032925,3977,790.228577532087,115.92857448032925,4087,790.228577532087,115.92857448032925,4196,790.228577532087,115.92857448032925,4307,790.228577532087,115.92857448032925,4419,790.228577532087,115.92857448032925,4530,790.228577532087,115.92857448032925,4644,790.228577532087,115.92857448032925,4750,790.228577532087,115.92857448032925,4860,790.228577532087,115.92857448032925,4970]","[1429,1429,1000,0,429,""smooth"",""up"",""up"",""good_move"",4520,3091,2610.2,1429,480.8,""oops"",""right"",""down"",""bad_move"",8105,3585,3112.2,4520,472.8,""oops"",""right"",""up"",""good_move"",11178,3072,2266.8,8106,805.2,""oops"",""right"",""down"",""bad_move"",17613,6434,1923.9,15246,443.1,""oops"",""right"",""up"",""good_move"",31491,13878,1947.7,29128,415.3,""oops"",""up"",""up"",""good_move"",38174,6683,2515,35229,430,""oops"",""up"",""right"",""good_move"",40833,2659,2155.2,38174,503.8,""smooth"",""up"",""up"",""good_move"",43955,3121,2230.9,40834,890.1,""oops"",""right"",""left"",""bad_move"",47216,3261,2893.4,43955,367.6,""oops"",""right"",""right"",""good_move"",50621,3405,3028.9,47216,376.1,""oops"",""right"",""right"",""good_move"",52947,2325,1787.1,50622,537.9,""oops"",""right"",""right"",""good_move""]","",""
"1816","","<div style=""width:500px;"">
  <p>What determined the result of this run?</p>
  </div>","75","html-slider-response","50","627205","0.0-5.0-1.8","307","1","2025-07-31 10:54:03","1f75c3e559b7213887762d5229550c2b","37.47.254.154","Mozilla/5.0 (Windows NT 10.0; Win64; x64; rv:141.0) Gecko/20100101 Firefox/141.0","","Firefox","141.0","Windows","10.0","https://app.prolific.com/","pl","66a6211743bf2623c0a8eb81","6877631c9844ddd5501205fc","688b4b34069ee6fbe874d947","3","1","66a6211743bf2623c0a8eb81","3","1","2025-07-31T11:04:31.742Z","","","","","","","","","","","AttribQ","","50","","","","","","","","","","","","","","","","","","","","","","","","","","","","",""
"1518","","<div style=""width:500px;"">
  <p>How much control did you have over the ball?</p>
  </div>","40","html-slider-response","51","628726","0.0-5.0-2.8","307","1","2025-07-31 10:54:03","1f75c3e559b7213887762d5229550c2b","37.47.254.154","Mozilla/5.0 (Windows NT 10.0; Win64; x64; rv:141.0) Gecko/20100101 Firefox/141.0","","Firefox","141.0","Windows","10.0","https://app.prolific.com/","pl","66a6211743bf2623c0a8eb81","6877631c9844ddd5501205fc","688b4b34069ee6fbe874d947","3","1","66a6211743bf2623c0a8eb81","3","1","2025-07-31T11:04:33.263Z","","","","","","","","","","","ControlQ","","50","","","","","","","","","","","","","","","","","","","","","","","","","","","","",""
"2049","","<div style=""width:500px;"">
  <p>How would you describe your current emotional state?</p>
  </div>","25","html-slider-response","52","630777","0.0-5.0-3.8","307","1","2025-07-31 10:54:03","1f75c3e559b7213887762d5229550c2b","37.47.254.154","Mozilla/5.0 (Windows NT 10.0; Win64; x64; rv:141.0) Gecko/20100101 Firefox/141.0","","Firefox","141.0","Windows","10.0","https://app.prolific.com/","pl","66a6211743bf2623c0a8eb81","6877631c9844ddd5501205fc","688b4b34069ee6fbe874d947","3","1","66a6211743bf2623c0a8eb81","3","1","2025-07-31T11:04:35.314Z","","","","","","","","","","","StressQ","","50","","","","","","","","","","","","","","","","","","","","","","","","","","","","",""
"1601","","<div style=""width:500px;"">
  <p>What best describes how you currently feel?</p>
  </div>","97","html-slider-response","53","632378","0.0-5.0-4.8","307","1","2025-07-31 10:54:03","1f75c3e559b7213887762d5229550c2b","37.47.254.154","Mozilla/5.0 (Windows NT 10.0; Win64; x64; rv:141.0) Gecko/20100101 Firefox/141.0","","Firefox","141.0","Windows","10.0","https://app.prolific.com/","pl","66a6211743bf2623c0a8eb81","6877631c9844ddd5501205fc","688b4b34069ee6fbe874d947","3","1","66a6211743bf2623c0a8eb81","3","1","2025-07-31T11:04:36.915Z","","","","","","","","","","","MotivationQ","","50","","","","","","","","","","","","","","","","","","","","","","","","","","","","",""
"","","","","ctl-task-cpt","54","673731","0.0-5.0-0.9","307","1","2025-07-31 10:54:03","1f75c3e559b7213887762d5229550c2b","37.47.254.154","Mozilla/5.0 (Windows NT 10.0; Win64; x64; rv:141.0) Gecko/20100101 Firefox/141.0","","Firefox","141.0","Windows","10.0","https://app.prolific.com/","pl","66a6211743bf2623c0a8eb81","6877631c9844ddd5501205fc","688b4b34069ee6fbe874d947","3","1","66a6211743bf2623c0a8eb81","3","1","2025-07-31T11:05:18.268Z","","","","","","","","","","","","","","win-only","3","g1:SW,g2:NE","0.4","10","0","635500","853","5855","38343","1","4","4","6","1","1","1","43","42","0.32575757575757575","1210","3000","1860","[""down"",""left""]","{""num_key_presses"":8,""num_perfect"":4,""num_errors"":0,""num_randdir"":4,""num_randdir_good_moves"":2,""num_whilered"":0,""num_whileblue"":0,""num_blue"":2,""num_good_moves"":6}","[296.22857753208706,302.92857448032925,0,296.22857753208706,302.92857448032925,103,296.22857753208706,302.92857448032925,216,296.22857753208706,302.92857448032925,325,296.22857753208706,301.92857448032925,436,321.22857753208706,270.92857448032925,548,191.22857753208706,373.92857448032925,657,51.22857753208705,491.92857448032925,767,46.22857753208705,493.92857448032925,879,43.22857753208705,496.92857448032925,987,43.22857753208705,499.92857448032925,1098,41.22857753208705,524.9285744803292,1207,41.22857753208705,524.9285744803292,1317,41.22857753208705,524.9285744803292,1429,-117.77142246791294,407.92857448032925,1540,-182.77142246791294,366.92857448032925,1652,-182.77142246791294,366.92857448032925,1763,-182.77142246791294,366.92857448032925,1873,-182.77142246791294,366.92857448032925,1982,-182.77142246791294,366.92857448032925,2092,-182.77142246791294,366.92857448032925,2202,-182.77142246791294,366.92857448032925,2314,-182.77142246791294,366.92857448032925,2424,-182.77142246791294,366.92857448032925,2534,-182.77142246791294,366.92857448032925,2644,-182.77142246791294,366.92857448032925,2753,-182.77142246791294,366.92857448032925,2862,-182.77142246791294,366.92857448032925,2972,-182.77142246791294,366.92857448032925,3083,-182.77142246791294,366.92857448032925,3195,-182.77142246791294,366.92857448032925,3303,-182.77142246791294,366.92857448032925,3414,-182.77142246791294,366.92857448032925,3524,-182.77142246791294,366.92857448032925,3634,-182.77142246791294,366.92857448032925,3744,-182.77142246791294,366.92857448032925,3853,-182.77142246791294,366.92857448032925,3963,-182.77142246791294,366.92857448032925,4073,-182.77142246791294,366.92857448032925,4182,-182.77142246791294,366.92857448032925,4294,-182.77142246791294,366.92857448032925,4405,-182.77142246791294,366.92857448032925,4516,-182.77142246791294,366.92857448032925,4627,-182.77142246791294,366.92857448032925,4736,-182.77142246791294,366.92857448032925,4845,-182.77142246791294,366.92857448032925,4956]","[4970,4970,2507.9,2016,446.1,""smooth"",""down"",""down"",""good_move"",8188,3218,2725.8,4970,492.2,""oops"",""down"",""right"",""bad_move"",11949,3760,3370.6,8189,389.4,""smooth"",""down"",""down"",""good_move"",18895,6946,2376.5,16072,446.5,""oops"",""left"",""right"",""bad_move"",21812,2917,2349.7,18895,567.3,""smooth"",""left"",""left"",""good_move"",25482,3669,3245,21813,424,""smooth"",""left"",""left"",""good_move"",28611,3129,2537.5,25482,591.5,""oops"",""left"",""left"",""good_move"",32214,3602,3119.6,28612,482.4,""oops"",""left"",""left"",""good_move""]","",""
"10739","","<div style=""width:500px;"">
  <p>What determined the result of this run?</p>
  </div>","73","html-slider-response","55","684471","0.0-5.0-1.9","307","1","2025-07-31 10:54:03","1f75c3e559b7213887762d5229550c2b","37.47.254.154","Mozilla/5.0 (Windows NT 10.0; Win64; x64; rv:141.0) Gecko/20100101 Firefox/141.0","","Firefox","141.0","Windows","10.0","https://app.prolific.com/","pl","66a6211743bf2623c0a8eb81","6877631c9844ddd5501205fc","688b4b34069ee6fbe874d947","3","1","66a6211743bf2623c0a8eb81","3","1","2025-07-31T11:05:29.008Z","","","","","","","","","","","AttribQ","","50","","","","","","","","","","","","","","","","","","","","","","","","","","","","",""
"1975","","<div style=""width:500px;"">
  <p>How much control did you have over the ball?</p>
  </div>","76","html-slider-response","56","686449","0.0-5.0-2.9","307","1","2025-07-31 10:54:03","1f75c3e559b7213887762d5229550c2b","37.47.254.154","Mozilla/5.0 (Windows NT 10.0; Win64; x64; rv:141.0) Gecko/20100101 Firefox/141.0","","Firefox","141.0","Windows","10.0","https://app.prolific.com/","pl","66a6211743bf2623c0a8eb81","6877631c9844ddd5501205fc","688b4b34069ee6fbe874d947","3","1","66a6211743bf2623c0a8eb81","3","1","2025-07-31T11:05:30.986Z","","","","","","","","","","","ControlQ","","50","","","","","","","","","","","","","","","","","","","","","","","","","","","","",""
"1536","","<div style=""width:500px;"">
  <p>How would you describe your current emotional state?</p>
  </div>","15","html-slider-response","57","687987","0.0-5.0-3.9","307","1","2025-07-31 10:54:03","1f75c3e559b7213887762d5229550c2b","37.47.254.154","Mozilla/5.0 (Windows NT 10.0; Win64; x64; rv:141.0) Gecko/20100101 Firefox/141.0","","Firefox","141.0","Windows","10.0","https://app.prolific.com/","pl","66a6211743bf2623c0a8eb81","6877631c9844ddd5501205fc","688b4b34069ee6fbe874d947","3","1","66a6211743bf2623c0a8eb81","3","1","2025-07-31T11:05:32.524Z","","","","","","","","","","","StressQ","","50","","","","","","","","","","","","","","","","","","","","","","","","","","","","",""
"1392","","<div style=""width:500px;"">
  <p>What best describes how you currently feel?</p>
  </div>","91","html-slider-response","58","689381","0.0-5.0-4.9","307","1","2025-07-31 10:54:03","1f75c3e559b7213887762d5229550c2b","37.47.254.154","Mozilla/5.0 (Windows NT 10.0; Win64; x64; rv:141.0) Gecko/20100101 Firefox/141.0","","Firefox","141.0","Windows","10.0","https://app.prolific.com/","pl","66a6211743bf2623c0a8eb81","6877631c9844ddd5501205fc","688b4b34069ee6fbe874d947","3","1","66a6211743bf2623c0a8eb81","3","1","2025-07-31T11:05:33.918Z","","","","","","","","","","","MotivationQ","","50","","","","","","","","","","","","","","","","","","","","","","","","","","","","",""
"","","","","ctl-task-cpt","59","725203","0.0-5.0-0.10","307","1","2025-07-31 10:54:03","1f75c3e559b7213887762d5229550c2b","37.47.254.154","Mozilla/5.0 (Windows NT 10.0; Win64; x64; rv:141.0) Gecko/20100101 Firefox/141.0","","Firefox","141.0","Windows","10.0","https://app.prolific.com/","pl","66a6211743bf2623c0a8eb81","6877631c9844ddd5501205fc","688b4b34069ee6fbe874d947","3","1","66a6211743bf2623c0a8eb81","3","1","2025-07-31T11:06:09.740Z","","","","","","","","","","","","","","win-only","0","g1:NW,g2:SE","0.5","11","0","692503","779","5790","32814","1","4","8","6","2","8","8","51","43","0.38636363636363635","1017","3000","1890","[""down"",""right""]","{""num_key_presses"":8,""num_perfect"":5,""num_errors"":0,""num_randdir"":3,""num_randdir_good_moves"":2,""num_whilered"":0,""num_whileblue"":0,""num_blue"":1,""num_good_moves"":7}","[299.22857753208706,299.92857448032925,0,299.22857753208706,299.92857448032925,109,299.22857753208706,299.92857448032925,220,299.22857753208706,299.92857448032925,329,299.22857753208706,299.92857448032925,440,342.22857753208706,334.92857448032925,551,511.22857753208706,461.92857448032925,662,518.228577532087,471.92857448032925,770,534.228577532087,509.92857448032925,879,545.228577532087,541.9285744803292,990,545.228577532087,541.9285744803292,1100,546.228577532087,542.9285744803292,1213,705.228577532087,434.92857448032925,1323,858.228577532087,313.92857448032925,1435,858.228577532087,313.92857448032925,1546,858.228577532087,313.92857448032925,1656,858.228577532087,313.92857448032925,1766,858.228577532087,313.92857448032925,1879,858.228577532087,313.92857448032925,1985,858.228577532087,313.92857448032925,2095,858.228577532087,313.92857448032925,2204,858.228577532087,313.92857448032925,2317,858.228577532087,313.92857448032925,2428,858.228577532087,313.92857448032925,2537,858.228577532087,313.92857448032925,2647,858.228577532087,313.92857448032925,2756,858.228577532087,313.92857448032925,2867,858.228577532087,313.92857448032925,2978,858.228577532087,313.92857448032925,3087,858.228577532087,313.92857448032925,3197,858.228577532087,313.92857448032925,3309,858.228577532087,313.92857448032925,3420,858.228577532087,313.92857448032925,3531,858.228577532087,313.92857448032925,3640,858.228577532087,313.92857448032925,3750,858.228577532087,313.92857448032925,3860,858.228577532087,313.92857448032925,3971,858.228577532087,313.92857448032925,4080,858.228577532087,313.92857448032925,4194,858.228577532087,313.92857448032925,4301,858.228577532087,313.92857448032925,4413,858.228577532087,313.92857448032925,4524,858.228577532087,313.92857448032925,4633,858.228577532087,313.92857448032925,4742,858.228577532087,313.92857448032925,4853,858.228577532087,313.92857448032925,4964]","[1446,1446,1000,0,446,""smooth"",""down"",""down"",""good_move"",3877,2431,1965.9,1446,465.1,""smooth"",""down"",""down"",""good_move"",6689,2812,2319,3877,493,""oops"",""right"",""left"",""bad_move"",9764,3074,2289.1,6690,784.9,""smooth"",""down"",""down"",""good_move"",13231,3467,3072.9,9764,394.1,""oops"",""right"",""right"",""good_move"",20442,7211,2716.7,17226,499.3,""oops"",""right"",""right"",""good_move"",23275,2832,2383.2,20443,448.8,""smooth"",""right"",""right"",""good_move"",26735,3460,3014.8,23275,445.2,""smooth"",""right"",""right"",""good_move""]","",""
"2153","","<div style=""width:500px;"">
  <p>What determined the result of this run?</p>
  </div>","72","html-slider-response","60","727358","0.0-5.0-1.10","307","1","2025-07-31 10:54:03","1f75c3e559b7213887762d5229550c2b","37.47.254.154","Mozilla/5.0 (Windows NT 10.0; Win64; x64; rv:141.0) Gecko/20100101 Firefox/141.0","","Firefox","141.0","Windows","10.0","https://app.prolific.com/","pl","66a6211743bf2623c0a8eb81","6877631c9844ddd5501205fc","688b4b34069ee6fbe874d947","3","1","66a6211743bf2623c0a8eb81","3","1","2025-07-31T11:06:11.895Z","","","","","","","","","","","AttribQ","","50","","","","","","","","","","","","","","","","","","","","","","","","","","","","",""
"1470","","<div style=""width:500px;"">
  <p>How much control did you have over the ball?</p>
  </div>","85","html-slider-response","61","728831","0.0-5.0-2.10","307","1","2025-07-31 10:54:03","1f75c3e559b7213887762d5229550c2b","37.47.254.154","Mozilla/5.0 (Windows NT 10.0; Win64; x64; rv:141.0) Gecko/20100101 Firefox/141.0","","Firefox","141.0","Windows","10.0","https://app.prolific.com/","pl","66a6211743bf2623c0a8eb81","6877631c9844ddd5501205fc","688b4b34069ee6fbe874d947","3","1","66a6211743bf2623c0a8eb81","3","1","2025-07-31T11:06:13.368Z","","","","","","","","","","","ControlQ","","50","","","","","","","","","","","","","","","","","","","","","","","","","","","","",""
"2496","","<div style=""width:500px;"">
  <p>How would you describe your current emotional state?</p>
  </div>","7","html-slider-response","62","731328","0.0-5.0-3.10","307","1","2025-07-31 10:54:03","1f75c3e559b7213887762d5229550c2b","37.47.254.154","Mozilla/5.0 (Windows NT 10.0; Win64; x64; rv:141.0) Gecko/20100101 Firefox/141.0","","Firefox","141.0","Windows","10.0","https://app.prolific.com/","pl","66a6211743bf2623c0a8eb81","6877631c9844ddd5501205fc","688b4b34069ee6fbe874d947","3","1","66a6211743bf2623c0a8eb81","3","1","2025-07-31T11:06:15.865Z","","","","","","","","","","","StressQ","","50","","","","","","","","","","","","","","","","","","","","","","","","","","","","",""
"5449","","<div style=""width:500px;"">
  <p>What best describes how you currently feel?</p>
  </div>","92","html-slider-response","63","736781","0.0-5.0-4.10","307","1","2025-07-31 10:54:03","1f75c3e559b7213887762d5229550c2b","37.47.254.154","Mozilla/5.0 (Windows NT 10.0; Win64; x64; rv:141.0) Gecko/20100101 Firefox/141.0","","Firefox","141.0","Windows","10.0","https://app.prolific.com/","pl","66a6211743bf2623c0a8eb81","6877631c9844ddd5501205fc","688b4b34069ee6fbe874d947","3","1","66a6211743bf2623c0a8eb81","3","1","2025-07-31T11:06:21.318Z","","","","","","","","","","","MotivationQ","","50","","","","","","","","","","","","","","","","","","","","","","","","","","","","",""
"","","","","ctl-task-cpt","64","755749","0.0-5.0-0.11","307","1","2025-07-31 10:54:03","1f75c3e559b7213887762d5229550c2b","37.47.254.154","Mozilla/5.0 (Windows NT 10.0; Win64; x64; rv:141.0) Gecko/20100101 Firefox/141.0","","Firefox","141.0","Windows","10.0","https://app.prolific.com/","pl","66a6211743bf2623c0a8eb81","6877631c9844ddd5501205fc","688b4b34069ee6fbe874d947","3","1","66a6211743bf2623c0a8eb81","3","1","2025-07-31T11:06:40.286Z","","","","","","","","","","","","","","win-only","1","g1:NE,g2:SW","0.6","12","0","739901","828","5831","15951","1","4","4","6","1","1","1","52","51","0.3939393939393939","840","3000","2430","[""up"",""right""]","{""num_key_presses"":4,""num_perfect"":4,""num_errors"":0,""num_randdir"":0,""num_randdir_good_moves"":0,""num_whilered"":0,""num_whileblue"":0,""num_blue"":0,""num_good_moves"":4}","[300.22857753208706,301.92857448032925,0,300.22857753208706,301.92857448032925,104,300.22857753208706,301.92857448032925,215,300.22857753208706,301.92857448032925,325,300.22857753208706,301.92857448032925,435,502.22857753208706,141.92857448032925,545,530.228577532087,82.92857448032925,654,543.228577532087,56.92857448032924,764,547.228577532087,42.92857448032924,874,547.228577532087,42.92857448032924,986,549.228577532087,43.92857448032924,1095,738.228577532087,126.92857448032925,1205,745.228577532087,128.92857448032925,1318,745.228577532087,128.92857448032925,1430,745.228577532087,128.92857448032925,1540,745.228577532087,128.92857448032925,1651,745.228577532087,128.92857448032925,1760,745.228577532087,128.92857448032925,1869,745.228577532087,128.92857448032925,1979,745.228577532087,128.92857448032925,2088,745.228577532087,128.92857448032925,2200,745.228577532087,128.92857448032925,2311,745.228577532087,128.92857448032925,2422,745.228577532087,128.92857448032925,2534,745.228577532087,128.92857448032925,2642,745.228577532087,128.92857448032925,2753,745.228577532087,128.92857448032925,2862,745.228577532087,128.92857448032925,2972,745.228577532087,128.92857448032925,3084,745.228577532087,128.92857448032925,3191,745.228577532087,128.92857448032925,3303,745.228577532087,128.92857448032925,3414,745.228577532087,128.92857448032925,3524,745.228577532087,128.92857448032925,3633,745.228577532087,128.92857448032925,3743,745.228577532087,128.92857448032925,3853,745.228577532087,128.92857448032925,3965,745.228577532087,128.92857448032925,4073,745.228577532087,128.92857448032925,4182,745.228577532087,128.92857448032925,4293,745.228577532087,128.92857448032925,4405,745.228577532087,128.92857448032925,4515,745.228577532087,128.92857448032925,4625,745.228577532087,128.92857448032925,4735,745.228577532087,128.92857448032925,4845,745.228577532087,128.92857448032925,4955]","[1467,1467,1000,0,467,""smooth"",""up"",""up"",""good_move"",4564,3097,2460.5,1467,636.5,""smooth"",""right"",""right"",""good_move"",7334,2770,2243.7,4564,526.3,""smooth"",""right"",""right"",""good_move"",9846,2512,2095.7,7334,416.3,""smooth"",""up"",""up"",""good_move""]","",""
"2738","","<div style=""width:500px;"">
  <p>What determined the result of this run?</p>
  </div>","75","html-slider-response","65","758489","0.0-5.0-1.11","307","1","2025-07-31 10:54:03","1f75c3e559b7213887762d5229550c2b","37.47.254.154","Mozilla/5.0 (Windows NT 10.0; Win64; x64; rv:141.0) Gecko/20100101 Firefox/141.0","","Firefox","141.0","Windows","10.0","https://app.prolific.com/","pl","66a6211743bf2623c0a8eb81","6877631c9844ddd5501205fc","688b4b34069ee6fbe874d947","3","1","66a6211743bf2623c0a8eb81","3","1","2025-07-31T11:06:43.026Z","","","","","","","","","","","AttribQ","","50","","","","","","","","","","","","","","","","","","","","","","","","","","","","",""
"1897","","<div style=""width:500px;"">
  <p>How much control did you have over the ball?</p>
  </div>","94","html-slider-response","66","760389","0.0-5.0-2.11","307","1","2025-07-31 10:54:03","1f75c3e559b7213887762d5229550c2b","37.47.254.154","Mozilla/5.0 (Windows NT 10.0; Win64; x64; rv:141.0) Gecko/20100101 Firefox/141.0","","Firefox","141.0","Windows","10.0","https://app.prolific.com/","pl","66a6211743bf2623c0a8eb81","6877631c9844ddd5501205fc","688b4b34069ee6fbe874d947","3","1","66a6211743bf2623c0a8eb81","3","1","2025-07-31T11:06:44.926Z","","","","","","","","","","","ControlQ","","50","","","","","","","","","","","","","","","","","","","","","","","","","","","","",""
"137862","","<div style=""width:500px;"">
  <p>How would you describe your current emotional state?</p>
  </div>","15","html-slider-response","67","898254","0.0-5.0-3.11","307","1","2025-07-31 10:54:03","1f75c3e559b7213887762d5229550c2b","37.47.254.154","Mozilla/5.0 (Windows NT 10.0; Win64; x64; rv:141.0) Gecko/20100101 Firefox/141.0","","Firefox","141.0","Windows","10.0","https://app.prolific.com/","pl","66a6211743bf2623c0a8eb81","6877631c9844ddd5501205fc","688b4b34069ee6fbe874d947","3","1","66a6211743bf2623c0a8eb81","3","1","2025-07-31T11:09:02.791Z","","","","","","","","","","","StressQ","","50","","","","","","","","","","","","","","","","","","","","","","","","","","","","",""
"2609","","<div style=""width:500px;"">
  <p>What best describes how you currently feel?</p>
  </div>","85","html-slider-response","68","900867","0.0-5.0-4.11","307","1","2025-07-31 10:54:03","1f75c3e559b7213887762d5229550c2b","37.47.254.154","Mozilla/5.0 (Windows NT 10.0; Win64; x64; rv:141.0) Gecko/20100101 Firefox/141.0","","Firefox","141.0","Windows","10.0","https://app.prolific.com/","pl","66a6211743bf2623c0a8eb81","6877631c9844ddd5501205fc","688b4b34069ee6fbe874d947","3","1","66a6211743bf2623c0a8eb81","3","1","2025-07-31T11:09:05.404Z","","","","","","","","","","","MotivationQ","","50","","","","","","","","","","","","","","","","","","","","","","","","","","","","",""
"","","","","ctl-task-cpt","69","920935","0.0-5.0-0.12","307","1","2025-07-31 10:54:03","1f75c3e559b7213887762d5229550c2b","37.47.254.154","Mozilla/5.0 (Windows NT 10.0; Win64; x64; rv:141.0) Gecko/20100101 Firefox/141.0","","Firefox","141.0","Windows","10.0","https://app.prolific.com/","pl","66a6211743bf2623c0a8eb81","6877631c9844ddd5501205fc","688b4b34069ee6fbe874d947","3","1","66a6211743bf2623c0a8eb81","3","1","2025-07-31T11:09:25.472Z","","","","","","","","","","","","","","win-only","3","g1:SW,g2:NE","0.7","13","0","903987","863","5872","17062","1","4","4","6","1","1","1","53","52","0.4015151515151515","1072","3000","2430","[""down"",""left""]","{""num_key_presses"":4,""num_perfect"":4,""num_errors"":0,""num_randdir"":0,""num_randdir_good_moves"":0,""num_whilered"":0,""num_whileblue"":0,""num_blue"":0,""num_good_moves"":4}","[299.22857753208706,303.92857448032925,0,299.22857753208706,303.92857448032925,110,299.22857753208706,303.92857448032925,211,299.22857753208706,303.92857448032925,325,299.22857753208706,303.92857448032925,433,194.22857753208706,396.92857448032925,548,142.22857753208706,452.92857448032925,656,73.22857753208706,495.92857448032925,765,40.22857753208705,516.9285744803292,875,40.22857753208705,528.9285744803292,987,43.22857753208705,531.9285744803292,1097,43.22857753208705,531.9285744803292,1208,43.22857753208705,531.9285744803292,1321,43.22857753208705,531.9285744803292,1431,43.22857753208705,531.9285744803292,1542,43.22857753208705,531.9285744803292,1654,460.22857753208706,485.92857448032925,1763,622.228577532087,481.92857448032925,1873,622.228577532087,481.92857448032925,1983,622.228577532087,481.92857448032925,2093,622.228577532087,481.92857448032925,2204,622.228577532087,481.92857448032925,2317,622.228577532087,481.92857448032925,2427,622.228577532087,481.92857448032925,2537,622.228577532087,481.92857448032925,2646,622.228577532087,481.92857448032925,2756,622.228577532087,481.92857448032925,2867,622.228577532087,481.92857448032925,2975,622.228577532087,481.92857448032925,3087,622.228577532087,481.92857448032925,3195,622.228577532087,481.92857448032925,3306,622.228577532087,481.92857448032925,3418,622.228577532087,481.92857448032925,3527,622.228577532087,481.92857448032925,3638,622.228577532087,481.92857448032925,3748,622.228577532087,481.92857448032925,3858,622.228577532087,481.92857448032925,3968,622.228577532087,481.92857448032925,4077,622.228577532087,481.92857448032925,4187,622.228577532087,481.92857448032925,4300,622.228577532087,481.92857448032925,4411,622.228577532087,481.92857448032925,4521,622.228577532087,481.92857448032925,4632,622.228577532087,481.92857448032925,4741,622.228577532087,481.92857448032925,4850,622.228577532087,481.92857448032925,4962]","[1577,1577,1000,0,577,""smooth"",""down"",""down"",""good_move"",4931,3354,2929.6,1577,424.4,""smooth"",""down"",""down"",""good_move"",7638,2707,2262.1,4931,444.9,""smooth"",""left"",""left"",""good_move"",10917,3279,2886.3,7638,392.7,""smooth"",""left"",""left"",""good_move""]","",""
"2201","","<div style=""width:500px;"">
  <p>What determined the result of this run?</p>
  </div>","78","html-slider-response","70","923137","0.0-5.0-1.12","307","1","2025-07-31 10:54:03","1f75c3e559b7213887762d5229550c2b","37.47.254.154","Mozilla/5.0 (Windows NT 10.0; Win64; x64; rv:141.0) Gecko/20100101 Firefox/141.0","","Firefox","141.0","Windows","10.0","https://app.prolific.com/","pl","66a6211743bf2623c0a8eb81","6877631c9844ddd5501205fc","688b4b34069ee6fbe874d947","3","1","66a6211743bf2623c0a8eb81","3","1","2025-07-31T11:09:27.674Z","","","","","","","","","","","AttribQ","","50","","","","","","","","","","","","","","","","","","","","","","","","","","","","",""
"3353","","<div style=""width:500px;"">
  <p>How much control did you have over the ball?</p>
  </div>","91","html-slider-response","71","926493","0.0-5.0-2.12","307","1","2025-07-31 10:54:03","1f75c3e559b7213887762d5229550c2b","37.47.254.154","Mozilla/5.0 (Windows NT 10.0; Win64; x64; rv:141.0) Gecko/20100101 Firefox/141.0","","Firefox","141.0","Windows","10.0","https://app.prolific.com/","pl","66a6211743bf2623c0a8eb81","6877631c9844ddd5501205fc","688b4b34069ee6fbe874d947","3","1","66a6211743bf2623c0a8eb81","3","1","2025-07-31T11:09:31.031Z","","","","","","","","","","","ControlQ","","50","","","","","","","","","","","","","","","","","","","","","","","","","","","","",""
"2116","","<div style=""width:500px;"">
  <p>How would you describe your current emotional state?</p>
  </div>","5","html-slider-response","72","928610","0.0-5.0-3.12","307","1","2025-07-31 10:54:03","1f75c3e559b7213887762d5229550c2b","37.47.254.154","Mozilla/5.0 (Windows NT 10.0; Win64; x64; rv:141.0) Gecko/20100101 Firefox/141.0","","Firefox","141.0","Windows","10.0","https://app.prolific.com/","pl","66a6211743bf2623c0a8eb81","6877631c9844ddd5501205fc","688b4b34069ee6fbe874d947","3","1","66a6211743bf2623c0a8eb81","3","1","2025-07-31T11:09:33.147Z","","","","","","","","","","","StressQ","","50","","","","","","","","","","","","","","","","","","","","","","","","","","","","",""
"3482","","<div style=""width:500px;"">
  <p>What best describes how you currently feel?</p>
  </div>","91","html-slider-response","73","932094","0.0-5.0-4.12","307","1","2025-07-31 10:54:03","1f75c3e559b7213887762d5229550c2b","37.47.254.154","Mozilla/5.0 (Windows NT 10.0; Win64; x64; rv:141.0) Gecko/20100101 Firefox/141.0","","Firefox","141.0","Windows","10.0","https://app.prolific.com/","pl","66a6211743bf2623c0a8eb81","6877631c9844ddd5501205fc","688b4b34069ee6fbe874d947","3","1","66a6211743bf2623c0a8eb81","3","1","2025-07-31T11:09:36.631Z","","","","","","","","","","","MotivationQ","","50","","","","","","","","","","","","","","","","","","","","","","","","","","","","",""
"","","","","ctl-task-cpt","74","969161","0.0-5.0-0.13","307","1","2025-07-31 10:54:03","1f75c3e559b7213887762d5229550c2b","37.47.254.154","Mozilla/5.0 (Windows NT 10.0; Win64; x64; rv:141.0) Gecko/20100101 Firefox/141.0","","Firefox","141.0","Windows","10.0","https://app.prolific.com/","pl","66a6211743bf2623c0a8eb81","6877631c9844ddd5501205fc","688b4b34069ee6fbe874d947","3","1","66a6211743bf2623c0a8eb81","3","1","2025-07-31T11:10:13.698Z","","","","","","","","","","","","","","win-only","2","g1:SE,g2:NW","0.8","14","0","935215","1214","6219","34048","1","4","8","6","2","8","8","61","53","0.4621212121212121","1467","3000","1840","[""left"",""up""]","{""num_key_presses"":8,""num_perfect"":6,""num_errors"":0,""num_randdir"":2,""num_randdir_good_moves"":1,""num_whilered"":0,""num_whileblue"":0,""num_blue"":1,""num_good_moves"":7}","[294.22857753208706,293.92857448032925,0,294.22857753208706,293.92857448032925,104,294.22857753208706,293.92857448032925,213,294.22857753208706,293.92857448032925,323,294.22857753208706,293.92857448032925,433,294.22857753208706,293.92857448032925,545,328.22857753208706,324.92857448032925,653,332.22857753208706,325.92857448032925,762,332.22857753208706,325.92857448032925,871,237.22857753208706,260.92857448032925,982,136.22857753208706,161.92857448032925,1094,60.22857753208705,95.92857448032925,1203,37.22857753208705,69.92857448032925,1314,33.22857753208705,56.92857448032924,1427,33.22857753208705,56.92857448032924,1535,33.22857753208705,56.92857448032924,1645,33.22857753208705,56.92857448032924,1756,33.22857753208705,56.92857448032924,1868,335.22857753208706,89.92857448032925,1980,910.228577532087,110.92857448032925,2090,910.228577532087,110.92857448032925,2199,910.228577532087,110.92857448032925,2312,910.228577532087,110.92857448032925,2421,910.228577532087,110.92857448032925,2531,910.228577532087,110.92857448032925,2642,910.228577532087,110.92857448032925,2751,910.228577532087,110.92857448032925,2861,910.228577532087,110.92857448032925,2971,910.228577532087,110.92857448032925,3082,910.228577532087,110.92857448032925,3192,910.228577532087,110.92857448032925,3304,910.228577532087,110.92857448032925,3416,910.228577532087,110.92857448032925,3525,910.228577532087,110.92857448032925,3635,910.228577532087,110.92857448032925,3745,910.228577532087,110.92857448032925,3854,910.228577532087,110.92857448032925,3964,910.228577532087,110.92857448032925,4074,910.228577532087,110.92857448032925,4183,910.228577532087,110.92857448032925,4294,910.228577532087,110.92857448032925,4406,910.228577532087,110.92857448032925,4517,910.228577532087,110.92857448032925,4627,910.228577532087,110.92857448032925,4736,910.228577532087,110.92857448032925,4847,910.228577532087,110.92857448032925,4956]","[1439,1439,1000,0,439,""oops"",""up"",""up"",""good_move"",5548,4109,3455.7,1439,653.3,""oops"",""up"",""down"",""bad_move"",8520,2972,2468.1,5548,503.9,""smooth"",""up"",""up"",""good_move"",14713,6192,2133.8,12197,382.2,""smooth"",""up"",""up"",""good_move"",17875,3162,2708.5,14714,452.5,""smooth"",""up"",""up"",""good_move"",20990,3114,2408.7,17876,705.3,""smooth"",""left"",""left"",""good_move"",24301,3311,2912.9,20990,398.1,""smooth"",""left"",""left"",""good_move"",27552,3251,2802.7,24301,448.3,""smooth"",""left"",""left"",""good_move""]","",""
"1719","","<div style=""width:500px;"">
  <p>What determined the result of this run?</p>
  </div>","76","html-slider-response","75","970881","0.0-5.0-1.13","307","1","2025-07-31 10:54:03","1f75c3e559b7213887762d5229550c2b","37.47.254.154","Mozilla/5.0 (Windows NT 10.0; Win64; x64; rv:141.0) Gecko/20100101 Firefox/141.0","","Firefox","141.0","Windows","10.0","https://app.prolific.com/","pl","66a6211743bf2623c0a8eb81","6877631c9844ddd5501205fc","688b4b34069ee6fbe874d947","3","1","66a6211743bf2623c0a8eb81","3","1","2025-07-31T11:10:15.418Z","","","","","","","","","","","AttribQ","","50","","","","","","","","","","","","","","","","","","","","","","","","","","","","",""
"1662","","<div style=""width:500px;"">
  <p>How much control did you have over the ball?</p>
  </div>","95","html-slider-response","76","972545","0.0-5.0-2.13","307","1","2025-07-31 10:54:03","1f75c3e559b7213887762d5229550c2b","37.47.254.154","Mozilla/5.0 (Windows NT 10.0; Win64; x64; rv:141.0) Gecko/20100101 Firefox/141.0","","Firefox","141.0","Windows","10.0","https://app.prolific.com/","pl","66a6211743bf2623c0a8eb81","6877631c9844ddd5501205fc","688b4b34069ee6fbe874d947","3","1","66a6211743bf2623c0a8eb81","3","1","2025-07-31T11:10:17.082Z","","","","","","","","","","","ControlQ","","50","","","","","","","","","","","","","","","","","","","","","","","","","","","","",""
"1937","","<div style=""width:500px;"">
  <p>How would you describe your current emotional state?</p>
  </div>","4","html-slider-response","77","974484","0.0-5.0-3.13","307","1","2025-07-31 10:54:03","1f75c3e559b7213887762d5229550c2b","37.47.254.154","Mozilla/5.0 (Windows NT 10.0; Win64; x64; rv:141.0) Gecko/20100101 Firefox/141.0","","Firefox","141.0","Windows","10.0","https://app.prolific.com/","pl","66a6211743bf2623c0a8eb81","6877631c9844ddd5501205fc","688b4b34069ee6fbe874d947","3","1","66a6211743bf2623c0a8eb81","3","1","2025-07-31T11:10:19.021Z","","","","","","","","","","","StressQ","","50","","","","","","","","","","","","","","","","","","","","","","","","","","","","",""
"1713","","<div style=""width:500px;"">
  <p>What best describes how you currently feel?</p>
  </div>","96","html-slider-response","78","976198","0.0-5.0-4.13","307","1","2025-07-31 10:54:03","1f75c3e559b7213887762d5229550c2b","37.47.254.154","Mozilla/5.0 (Windows NT 10.0; Win64; x64; rv:141.0) Gecko/20100101 Firefox/141.0","","Firefox","141.0","Windows","10.0","https://app.prolific.com/","pl","66a6211743bf2623c0a8eb81","6877631c9844ddd5501205fc","688b4b34069ee6fbe874d947","3","1","66a6211743bf2623c0a8eb81","3","1","2025-07-31T11:10:20.735Z","","","","","","","","","","","MotivationQ","","50","","","","","","","","","","","","","","","","","","","","","","","","","","","","",""
"","","","","ctl-task-cpt","79","1000086","0.0-5.0-0.14","307","1","2025-07-31 10:54:03","1f75c3e559b7213887762d5229550c2b","37.47.254.154","Mozilla/5.0 (Windows NT 10.0; Win64; x64; rv:141.0) Gecko/20100101 Firefox/141.0","","Firefox","141.0","Windows","10.0","https://app.prolific.com/","pl","66a6211743bf2623c0a8eb81","6877631c9844ddd5501205fc","688b4b34069ee6fbe874d947","3","1","66a6211743bf2623c0a8eb81","3","1","2025-07-31T11:10:44.623Z","","","","","","","","","","","","","","win-only","1","g1:NE,g2:SW","0.9","15","0","979318","751","5758","20879","1","4","8","6","1","1","1","62","61","0.4696969696969697","850","3000","2380","[""up"",""right""]","{""num_key_presses"":4,""num_perfect"":4,""num_errors"":0,""num_randdir"":0,""num_randdir_good_moves"":0,""num_whilered"":0,""num_whileblue"":0,""num_blue"":1,""num_good_moves"":4}","[299.22857753208706,293.92857448032925,0,299.22857753208706,293.92857448032925,116,299.22857753208706,293.92857448032925,229,299.22857753208706,293.92857448032925,338,443.22857753208706,212.92857448032925,449,507.22857753208706,137.92857448032925,563,536.228577532087,90.92857448032925,669,554.228577532087,62.92857448032924,779,554.228577532087,62.92857448032924,889,554.228577532087,62.92857448032924,998,562.228577532087,68.92857448032925,1113,763.228577532087,108.92857448032925,1223,763.228577532087,108.92857448032925,1335,763.228577532087,108.92857448032925,1446,763.228577532087,108.92857448032925,1556,763.228577532087,108.92857448032925,1667,763.228577532087,108.92857448032925,1778,763.228577532087,108.92857448032925,1887,763.228577532087,108.92857448032925,1997,763.228577532087,108.92857448032925,2108,763.228577532087,108.92857448032925,2217,763.228577532087,108.92857448032925,2330,763.228577532087,108.92857448032925,2439,763.228577532087,108.92857448032925,2550,763.228577532087,108.92857448032925,2661,763.228577532087,108.92857448032925,2768,763.228577532087,108.92857448032925,2878,763.228577532087,108.92857448032925,2988,763.228577532087,108.92857448032925,3098,763.228577532087,108.92857448032925,3208,763.228577532087,108.92857448032925,3319,763.228577532087,108.92857448032925,3431,763.228577532087,108.92857448032925,3542,763.228577532087,108.92857448032925,3651,763.228577532087,108.92857448032925,3761,763.228577532087,108.92857448032925,3873,763.228577532087,108.92857448032925,3983,763.228577532087,108.92857448032925,4093,763.228577532087,108.92857448032925,4201,763.228577532087,108.92857448032925,4312,763.228577532087,108.92857448032925,4424,763.228577532087,108.92857448032925,4534,763.228577532087,108.92857448032925,4644,763.228577532087,108.92857448032925,4754,763.228577532087,108.92857448032925,4864,763.228577532087,108.92857448032925,4974]","[1468,1468,1000,0,468,""smooth"",""up"",""up"",""good_move"",8263,6795,2201.3,5511,550.7,""smooth"",""right"",""right"",""good_move"",11282,3019,2525.1,8263,493.9,""smooth"",""right"",""right"",""good_move"",14854,3572,3097.6,11282,474.4,""smooth"",""up"",""up"",""good_move""]","",""
"2082","","<div style=""width:500px;"">
  <p>What determined the result of this run?</p>
  </div>","84","html-slider-response","80","1002168","0.0-5.0-1.14","307","1","2025-07-31 10:54:03","1f75c3e559b7213887762d5229550c2b","37.47.254.154","Mozilla/5.0 (Windows NT 10.0; Win64; x64; rv:141.0) Gecko/20100101 Firefox/141.0","","Firefox","141.0","Windows","10.0","https://app.prolific.com/","pl","66a6211743bf2623c0a8eb81","6877631c9844ddd5501205fc","688b4b34069ee6fbe874d947","3","1","66a6211743bf2623c0a8eb81","3","1","2025-07-31T11:10:46.705Z","","","","","","","","","","","AttribQ","","50","","","","","","","","","","","","","","","","","","","","","","","","","","","","",""
"1470","","<div style=""width:500px;"">
  <p>How much control did you have over the ball?</p>
  </div>","93","html-slider-response","81","1003642","0.0-5.0-2.14","307","1","2025-07-31 10:54:03","1f75c3e559b7213887762d5229550c2b","37.47.254.154","Mozilla/5.0 (Windows NT 10.0; Win64; x64; rv:141.0) Gecko/20100101 Firefox/141.0","","Firefox","141.0","Windows","10.0","https://app.prolific.com/","pl","66a6211743bf2623c0a8eb81","6877631c9844ddd5501205fc","688b4b34069ee6fbe874d947","3","1","66a6211743bf2623c0a8eb81","3","1","2025-07-31T11:10:48.179Z","","","","","","","","","","","ControlQ","","50","","","","","","","","","","","","","","","","","","","","","","","","","","","","",""
"2153","","<div style=""width:500px;"">
  <p>How would you describe your current emotional state?</p>
  </div>","2","html-slider-response","82","1005796","0.0-5.0-3.14","307","1","2025-07-31 10:54:03","1f75c3e559b7213887762d5229550c2b","37.47.254.154","Mozilla/5.0 (Windows NT 10.0; Win64; x64; rv:141.0) Gecko/20100101 Firefox/141.0","","Firefox","141.0","Windows","10.0","https://app.prolific.com/","pl","66a6211743bf2623c0a8eb81","6877631c9844ddd5501205fc","688b4b34069ee6fbe874d947","3","1","66a6211743bf2623c0a8eb81","3","1","2025-07-31T11:10:50.333Z","","","","","","","","","","","StressQ","","50","","","","","","","","","","","","","","","","","","","","","","","","","","","","",""
"1762","","<div style=""width:500px;"">
  <p>What best describes how you currently feel?</p>
  </div>","98","html-slider-response","83","1007560","0.0-5.0-4.14","307","1","2025-07-31 10:54:03","1f75c3e559b7213887762d5229550c2b","37.47.254.154","Mozilla/5.0 (Windows NT 10.0; Win64; x64; rv:141.0) Gecko/20100101 Firefox/141.0","","Firefox","141.0","Windows","10.0","https://app.prolific.com/","pl","66a6211743bf2623c0a8eb81","6877631c9844ddd5501205fc","688b4b34069ee6fbe874d947","3","1","66a6211743bf2623c0a8eb81","3","1","2025-07-31T11:10:52.097Z","","","","","","","","","","","MotivationQ","","50","","","","","","","","","","","","","","","","","","","","","","","","","","","","",""
