"rt","response_timestamp","stimulus","response","trial_type","trial_index","time_elapsed","internal_node_id","run_id","condition","recorded_at","source_code_version","ip","user_agent","device","browser","browser_version","platform","platform_version","referer","accept_language","PROLIFIC_PID","STUDY_ID","SESSION_ID","WEEK","BATCH","prolific_id","week","batch","realtime","success","responses","item_order","radio_event_ids","radio_event_times","key_event_times","mouse_event_times","straightlining","zigzagging","honeypot","eventType","view_history","slider_start","which_type","canvas_config","goals_layout","control_level","trial_number","tutorial_trial_number","trial_start_time","phase1_start_time","phase2_start_time","phase3_start_time","goal_1_value","goal_1_distance","goal_2_value","goal_2_distance","goal_selected","outcome","outcome_total","participant_final_score","participant_initial_score","participant_final_score_prop","goal_choice_rt","allocated_time","allocated_time_remaining","goal_direction","counts","mouse_movements","key_presses","question_order","question_id"
"4705","1753266159793","<p style='font-size:40px;line-height:1.25'><strong>Welcome to the experiment!</strong></p><p style='font-size:1.1em;line-height:1.25'>Thank you for participanting in our experiment again! You will be asked to play the Dysfunctional Ball Game again. We will briefly recap the rules before we start.</p><p style='font-size:1.1em;line-height:1.25'>Press <strong>Next</strong> to continue.</p>","0","custom-html-button-response","0","4706","0.0-0.0","207","1","2025-07-23 10:22:30","1f75c3e559b7213887762d5229550c2b","152.106.99.150","Mozilla/5.0 (Windows NT 10.0; Win64; x64) AppleWebKit/537.36 (KHTML, like Gecko) Chrome/138.0.0.0 Safari/537.36","WebKit","Chrome","138.0.0.0","Windows","10.0","https://app.prolific.com/","en-US,en;q=0.9","666408427db5e38fe0ea1736","683db9eb0562dbf637994deb","6880b3fa3274d6c5f5b34f08","2","1","666408427db5e38fe0ea1736","2","1","2025-07-23T10:22:39.793Z","","","","","","","","","","","","","","","","","","","","","","","","","","","","","","","","","","","","","","","","","",""
"4358","","","","fullscreen","1","10067","0.0-1.0","207","1","2025-07-23 10:22:30","1f75c3e559b7213887762d5229550c2b","152.106.99.150","Mozilla/5.0 (Windows NT 10.0; Win64; x64) AppleWebKit/537.36 (KHTML, like Gecko) Chrome/138.0.0.0 Safari/537.36","WebKit","Chrome","138.0.0.0","Windows","10.0","https://app.prolific.com/","en-US,en;q=0.9","666408427db5e38fe0ea1736","683db9eb0562dbf637994deb","6880b3fa3274d6c5f5b34f08","2","1","666408427db5e38fe0ea1736","2","1","","true","","","","","","","","","","","","","","","","","","","","","","","","","","","","","","","","","","","","","","","","",""
"3070","1753266168225","<p style='font-size:1.1em;line-height:1.25'>In the following, we will ask you a few questions relating to your feelings in the last 24 hours.<br></p><p style='font-size:1.1em;line-height:1.25'>Press the <strong>Next</strong> button to continue.</p>","0","custom-html-button-response","2","13138","0.0-2.0-0.0","207","1","2025-07-23 10:22:30","1f75c3e559b7213887762d5229550c2b","152.106.99.150","Mozilla/5.0 (Windows NT 10.0; Win64; x64) AppleWebKit/537.36 (KHTML, like Gecko) Chrome/138.0.0.0 Safari/537.36","WebKit","Chrome","138.0.0.0","Windows","10.0","https://app.prolific.com/","en-US,en;q=0.9","666408427db5e38fe0ea1736","683db9eb0562dbf637994deb","6880b3fa3274d6c5f5b34f08","2","1","666408427db5e38fe0ea1736","2","1","2025-07-23T10:22:48.225Z","","","","","","","","","","","","","","","","","","","","","","","","","","","","","","","","","","","","","","","","","",""
"71762.29999999702","","","","survey-template","3","84904","0.0-2.0-1.0","207","1","2025-07-23 10:22:30","1f75c3e559b7213887762d5229550c2b","152.106.99.150","Mozilla/5.0 (Windows NT 10.0; Win64; x64) AppleWebKit/537.36 (KHTML, like Gecko) Chrome/138.0.0.0 Safari/537.36","WebKit","Chrome","138.0.0.0","Windows","10.0","https://app.prolific.com/","en-US,en;q=0.9","666408427db5e38fe0ea1736","683db9eb0562dbf637994deb","6880b3fa3274d6c5f5b34f08","2","1","666408427db5e38fe0ea1736","2","1","2025-07-23T10:23:59.991Z","","{""Q01"":""0"",""Q02"":""0"",""Q03"":""0"",""Q04"":""0"",""Q05"":""3"",""Q06"":""2"",""Q07"":""0"",""Q08"":""3"",""Q09"":""0"",""Q10"":""3"",""Q11"":""0"",""Q12"":""1"",""Q13"":""5"",""Q14"":""4"",""Q15"":""2"",""Q16"":""3"",""Q17"":""2"",""Q18"":""3"",""Q19"":""2"",""Q20"":""1"",""Q21"":""0"",""Q22"":""3""}","[0,1,2,3,4,5,6,7,8,9,10,11,12,13,14,15,16,17,18,19,20,21]","[""Q01"",""Q02"",""Q03"",""Q04"",""Q05"",""Q06"",""Q06"",""Q07"",""Q08"",""Q09"",""Q10"",""Q11"",""Q12"",""Q13"",""Q14"",""Q15"",""Q16"",""Q17"",""Q18"",""Q19"",""Q20"",""Q21"",""Q22""]","[4765.29999999702,8173.4000000059605,9373.29999999702,10565.20000000298,13813.60000000894,15653.5,16917.90000000596,20413.5,23541.20000000298,26037.29999999702,29581.5,32237.40000000596,35597.40000000596,40661.10000000894,44285.20000000298,46677.40000000596,50813.40000000596,51957.40000000596,54893.10000000894,58357.40000000596,61149.40000000596,66909.20000000298,70549.20000000298]","[]","[0.10000000894069672,4765.29999999702,6173.70000000298,7069.20000000298,8173.4000000059605,9373.29999999702,10565.20000000298,13813.60000000894,14973.60000000894,15653.5,16917.90000000596,18157.60000000894,19373.40000000596,19933.5,20413.5,23541.20000000298,26037.29999999702,29581.5,31461.60000000894,32237.40000000596,35597.40000000596,37789.5,40069.29999999702,40661.10000000894,44285.20000000298,46677.40000000596,49933.29999999702,50813.40000000596,51957.40000000596,54893.10000000894,58357.40000000596,61149.40000000596,66269.20000000298,66909.20000000298,70549.20000000298,71757.40000000596]","0.36363636363636365","0.42857142857142855","0","drsp","","","","","","","","","","","","","","","","","","","","","","","","","","","","","","",""
"11873.70000000298","","","","survey-template","4","96779","0.0-2.0-2.0","207","1","2025-07-23 10:22:30","1f75c3e559b7213887762d5229550c2b","152.106.99.150","Mozilla/5.0 (Windows NT 10.0; Win64; x64) AppleWebKit/537.36 (KHTML, like Gecko) Chrome/138.0.0.0 Safari/537.36","WebKit","Chrome","138.0.0.0","Windows","10.0","https://app.prolific.com/","en-US,en;q=0.9","666408427db5e38fe0ea1736","683db9eb0562dbf637994deb","6880b3fa3274d6c5f5b34f08","2","1","666408427db5e38fe0ea1736","2","1","2025-07-23T10:24:11.866Z","","{""Q01"":""2"",""Q02"":""4"",""Q03"":""2""}","[0,1,2]","[""Q01"",""Q02"",""Q03""]","[4072.3999999910593,6704.79999999702,10200.89999999106]","[]","[4072.3999999910593,6704.79999999702,10200.89999999106,11872.89999999106]","0.6666666666666666","1","0","stress","","","","","","","","","","","","","","","","","","","","","","","","","","","","","","",""
"4510","","","","instructions","5","101289","0.0-3.0-0.0","207","1","2025-07-23 10:22:30","1f75c3e559b7213887762d5229550c2b","152.106.99.150","Mozilla/5.0 (Windows NT 10.0; Win64; x64) AppleWebKit/537.36 (KHTML, like Gecko) Chrome/138.0.0.0 Safari/537.36","WebKit","Chrome","138.0.0.0","Windows","10.0","https://app.prolific.com/","en-US,en;q=0.9","666408427db5e38fe0ea1736","683db9eb0562dbf637994deb","6880b3fa3274d6c5f5b34f08","2","1","666408427db5e38fe0ea1736","2","1","","","","","","","","","","","","","[{""page_index"":0,""viewing_time"":4510}]","","","","","","","","","","","","","","","","","","","","","","","","","","","","","",""
"4183","","<p>Before you start with this game please answer the following three questions yourself. </p>
  <p>Through this game, we measure several aspects of your cognitive performance, such as reaction times, multi-tasking capabilities </p>
  <p>and the ability to assess the situation you are in.</p>
  <p></p>
  <p><b>How good do you usually are in such tasks?</b></p>","71","html-slider-response","6","105474","0.0-4.0-0.0","207","1","2025-07-23 10:22:30","1f75c3e559b7213887762d5229550c2b","152.106.99.150","Mozilla/5.0 (Windows NT 10.0; Win64; x64) AppleWebKit/537.36 (KHTML, like Gecko) Chrome/138.0.0.0 Safari/537.36","WebKit","Chrome","138.0.0.0","Windows","10.0","https://app.prolific.com/","en-US,en;q=0.9","666408427db5e38fe0ea1736","683db9eb0562dbf637994deb","6880b3fa3274d6c5f5b34f08","2","1","666408427db5e38fe0ea1736","2","1","2025-07-23T10:24:20.561Z","","","","","","","","","","","PreSkillQ","","50","","","","","","","","","","","","","","","","","","","","","","","","","","","","",""
"3615","","<div style=""width:500px;"">
  <p>How well do you think you will perform in this task compared to other participants?</p>
  </div>","68","html-slider-response","7","109090","0.0-4.0-1.0","207","1","2025-07-23 10:22:30","1f75c3e559b7213887762d5229550c2b","152.106.99.150","Mozilla/5.0 (Windows NT 10.0; Win64; x64) AppleWebKit/537.36 (KHTML, like Gecko) Chrome/138.0.0.0 Safari/537.36","WebKit","Chrome","138.0.0.0","Windows","10.0","https://app.prolific.com/","en-US,en;q=0.9","666408427db5e38fe0ea1736","683db9eb0562dbf637994deb","6880b3fa3274d6c5f5b34f08","2","1","666408427db5e38fe0ea1736","2","1","2025-07-23T10:24:24.177Z","","","","","","","","","","","PrePerfQ","","50","","","","","","","","","","","","","","","","","","","","","","","","","","","","",""
"3343","","<div style=""width:500px;"">
  <p>What best describes how you currently feel?</p>
  </div>","66","html-slider-response","8","112433","0.0-4.0-2.0","207","1","2025-07-23 10:22:30","1f75c3e559b7213887762d5229550c2b","152.106.99.150","Mozilla/5.0 (Windows NT 10.0; Win64; x64) AppleWebKit/537.36 (KHTML, like Gecko) Chrome/138.0.0.0 Safari/537.36","WebKit","Chrome","138.0.0.0","Windows","10.0","https://app.prolific.com/","en-US,en;q=0.9","666408427db5e38fe0ea1736","683db9eb0562dbf637994deb","6880b3fa3274d6c5f5b34f08","2","1","666408427db5e38fe0ea1736","2","1","2025-07-23T10:24:27.521Z","","","","","","","","","","","PreMotivationQ","","50","","","","","","","","","","","","","","","","","","","","","","","","","","","","",""
"","","","","ctl-task-cpt","9","125937","0.0-5.0-0.0","207","1","2025-07-23 10:22:30","1f75c3e559b7213887762d5229550c2b","152.106.99.150","Mozilla/5.0 (Windows NT 10.0; Win64; x64) AppleWebKit/537.36 (KHTML, like Gecko) Chrome/138.0.0.0 Safari/537.36","WebKit","Chrome","138.0.0.0","Windows","10.0","https://app.prolific.com/","en-US,en;q=0.9","666408427db5e38fe0ea1736","683db9eb0562dbf637994deb","6880b3fa3274d6c5f5b34f08","2","1","666408427db5e38fe0ea1736","2","1","2025-07-23T10:24:41.024Z","","","","","","","","","","","","","","win-only","3","g1:SW,g2:NE","1","1","0","120154.9","1415.5","6416.2","10498","1","4","4","6","2","-4","-4","0","0","0","1528","3000","-3000","[""up"",""right""]","{""num_key_presses"":0,""num_perfect"":0,""num_errors"":0,""num_randdir"":0,""num_randdir_good_moves"":0,""num_whilered"":0,""num_whileblue"":0,""num_blue"":0,""num_good_moves"":0}","[411.57142857142856,415.47767857142856,0.2,411.57142857142856,415.47767857142856,105.6,411.57142857142856,415.47767857142856,210.6,411.57142857142856,415.47767857142856,316,392.57142857142856,422.47767857142856,421.1,289.57142857142856,472.47767857142856,525,218.57142857142856,525.4776785714286,625.5,203.57142857142856,542.4776785714286,730.7,316.57142857142856,502.47767857142856,831.2,740.5714285714286,272.47767857142856,935.1,974.5714285714286,27.47767857142857,1035.7,1002.5714285714286,-18.52232142857143,1139.9,887.5714285714286,8.47767857142857,1240.2,735.5714285714286,80.47767857142857,1340.7,735.5714285714286,80.47767857142857,1441.5,735.5714285714286,80.47767857142857,1545.4,735.5714285714286,80.47767857142857,1645.7,735.5714285714286,80.47767857142857,1750.4,735.5714285714286,80.47767857142857,1850.4,735.5714285714286,80.47767857142857,1955.6,735.5714285714286,80.47767857142857,2056.1,735.5714285714286,80.47767857142857,2160.2,735.5714285714286,80.47767857142857,2260.2,735.5714285714286,80.47767857142857,2360.4,727.5714285714286,83.47767857142857,2465.6,672.5714285714286,101.47767857142857,2565.6,626.5714285714286,125.47767857142857,2666.4,584.5714285714286,153.47767857142856,2771.1,536.5714285714286,187.47767857142856,2875.8,480.57142857142856,228.47767857142856,2975.9,457.57142857142856,281.47767857142856,3080.9,500.57142857142856,327.47767857142856,3181.1,458.57142857142856,359.47767857142856,3285.7,394.57142857142856,440.47767857142856,3385.9,371.57142857142856,482.47767857142856,3490.6,388.57142857142856,475.47767857142856,3590.6,388.57142857142856,474.47767857142856,3695.7,388.57142857142856,474.47767857142856,3796,385.57142857142856,475.47767857142856,3900.6,373.57142857142856,483.47767857142856,4000.9,371.57142857142856,484.47767857142856,4105.7,371.57142857142856,484.47767857142856,4210.2,371.57142857142856,484.47767857142856,4311,371.57142857142856,484.47767857142856,4415.5,371.57142857142856,484.47767857142856,4515.8,371.57142857142856,484.47767857142856,4616.2,371.57142857142856,484.47767857142856,4720.3,371.57142857142856,484.47767857142856,4820.6,371.57142857142856,484.47767857142856,4926]","[]","",""
"4080","","<div style=""width:500px;"">
  <p>What determined the result of this run?</p>
  </div>","21","html-slider-response","10","130018","0.0-5.0-1.0","207","1","2025-07-23 10:22:30","1f75c3e559b7213887762d5229550c2b","152.106.99.150","Mozilla/5.0 (Windows NT 10.0; Win64; x64) AppleWebKit/537.36 (KHTML, like Gecko) Chrome/138.0.0.0 Safari/537.36","WebKit","Chrome","138.0.0.0","Windows","10.0","https://app.prolific.com/","en-US,en;q=0.9","666408427db5e38fe0ea1736","683db9eb0562dbf637994deb","6880b3fa3274d6c5f5b34f08","2","1","666408427db5e38fe0ea1736","2","1","2025-07-23T10:24:45.105Z","","","","","","","","","","","AttribQ","","50","","","","","","","","","","","","","","","","","","","","","","","","","","","","",""
"4887","","<div style=""width:500px;"">
  <p>How much control did you have over the ball?</p>
  </div>","27","html-slider-response","11","134905","0.0-5.0-2.0","207","1","2025-07-23 10:22:30","1f75c3e559b7213887762d5229550c2b","152.106.99.150","Mozilla/5.0 (Windows NT 10.0; Win64; x64) AppleWebKit/537.36 (KHTML, like Gecko) Chrome/138.0.0.0 Safari/537.36","WebKit","Chrome","138.0.0.0","Windows","10.0","https://app.prolific.com/","en-US,en;q=0.9","666408427db5e38fe0ea1736","683db9eb0562dbf637994deb","6880b3fa3274d6c5f5b34f08","2","1","666408427db5e38fe0ea1736","2","1","2025-07-23T10:24:49.992Z","","","","","","","","","","","ControlQ","","50","","","","","","","","","","","","","","","","","","","","","","","","","","","","",""
"3919","","<div style=""width:500px;"">
  <p>How would you describe your current emotional state?</p>
  </div>","77","html-slider-response","12","138825","0.0-5.0-3.0","207","1","2025-07-23 10:22:30","1f75c3e559b7213887762d5229550c2b","152.106.99.150","Mozilla/5.0 (Windows NT 10.0; Win64; x64) AppleWebKit/537.36 (KHTML, like Gecko) Chrome/138.0.0.0 Safari/537.36","WebKit","Chrome","138.0.0.0","Windows","10.0","https://app.prolific.com/","en-US,en;q=0.9","666408427db5e38fe0ea1736","683db9eb0562dbf637994deb","6880b3fa3274d6c5f5b34f08","2","1","666408427db5e38fe0ea1736","2","1","2025-07-23T10:24:53.913Z","","","","","","","","","","","StressQ","","50","","","","","","","","","","","","","","","","","","","","","","","","","","","","",""
"9711","","<div style=""width:500px;"">
  <p>What best describes how you currently feel?</p>
  </div>","73","html-slider-response","13","148537","0.0-5.0-4.0","207","1","2025-07-23 10:22:30","1f75c3e559b7213887762d5229550c2b","152.106.99.150","Mozilla/5.0 (Windows NT 10.0; Win64; x64) AppleWebKit/537.36 (KHTML, like Gecko) Chrome/138.0.0.0 Safari/537.36","WebKit","Chrome","138.0.0.0","Windows","10.0","https://app.prolific.com/","en-US,en;q=0.9","666408427db5e38fe0ea1736","683db9eb0562dbf637994deb","6880b3fa3274d6c5f5b34f08","2","1","666408427db5e38fe0ea1736","2","1","2025-07-23T10:25:03.624Z","","","","","","","","","","","MotivationQ","","50","","","","","","","","","","","","","","","","","","","","","","","","","","","","",""
"","","","","ctl-task-cpt","14","162259","0.0-5.0-0.1","207","1","2025-07-23 10:22:30","1f75c3e559b7213887762d5229550c2b","152.106.99.150","Mozilla/5.0 (Windows NT 10.0; Win64; x64) AppleWebKit/537.36 (KHTML, like Gecko) Chrome/138.0.0.0 Safari/537.36","WebKit","Chrome","138.0.0.0","Windows","10.0","https://app.prolific.com/","en-US,en;q=0.9","666408427db5e38fe0ea1736","683db9eb0562dbf637994deb","6880b3fa3274d6c5f5b34f08","2","1","666408427db5e38fe0ea1736","2","1","2025-07-23T10:25:17.346Z","","","","","","","","","","","","","","win-only","2","g1:SE,g2:NW","0.9","2","0","156257.7","1320.5","6324.2","10716.4","1","4","8","6","2","-8","-8","0","0","0","1496.2","3000","-2690","[""left"",""up""]","{""num_key_presses"":0,""num_perfect"":0,""num_errors"":0,""num_randdir"":0,""num_randdir_good_moves"":0,""num_whilered"":0,""num_whileblue"":0,""num_blue"":0,""num_good_moves"":0}","[414.57142857142856,420.47767857142856,0.2,414.57142857142856,420.47767857142856,105.8,414.57142857142856,420.47767857142856,215.8,414.57142857142856,420.47767857142856,320.9,414.57142857142856,420.47767857142856,425.3,421.57142857142856,427.47767857142856,525.5,494.57142857142856,494.47767857142856,625.5,498.57142857142856,501.47767857142856,731.6,469.57142857142856,491.47767857142856,831.6,229.57142857142856,290.47767857142856,935.3,-82.42857142857143,117.47767857142857,1036.5,-112.42857142857143,104.47767857142857,1141.4,15.57142857142857,90.47767857142857,1247.5,17.57142857142857,89.47767857142857,1347.7,17.57142857142857,89.47767857142857,1450.2,18.57142857142857,87.47767857142857,1551.4,18.57142857142857,87.47767857142857,1655.2,33.57142857142857,105.47767857142857,1762.7,81.57142857142857,166.47767857142856,1866.1,105.57142857142857,277.47767857142856,1970.6,116.57142857142857,318.47767857142856,2071.3,216.57142857142856,366.47767857142856,2171.8,445.57142857142856,432.47767857142856,2277.8,449.57142857142856,433.47767857142856,2381,450.57142857142856,446.47767857142856,2481.6,457.57142857142856,473.47767857142856,2585.3,458.57142857142856,474.47767857142856,2686,452.57142857142856,483.47767857142856,2793.2,439.57142857142856,494.47767857142856,2895.4,438.57142857142856,495.47767857142856,3000.8,437.57142857142856,495.47767857142856,3108.9,459.57142857142856,495.47767857142856,3209.9,459.57142857142856,495.47767857142856,3310.1,459.57142857142856,495.47767857142856,3411.2,463.57142857142856,493.47767857142856,3516.1,463.57142857142856,492.47767857142856,3623.5,463.57142857142856,492.47767857142856,3725,463.57142857142856,492.47767857142856,3825.1,463.57142857142856,492.47767857142856,3925.7,463.57142857142856,492.47767857142856,4026.3,463.57142857142856,492.47767857142856,4131.4,463.57142857142856,492.47767857142856,4238.6,463.57142857142856,492.47767857142856,4339,463.57142857142856,492.47767857142856,4439.9,463.57142857142856,492.47767857142856,4545.4,463.57142857142856,492.47767857142856,4645.9,463.57142857142856,492.47767857142856,4753.8,463.57142857142856,492.47767857142856,4855.2,463.57142857142856,492.47767857142856,4955.2]","[]","",""
"9277","","<div style=""width:500px;"">
  <p>What determined the result of this run?</p>
  </div>","95","html-slider-response","15","171537","0.0-5.0-1.1","207","1","2025-07-23 10:22:30","1f75c3e559b7213887762d5229550c2b","152.106.99.150","Mozilla/5.0 (Windows NT 10.0; Win64; x64) AppleWebKit/537.36 (KHTML, like Gecko) Chrome/138.0.0.0 Safari/537.36","WebKit","Chrome","138.0.0.0","Windows","10.0","https://app.prolific.com/","en-US,en;q=0.9","666408427db5e38fe0ea1736","683db9eb0562dbf637994deb","6880b3fa3274d6c5f5b34f08","2","1","666408427db5e38fe0ea1736","2","1","2025-07-23T10:25:26.624Z","","","","","","","","","","","AttribQ","","50","","","","","","","","","","","","","","","","","","","","","","","","","","","","",""
"3463","","<div style=""width:500px;"">
  <p>How much control did you have over the ball?</p>
  </div>","31","html-slider-response","16","175001","0.0-5.0-2.1","207","1","2025-07-23 10:22:30","1f75c3e559b7213887762d5229550c2b","152.106.99.150","Mozilla/5.0 (Windows NT 10.0; Win64; x64) AppleWebKit/537.36 (KHTML, like Gecko) Chrome/138.0.0.0 Safari/537.36","WebKit","Chrome","138.0.0.0","Windows","10.0","https://app.prolific.com/","en-US,en;q=0.9","666408427db5e38fe0ea1736","683db9eb0562dbf637994deb","6880b3fa3274d6c5f5b34f08","2","1","666408427db5e38fe0ea1736","2","1","2025-07-23T10:25:30.088Z","","","","","","","","","","","ControlQ","","50","","","","","","","","","","","","","","","","","","","","","","","","","","","","",""
"2463","","<div style=""width:500px;"">
  <p>How would you describe your current emotional state?</p>
  </div>","62","html-slider-response","17","177465","0.0-5.0-3.1","207","1","2025-07-23 10:22:30","1f75c3e559b7213887762d5229550c2b","152.106.99.150","Mozilla/5.0 (Windows NT 10.0; Win64; x64) AppleWebKit/537.36 (KHTML, like Gecko) Chrome/138.0.0.0 Safari/537.36","WebKit","Chrome","138.0.0.0","Windows","10.0","https://app.prolific.com/","en-US,en;q=0.9","666408427db5e38fe0ea1736","683db9eb0562dbf637994deb","6880b3fa3274d6c5f5b34f08","2","1","666408427db5e38fe0ea1736","2","1","2025-07-23T10:25:32.552Z","","","","","","","","","","","StressQ","","50","","","","","","","","","","","","","","","","","","","","","","","","","","","","",""
"3695","","<div style=""width:500px;"">
  <p>What best describes how you currently feel?</p>
  </div>","38","html-slider-response","18","181161","0.0-5.0-4.1","207","1","2025-07-23 10:22:30","1f75c3e559b7213887762d5229550c2b","152.106.99.150","Mozilla/5.0 (Windows NT 10.0; Win64; x64) AppleWebKit/537.36 (KHTML, like Gecko) Chrome/138.0.0.0 Safari/537.36","WebKit","Chrome","138.0.0.0","Windows","10.0","https://app.prolific.com/","en-US,en;q=0.9","666408427db5e38fe0ea1736","683db9eb0562dbf637994deb","6880b3fa3274d6c5f5b34f08","2","1","666408427db5e38fe0ea1736","2","1","2025-07-23T10:25:36.248Z","","","","","","","","","","","MotivationQ","","50","","","","","","","","","","","","","","","","","","","","","","","","","","","","",""
"","","","","ctl-task-cpt","19","197645","0.0-5.0-0.2","207","1","2025-07-23 10:22:30","1f75c3e559b7213887762d5229550c2b","152.106.99.150","Mozilla/5.0 (Windows NT 10.0; Win64; x64) AppleWebKit/537.36 (KHTML, like Gecko) Chrome/138.0.0.0 Safari/537.36","WebKit","Chrome","138.0.0.0","Windows","10.0","https://app.prolific.com/","en-US,en;q=0.9","666408427db5e38fe0ea1736","683db9eb0562dbf637994deb","6880b3fa3274d6c5f5b34f08","2","1","666408427db5e38fe0ea1736","2","1","2025-07-23T10:25:52.732Z","","","","","","","","","","","","","","win-only","2","g1:SE,g2:NW","0.8","3","0","188882.6","1078.4","6081.8","13461.1","1","4","8","6","2","-8","-8","0","0","0","1064.7","3000","-3010","[""left"",""up""]","{""num_key_presses"":0,""num_perfect"":0,""num_errors"":0,""num_randdir"":0,""num_randdir_good_moves"":0,""num_whilered"":0,""num_whileblue"":0,""num_blue"":1,""num_good_moves"":0}","[416.57142857142856,420.47767857142856,0.1,416.57142857142856,420.47767857142856,102.1,416.57142857142856,420.47767857142856,209.5,416.57142857142856,420.47767857142856,313.3,314.57142857142856,365.47767857142856,417.5,214.57142857142856,296.47767857142856,517.6,83.57142857142857,176.47767857142856,617.8,45.57142857142857,143.47767857142856,722.8,37.57142857142857,130.47767857142856,827.9,25.57142857142857,102.47767857142857,933.2,22.57142857142857,88.47767857142857,1037.6,21.57142857142857,87.47767857142857,1137.9,21.57142857142857,87.47767857142857,1240.3,21.57142857142857,87.47767857142857,1343.6,21.57142857142857,87.47767857142857,1447,21.57142857142857,87.47767857142857,1547.5,21.57142857142857,87.47767857142857,1647.5,21.57142857142857,87.47767857142857,1753.4,45.57142857142857,124.47767857142857,1853.4,48.57142857142857,129.47767857142856,1957.6,48.57142857142857,129.47767857142856,2060.4,48.57142857142857,129.47767857142856,2160.8,48.57142857142857,129.47767857142856,2262.3,48.57142857142857,129.47767857142856,2363.4,48.57142857142857,129.47767857142856,2463.6,48.57142857142857,129.47767857142856,2567.3,48.57142857142857,129.47767857142856,2667.6,48.57142857142857,129.47767857142856,2769.1,48.57142857142857,129.47767857142856,2873.3,48.57142857142857,129.47767857142856,2973.3,48.57142857142857,129.47767857142856,3074.8,48.57142857142857,129.47767857142856,3177.4,48.57142857142857,129.47767857142856,3277.4,48.57142857142857,129.47767857142856,3384,48.57142857142857,129.47767857142856,3487.9,48.57142857142857,129.47767857142856,3593.6,48.57142857142857,129.47767857142856,3697.8,48.57142857142857,129.47767857142856,3804.4,48.57142857142857,129.47767857142856,3906.9,48.57142857142857,129.47767857142856,4007.9,48.57142857142857,129.47767857142856,4113.4,48.57142857142857,129.47767857142856,4218.1,48.57142857142857,129.47767857142856,4318.3,48.57142857142857,129.47767857142856,4419.9,48.57142857142857,129.47767857142856,4523.3,48.57142857142857,129.47767857142856,4628,48.57142857142857,129.47767857142856,4735.4,48.57142857142857,129.47767857142856,4837.7,48.57142857142857,129.47767857142856,4943.5]","[]","",""
"14996","","<div style=""width:500px;"">
  <p>What determined the result of this run?</p>
  </div>","75","html-slider-response","20","212641","0.0-5.0-1.2","207","1","2025-07-23 10:22:30","1f75c3e559b7213887762d5229550c2b","152.106.99.150","Mozilla/5.0 (Windows NT 10.0; Win64; x64) AppleWebKit/537.36 (KHTML, like Gecko) Chrome/138.0.0.0 Safari/537.36","WebKit","Chrome","138.0.0.0","Windows","10.0","https://app.prolific.com/","en-US,en;q=0.9","666408427db5e38fe0ea1736","683db9eb0562dbf637994deb","6880b3fa3274d6c5f5b34f08","2","1","666408427db5e38fe0ea1736","2","1","2025-07-23T10:26:07.728Z","","","","","","","","","","","AttribQ","","50","","","","","","","","","","","","","","","","","","","","","","","","","","","","",""
"4648","","<div style=""width:500px;"">
  <p>How much control did you have over the ball?</p>
  </div>","55","html-slider-response","21","217290","0.0-5.0-2.2","207","1","2025-07-23 10:22:30","1f75c3e559b7213887762d5229550c2b","152.106.99.150","Mozilla/5.0 (Windows NT 10.0; Win64; x64) AppleWebKit/537.36 (KHTML, like Gecko) Chrome/138.0.0.0 Safari/537.36","WebKit","Chrome","138.0.0.0","Windows","10.0","https://app.prolific.com/","en-US,en;q=0.9","666408427db5e38fe0ea1736","683db9eb0562dbf637994deb","6880b3fa3274d6c5f5b34f08","2","1","666408427db5e38fe0ea1736","2","1","2025-07-23T10:26:12.377Z","","","","","","","","","","","ControlQ","","50","","","","","","","","","","","","","","","","","","","","","","","","","","","","",""
"2590","","<div style=""width:500px;"">
  <p>How would you describe your current emotional state?</p>
  </div>","68","html-slider-response","22","219881","0.0-5.0-3.2","207","1","2025-07-23 10:22:30","1f75c3e559b7213887762d5229550c2b","152.106.99.150","Mozilla/5.0 (Windows NT 10.0; Win64; x64) AppleWebKit/537.36 (KHTML, like Gecko) Chrome/138.0.0.0 Safari/537.36","WebKit","Chrome","138.0.0.0","Windows","10.0","https://app.prolific.com/","en-US,en;q=0.9","666408427db5e38fe0ea1736","683db9eb0562dbf637994deb","6880b3fa3274d6c5f5b34f08","2","1","666408427db5e38fe0ea1736","2","1","2025-07-23T10:26:14.969Z","","","","","","","","","","","StressQ","","50","","","","","","","","","","","","","","","","","","","","","","","","","","","","",""
"3271","","<div style=""width:500px;"">
  <p>What best describes how you currently feel?</p>
  </div>","68","html-slider-response","23","223153","0.0-5.0-4.2","207","1","2025-07-23 10:22:30","1f75c3e559b7213887762d5229550c2b","152.106.99.150","Mozilla/5.0 (Windows NT 10.0; Win64; x64) AppleWebKit/537.36 (KHTML, like Gecko) Chrome/138.0.0.0 Safari/537.36","WebKit","Chrome","138.0.0.0","Windows","10.0","https://app.prolific.com/","en-US,en;q=0.9","666408427db5e38fe0ea1736","683db9eb0562dbf637994deb","6880b3fa3274d6c5f5b34f08","2","1","666408427db5e38fe0ea1736","2","1","2025-07-23T10:26:18.240Z","","","","","","","","","","","MotivationQ","","50","","","","","","","","","","","","","","","","","","","","","","","","","","","","",""
"","","","","ctl-task-cpt","24","258139","0.0-5.0-0.3","207","1","2025-07-23 10:22:30","1f75c3e559b7213887762d5229550c2b","152.106.99.150","Mozilla/5.0 (Windows NT 10.0; Win64; x64) AppleWebKit/537.36 (KHTML, like Gecko) Chrome/138.0.0.0 Safari/537.36","WebKit","Chrome","138.0.0.0","Windows","10.0","https://app.prolific.com/","en-US,en;q=0.9","666408427db5e38fe0ea1736","683db9eb0562dbf637994deb","6880b3fa3274d6c5f5b34f08","2","1","666408427db5e38fe0ea1736","2","1","2025-07-23T10:26:53.226Z","","","","","","","","","","","","","","win-only","2","g1:SE,g2:NW","0.7","4","0","230874.2","939.2","5946.3","31961.3","1","4","4","6","1","1","1","1","0","0.007575757575757576","1836.6","3000","55","[""down"",""right""]","{""num_key_presses"":8,""num_perfect"":6,""num_errors"":0,""num_randdir"":2,""num_randdir_good_moves"":0,""num_whilered"":0,""num_whileblue"":0,""num_blue"":1,""num_good_moves"":6}","[415.57142857142856,428.47767857142856,0.2,415.57142857142856,428.47767857142856,101.2,415.57142857142856,428.47767857142856,207.7,415.57142857142856,428.47767857142856,318.3,415.57142857142856,428.47767857142856,419,415.57142857142856,428.47767857142856,521.7,415.57142857142856,428.47767857142856,626.8,341.57142857142856,398.47767857142856,727.4,181.57142857142856,312.47767857142856,831.4,-53.42857142857143,124.47767857142857,937.7,-53.42857142857143,123.47767857142857,1042.5,-50.42857142857143,125.47767857142857,1149.5,220.57142857142856,309.47767857142856,1249.7,566.5714285714286,511.47767857142856,1349.8,740.5714285714286,627.4776785714286,1451.1,787.5714285714286,681.4776785714286,1552,810.5714285714286,724.4776785714286,1657.3,810.5714285714286,733.4776785714286,1764.9,810.5714285714286,733.4776785714286,1866.3,810.5714285714286,733.4776785714286,1967.2,810.5714285714286,733.4776785714286,2067.8,810.5714285714286,733.4776785714286,2180.3,810.5714285714286,733.4776785714286,2281.8,810.5714285714286,733.4776785714286,2381.9,810.5714285714286,733.4776785714286,2487.2,811.5714285714286,733.4776785714286,2588.1,819.5714285714286,734.4776785714286,2696.4,820.5714285714286,734.4776785714286,2797.1,820.5714285714286,734.4776785714286,2910.8,820.5714285714286,734.4776785714286,3012.2,820.5714285714286,734.4776785714286,3118,820.5714285714286,734.4776785714286,3228,820.5714285714286,734.4776785714286,3332,820.5714285714286,734.4776785714286,3443.6,820.5714285714286,734.4776785714286,3546.6,820.5714285714286,734.4776785714286,3647.1,820.5714285714286,734.4776785714286,3759.8,820.5714285714286,734.4776785714286,3861.7,820.5714285714286,734.4776785714286,3962.1,820.5714285714286,734.4776785714286,4066.8,820.5714285714286,734.4776785714286,4166.9,820.5714285714286,734.4776785714286,4267,820.5714285714286,734.4776785714286,4367,820.5714285714286,734.4776785714286,4474.8,820.5714285714286,734.4776785714286,4577.9,820.5714285714286,734.4776785714286,4689,820.5714285714286,734.4776785714286,4790,820.5714285714286,734.4776785714286,4890,820.5714285714286,734.4776785714286,4991.3]","[1461.7,1461.7,1000,0,461.7,""smooth"",""right"",""right"",""good_move"",3957.2,2495.3,1945.9,1461.9,549.4,""oops"",""down"",""up"",""bad_move"",6788.1,2830.1,2368.5,3958,461.6,""smooth"",""down"",""down"",""good_move"",10103,3314.5,2856.6,6788.5,457.9,""smooth"",""down"",""down"",""good_move"",13261.5,3158.2,2617.7,10103.4,540.5,""smooth"",""down"",""down"",""good_move"",19715.9,6454.2,2449.4,16819.9,446.6,""oops"",""right"",""left"",""bad_move"",22804.6,3088.4,2671.8,19716.2,416.6,""smooth"",""right"",""right"",""good_move"",25891.9,3086.9,2758.7,22805,328.2,""smooth"",""right"",""right"",""good_move""]","",""
"3070","","<div style=""width:500px;"">
  <p>What determined the result of this run?</p>
  </div>","73","html-slider-response","25","261209","0.0-5.0-1.3","207","1","2025-07-23 10:22:30","1f75c3e559b7213887762d5229550c2b","152.106.99.150","Mozilla/5.0 (Windows NT 10.0; Win64; x64) AppleWebKit/537.36 (KHTML, like Gecko) Chrome/138.0.0.0 Safari/537.36","WebKit","Chrome","138.0.0.0","Windows","10.0","https://app.prolific.com/","en-US,en;q=0.9","666408427db5e38fe0ea1736","683db9eb0562dbf637994deb","6880b3fa3274d6c5f5b34f08","2","1","666408427db5e38fe0ea1736","2","1","2025-07-23T10:26:56.296Z","","","","","","","","","","","AttribQ","","50","","","","","","","","","","","","","","","","","","","","","","","","","","","","",""
"6343","","<div style=""width:500px;"">
  <p>How much control did you have over the ball?</p>
  </div>","61","html-slider-response","26","267553","0.0-5.0-2.3","207","1","2025-07-23 10:22:30","1f75c3e559b7213887762d5229550c2b","152.106.99.150","Mozilla/5.0 (Windows NT 10.0; Win64; x64) AppleWebKit/537.36 (KHTML, like Gecko) Chrome/138.0.0.0 Safari/537.36","WebKit","Chrome","138.0.0.0","Windows","10.0","https://app.prolific.com/","en-US,en;q=0.9","666408427db5e38fe0ea1736","683db9eb0562dbf637994deb","6880b3fa3274d6c5f5b34f08","2","1","666408427db5e38fe0ea1736","2","1","2025-07-23T10:27:02.640Z","","","","","","","","","","","ControlQ","","50","","","","","","","","","","","","","","","","","","","","","","","","","","","","",""
"5448","","<div style=""width:500px;"">
  <p>How would you describe your current emotional state?</p>
  </div>","22","html-slider-response","27","273001","0.0-5.0-3.3","207","1","2025-07-23 10:22:30","1f75c3e559b7213887762d5229550c2b","152.106.99.150","Mozilla/5.0 (Windows NT 10.0; Win64; x64) AppleWebKit/537.36 (KHTML, like Gecko) Chrome/138.0.0.0 Safari/537.36","WebKit","Chrome","138.0.0.0","Windows","10.0","https://app.prolific.com/","en-US,en;q=0.9","666408427db5e38fe0ea1736","683db9eb0562dbf637994deb","6880b3fa3274d6c5f5b34f08","2","1","666408427db5e38fe0ea1736","2","1","2025-07-23T10:27:08.089Z","","","","","","","","","","","StressQ","","50","","","","","","","","","","","","","","","","","","","","","","","","","","","","",""
"4103","","<div style=""width:500px;"">
  <p>What best describes how you currently feel?</p>
  </div>","76","html-slider-response","28","277105","0.0-5.0-4.3","207","1","2025-07-23 10:22:30","1f75c3e559b7213887762d5229550c2b","152.106.99.150","Mozilla/5.0 (Windows NT 10.0; Win64; x64) AppleWebKit/537.36 (KHTML, like Gecko) Chrome/138.0.0.0 Safari/537.36","WebKit","Chrome","138.0.0.0","Windows","10.0","https://app.prolific.com/","en-US,en;q=0.9","666408427db5e38fe0ea1736","683db9eb0562dbf637994deb","6880b3fa3274d6c5f5b34f08","2","1","666408427db5e38fe0ea1736","2","1","2025-07-23T10:27:12.192Z","","","","","","","","","","","MotivationQ","","50","","","","","","","","","","","","","","","","","","","","","","","","","","","","",""
"","","","","ctl-task-cpt","29","305928","0.0-5.0-0.4","207","1","2025-07-23 10:22:30","1f75c3e559b7213887762d5229550c2b","152.106.99.150","Mozilla/5.0 (Windows NT 10.0; Win64; x64) AppleWebKit/537.36 (KHTML, like Gecko) Chrome/138.0.0.0 Safari/537.36","WebKit","Chrome","138.0.0.0","Windows","10.0","https://app.prolific.com/","en-US,en;q=0.9","666408427db5e38fe0ea1736","683db9eb0562dbf637994deb","6880b3fa3274d6c5f5b34f08","2","1","666408427db5e38fe0ea1736","2","1","2025-07-23T10:27:41.015Z","","","","","","","","","","","","","","win-only","0","g1:NW,g2:SE","0.6","5","0","284826.2","1480.7","6481","25806","1","4","8","6","2","8","8","9","1","0.06818181818181818","1262.8","3000","1145","[""down"",""right""]","{""num_key_presses"":6,""num_perfect"":5,""num_errors"":0,""num_randdir"":1,""num_randdir_good_moves"":1,""num_whilered"":0,""num_whileblue"":0,""num_blue"":1,""num_good_moves"":6}","[422.57142857142856,426.47767857142856,0.1,422.57142857142856,426.47767857142856,101,422.57142857142856,426.47767857142856,201.5,422.57142857142856,426.47767857142856,313.8,422.57142857142856,426.47767857142856,413.9,422.57142857142856,426.47767857142856,515.7,420.57142857142856,432.47767857142856,615.8,572.5714285714286,682.4776785714286,728.9,723.5714285714286,856.4776785714286,829.4,725.5714285714286,858.4776785714286,929.8,730.5714285714286,836.4776785714286,1030.4,744.5714285714286,800.4776785714286,1144.6,746.5714285714286,797.4776785714286,1245.6,748.5714285714286,796.4776785714286,1346,748.5714285714286,796.4776785714286,1450.4,748.5714285714286,796.4776785714286,1550.6,748.5714285714286,796.4776785714286,1659.4,748.5714285714286,796.4776785714286,1761.8,748.5714285714286,795.4776785714286,1865.1,748.5714285714286,795.4776785714286,1975.3,748.5714285714286,795.4776785714286,2080.1,748.5714285714286,795.4776785714286,2184.8,748.5714285714286,795.4776785714286,2290,748.5714285714286,795.4776785714286,2390.4,748.5714285714286,795.4776785714286,2495.6,748.5714285714286,795.4776785714286,2599.7,748.5714285714286,795.4776785714286,2699.9,748.5714285714286,795.4776785714286,2799.9,748.5714285714286,795.4776785714286,2906.7,748.5714285714286,795.4776785714286,3009.6,748.5714285714286,795.4776785714286,3110.2,748.5714285714286,795.4776785714286,3210.6,748.5714285714286,795.4776785714286,3314.7,748.5714285714286,795.4776785714286,3415.1,748.5714285714286,795.4776785714286,3520,748.5714285714286,795.4776785714286,3620.5,748.5714285714286,795.4776785714286,3726.3,748.5714285714286,795.4776785714286,3829.9,748.5714285714286,795.4776785714286,3938.2,748.5714285714286,795.4776785714286,4040.6,748.5714285714286,795.4776785714286,4140.6,748.5714285714286,795.4776785714286,4245.5,748.5714285714286,795.4776785714286,4353.5,748.5714285714286,795.4776785714286,4454.7,748.5714285714286,795.4776785714286,4556.2,748.5714285714286,795.4776785714286,4669.6,748.5714285714286,795.4776785714286,4770.7,748.5714285714286,795.4776785714286,4870.8,748.5714285714286,795.4776785714286,4984.2]","[4402.9,4402.9,1995.8,2012.6,394.5,""smooth"",""right"",""right"",""good_move"",7118.3,2715,2324.2,4403.3,390.8,""smooth"",""down"",""down"",""good_move"",9629.1,2510.5,2088.5,7118.6,422,""smooth"",""down"",""down"",""good_move"",12832,3202.7,2827.3,9629.3,375.4,""smooth"",""right"",""right"",""good_move"",15840.4,3008.1,2620.1,12832.4,387.9,""smooth"",""down"",""down"",""good_move"",19213.4,3372.4,2954.1,15841,418.3,""oops"",""right"",""right"",""good_move""]","",""
"3458","","<div style=""width:500px;"">
  <p>What determined the result of this run?</p>
  </div>","80","html-slider-response","30","309386","0.0-5.0-1.4","207","1","2025-07-23 10:22:30","1f75c3e559b7213887762d5229550c2b","152.106.99.150","Mozilla/5.0 (Windows NT 10.0; Win64; x64) AppleWebKit/537.36 (KHTML, like Gecko) Chrome/138.0.0.0 Safari/537.36","WebKit","Chrome","138.0.0.0","Windows","10.0","https://app.prolific.com/","en-US,en;q=0.9","666408427db5e38fe0ea1736","683db9eb0562dbf637994deb","6880b3fa3274d6c5f5b34f08","2","1","666408427db5e38fe0ea1736","2","1","2025-07-23T10:27:44.474Z","","","","","","","","","","","AttribQ","","50","","","","","","","","","","","","","","","","","","","","","","","","","","","","",""
"3671","","<div style=""width:500px;"">
  <p>How much control did you have over the ball?</p>
  </div>","100","html-slider-response","31","313058","0.0-5.0-2.4","207","1","2025-07-23 10:22:30","1f75c3e559b7213887762d5229550c2b","152.106.99.150","Mozilla/5.0 (Windows NT 10.0; Win64; x64) AppleWebKit/537.36 (KHTML, like Gecko) Chrome/138.0.0.0 Safari/537.36","WebKit","Chrome","138.0.0.0","Windows","10.0","https://app.prolific.com/","en-US,en;q=0.9","666408427db5e38fe0ea1736","683db9eb0562dbf637994deb","6880b3fa3274d6c5f5b34f08","2","1","666408427db5e38fe0ea1736","2","1","2025-07-23T10:27:48.145Z","","","","","","","","","","","ControlQ","","50","","","","","","","","","","","","","","","","","","","","","","","","","","","","",""
"3294","","<div style=""width:500px;"">
  <p>How would you describe your current emotional state?</p>
  </div>","12","html-slider-response","32","316353","0.0-5.0-3.4","207","1","2025-07-23 10:22:30","1f75c3e559b7213887762d5229550c2b","152.106.99.150","Mozilla/5.0 (Windows NT 10.0; Win64; x64) AppleWebKit/537.36 (KHTML, like Gecko) Chrome/138.0.0.0 Safari/537.36","WebKit","Chrome","138.0.0.0","Windows","10.0","https://app.prolific.com/","en-US,en;q=0.9","666408427db5e38fe0ea1736","683db9eb0562dbf637994deb","6880b3fa3274d6c5f5b34f08","2","1","666408427db5e38fe0ea1736","2","1","2025-07-23T10:27:51.440Z","","","","","","","","","","","StressQ","","50","","","","","","","","","","","","","","","","","","","","","","","","","","","","",""
"4159","","<div style=""width:500px;"">
  <p>What best describes how you currently feel?</p>
  </div>","79","html-slider-response","33","320514","0.0-5.0-4.4","207","1","2025-07-23 10:22:30","1f75c3e559b7213887762d5229550c2b","152.106.99.150","Mozilla/5.0 (Windows NT 10.0; Win64; x64) AppleWebKit/537.36 (KHTML, like Gecko) Chrome/138.0.0.0 Safari/537.36","WebKit","Chrome","138.0.0.0","Windows","10.0","https://app.prolific.com/","en-US,en;q=0.9","666408427db5e38fe0ea1736","683db9eb0562dbf637994deb","6880b3fa3274d6c5f5b34f08","2","1","666408427db5e38fe0ea1736","2","1","2025-07-23T10:27:55.602Z","","","","","","","","","","","MotivationQ","","50","","","","","","","","","","","","","","","","","","","","","","","","","","","","",""
"","","","","ctl-task-cpt","34","356221","0.0-5.0-0.5","207","1","2025-07-23 10:22:30","1f75c3e559b7213887762d5229550c2b","152.106.99.150","Mozilla/5.0 (Windows NT 10.0; Win64; x64) AppleWebKit/537.36 (KHTML, like Gecko) Chrome/138.0.0.0 Safari/537.36","WebKit","Chrome","138.0.0.0","Windows","10.0","https://app.prolific.com/","en-US,en;q=0.9","666408427db5e38fe0ea1736","683db9eb0562dbf637994deb","6880b3fa3274d6c5f5b34f08","2","1","666408427db5e38fe0ea1736","2","1","2025-07-23T10:28:31.308Z","","","","","","","","","","","","","","win-only","2","g1:SE,g2:NW","0.5","6","0","328242.3","2378.5","7381.1","32680","1","4","4","6","2","-4","-4","5","9","0.03787878787878788","1581","3000","-2355","[""left"",""up""]","{""num_key_presses"":8,""num_perfect"":3,""num_errors"":0,""num_randdir"":5,""num_randdir_good_moves"":1,""num_whilered"":0,""num_whileblue"":0,""num_blue"":0,""num_good_moves"":4}","[421.57142857142856,414.47767857142856,0.2,421.57142857142856,414.47767857142856,100.4,421.57142857142856,414.47767857142856,202.1,421.57142857142856,414.47767857142856,302.3,421.57142857142856,414.47767857142856,402.9,421.57142857142856,414.47767857142856,508.7,421.57142857142856,414.47767857142856,612.5,421.57142857142856,414.47767857142856,717.5,421.57142857142856,414.47767857142856,830.7,421.57142857142856,414.47767857142856,932.2,356.57142857142856,352.47767857142856,1034.1,200.57142857142856,177.47767857142856,1146.7,183.57142857142856,164.47767857142856,1253.1,130.57142857142856,131.47767857142856,1360.7,120.57142857142857,121.47767857142857,1462.3,120.57142857142857,121.47767857142857,1567.3,120.57142857142857,121.47767857142857,1677.8,120.57142857142857,121.47767857142857,1782.9,120.57142857142857,121.47767857142857,1888.3,120.57142857142857,121.47767857142857,1993.6,120.57142857142857,121.47767857142857,2097.3,120.57142857142857,121.47767857142857,2198.4,120.57142857142857,121.47767857142857,2310.9,120.57142857142857,121.47767857142857,2413,120.57142857142857,121.47767857142857,2517.5,120.57142857142857,121.47767857142857,2626.2,120.57142857142857,121.47767857142857,2728.3,120.57142857142857,121.47767857142857,2842.7,120.57142857142857,121.47767857142857,2947.2,120.57142857142857,121.47767857142857,3048.2,120.57142857142857,121.47767857142857,3153.4,120.57142857142857,121.47767857142857,3257.8,120.57142857142857,121.47767857142857,3366.1,120.57142857142857,121.47767857142857,3468.6,120.57142857142857,121.47767857142857,3572.8,120.57142857142857,121.47767857142857,3672.8,120.57142857142857,121.47767857142857,3777.2,120.57142857142857,121.47767857142857,3877.5,120.57142857142857,121.47767857142857,3978,120.57142857142857,121.47767857142857,4084.3,120.57142857142857,121.47767857142857,4187.9,120.57142857142857,121.47767857142857,4292.6,120.57142857142857,121.47767857142857,4405.6,120.57142857142857,121.47767857142857,4506.8,120.57142857142857,121.47767857142857,4608.2,120.57142857142857,121.47767857142857,4721.7,120.57142857142857,121.47767857142857,4824,120.57142857142857,121.47767857142857,4936.2]","[1538.1,1538.1,1000,0,538.1,""oops"",""up"",""left"",""good_move"",5122.7,3584.1,3092,1538.7,492,""smooth"",""up"",""up"",""good_move"",7904.8,2781.2,2355.7,5123.6,425.5,""oops"",""left"",""down"",""bad_move"",10805.7,2900.6,2526.9,7905.1,373.7,""oops"",""up"",""right"",""bad_move"",13504.8,2698.7,2252.2,10806.1,446.5,""oops"",""up"",""down"",""bad_move"",16307.2,2802.4,2419.7,13504.8,382.7,""smooth"",""up"",""up"",""good_move"",19265.2,2957.6,2557.5,16307.6,400.1,""oops"",""left"",""down"",""bad_move"",22305.9,3040.6,2619.1,19265.3,421.5,""smooth"",""up"",""up"",""good_move""]","",""
"4558","","<div style=""width:500px;"">
  <p>What determined the result of this run?</p>
  </div>","77","html-slider-response","35","360781","0.0-5.0-1.5","207","1","2025-07-23 10:22:30","1f75c3e559b7213887762d5229550c2b","152.106.99.150","Mozilla/5.0 (Windows NT 10.0; Win64; x64) AppleWebKit/537.36 (KHTML, like Gecko) Chrome/138.0.0.0 Safari/537.36","WebKit","Chrome","138.0.0.0","Windows","10.0","https://app.prolific.com/","en-US,en;q=0.9","666408427db5e38fe0ea1736","683db9eb0562dbf637994deb","6880b3fa3274d6c5f5b34f08","2","1","666408427db5e38fe0ea1736","2","1","2025-07-23T10:28:35.868Z","","","","","","","","","","","AttribQ","","50","","","","","","","","","","","","","","","","","","","","","","","","","","","","",""
"4961","","<div style=""width:500px;"">
  <p>How much control did you have over the ball?</p>
  </div>","71","html-slider-response","36","365745","0.0-5.0-2.5","207","1","2025-07-23 10:22:30","1f75c3e559b7213887762d5229550c2b","152.106.99.150","Mozilla/5.0 (Windows NT 10.0; Win64; x64) AppleWebKit/537.36 (KHTML, like Gecko) Chrome/138.0.0.0 Safari/537.36","WebKit","Chrome","138.0.0.0","Windows","10.0","https://app.prolific.com/","en-US,en;q=0.9","666408427db5e38fe0ea1736","683db9eb0562dbf637994deb","6880b3fa3274d6c5f5b34f08","2","1","666408427db5e38fe0ea1736","2","1","2025-07-23T10:28:40.832Z","","","","","","","","","","","ControlQ","","50","","","","","","","","","","","","","","","","","","","","","","","","","","","","",""
"3199","","<div style=""width:500px;"">
  <p>How would you describe your current emotional state?</p>
  </div>","24","html-slider-response","37","368945","0.0-5.0-3.5","207","1","2025-07-23 10:22:30","1f75c3e559b7213887762d5229550c2b","152.106.99.150","Mozilla/5.0 (Windows NT 10.0; Win64; x64) AppleWebKit/537.36 (KHTML, like Gecko) Chrome/138.0.0.0 Safari/537.36","WebKit","Chrome","138.0.0.0","Windows","10.0","https://app.prolific.com/","en-US,en;q=0.9","666408427db5e38fe0ea1736","683db9eb0562dbf637994deb","6880b3fa3274d6c5f5b34f08","2","1","666408427db5e38fe0ea1736","2","1","2025-07-23T10:28:44.032Z","","","","","","","","","","","StressQ","","50","","","","","","","","","","","","","","","","","","","","","","","","","","","","",""
"2993","","<div style=""width:500px;"">
  <p>What best describes how you currently feel?</p>
  </div>","68","html-slider-response","38","371938","0.0-5.0-4.5","207","1","2025-07-23 10:22:30","1f75c3e559b7213887762d5229550c2b","152.106.99.150","Mozilla/5.0 (Windows NT 10.0; Win64; x64) AppleWebKit/537.36 (KHTML, like Gecko) Chrome/138.0.0.0 Safari/537.36","WebKit","Chrome","138.0.0.0","Windows","10.0","https://app.prolific.com/","en-US,en;q=0.9","666408427db5e38fe0ea1736","683db9eb0562dbf637994deb","6880b3fa3274d6c5f5b34f08","2","1","666408427db5e38fe0ea1736","2","1","2025-07-23T10:28:47.025Z","","","","","","","","","","","MotivationQ","","50","","","","","","","","","","","","","","","","","","","","","","","","","","","","",""
"","","","","ctl-task-cpt","39","414744","0.0-5.0-0.6","207","1","2025-07-23 10:22:30","1f75c3e559b7213887762d5229550c2b","152.106.99.150","Mozilla/5.0 (Windows NT 10.0; Win64; x64) AppleWebKit/537.36 (KHTML, like Gecko) Chrome/138.0.0.0 Safari/537.36","WebKit","Chrome","138.0.0.0","Windows","10.0","https://app.prolific.com/","en-US,en;q=0.9","666408427db5e38fe0ea1736","683db9eb0562dbf637994deb","6880b3fa3274d6c5f5b34f08","2","1","666408427db5e38fe0ea1736","2","1","2025-07-23T10:29:29.831Z","","","","","","","","","","","","","","win-only","3","g1:SW,g2:NE","0.4","7","0","379659","1127.2","6131.6","39773.1","1","4","8","6","2","-8","-8","0","5","0","1812.7","3000","-2130","[""up"",""right""]","{""num_key_presses"":9,""num_perfect"":4,""num_errors"":0,""num_randdir"":5,""num_randdir_good_moves"":2,""num_whilered"":0,""num_whileblue"":0,""num_blue"":2,""num_good_moves"":6}","[418.57142857142856,415.47767857142856,0.2,418.57142857142856,415.47767857142856,100.5,418.57142857142856,415.47767857142856,203.5,418.57142857142856,415.47767857142856,310.3,418.57142857142856,415.47767857142856,413.2,418.57142857142856,415.47767857142856,515.7,418.57142857142856,416.47767857142856,619.3,418.57142857142856,417.47767857142856,719.5,503.57142857142856,290.47767857142856,834.4,601.5714285714286,164.47767857142856,949.1,645.5714285714286,131.47767857142856,1049.9,660.5714285714286,126.47767857142857,1150.2,701.5714285714286,117.47767857142857,1254.7,708.5714285714286,113.47767857142857,1360,708.5714285714286,113.47767857142857,1463.6,708.5714285714286,113.47767857142857,1584.2,708.5714285714286,113.47767857142857,1689.8,708.5714285714286,113.47767857142857,1794.3,708.5714285714286,113.47767857142857,1898.6,708.5714285714286,113.47767857142857,1999.3,708.5714285714286,113.47767857142857,2099.5,708.5714285714286,113.47767857142857,2211.9,708.5714285714286,113.47767857142857,2314,708.5714285714286,113.47767857142857,2418.3,708.5714285714286,113.47767857142857,2518.5,708.5714285714286,113.47767857142857,2623.9,708.5714285714286,113.47767857142857,2724.7,730.5714285714286,110.47767857142857,2828.1,731.5714285714286,109.47767857142857,2930,731.5714285714286,109.47767857142857,3042.1,731.5714285714286,109.47767857142857,3143.6,731.5714285714286,109.47767857142857,3243.7,731.5714285714286,109.47767857142857,3343.7,731.5714285714286,109.47767857142857,3443.9,731.5714285714286,109.47767857142857,3548.2,731.5714285714286,109.47767857142857,3648.2,731.5714285714286,109.47767857142857,3748.2,731.5714285714286,109.47767857142857,3848.4,731.5714285714286,109.47767857142857,3955.2,731.5714285714286,109.47767857142857,4058.8,731.5714285714286,109.47767857142857,4173.8,731.5714285714286,109.47767857142857,4274,731.5714285714286,109.47767857142857,4374.3,731.5714285714286,109.47767857142857,4478.1,731.5714285714286,109.47767857142857,4578.6,731.5714285714286,109.47767857142857,4678.6,731.5714285714286,109.47767857142857,4778.6,731.5714285714286,109.47767857142857,4888.9,731.5714285714286,109.47767857142857,4989.2]","[1444.3,1444.3,1000,0,444.3,""smooth"",""right"",""right"",""good_move"",4570.2,3125.4,2728.5,1444.8,396.9,""oops"",""right"",""up"",""good_move"",8090.6,3520,2903.4,4570.6,616.6,""smooth"",""right"",""right"",""good_move"",10986.6,2895.8,2373,8090.8,522.8,""oops"",""up"",""left"",""bad_move"",12932,1945,1469.6,10987.1,475.3,""smooth"",""right"",""right"",""good_move"",15906.8,2974.4,2556.5,12932.4,417.9,""oops"",""up"",""left"",""bad_move"",20876.2,4969,1655.9,18759,461.3,""smooth"",""right"",""right"",""good_move"",23834.2,2957.8,2545.1,20876.4,412.7,""oops"",""right"",""right"",""good_move"",26843.3,3008.8,2617.9,23834.5,390.9,""oops"",""up"",""left"",""bad_move""]","",""
"2766","","<div style=""width:500px;"">
  <p>What determined the result of this run?</p>
  </div>","65","html-slider-response","40","417512","0.0-5.0-1.6","207","1","2025-07-23 10:22:30","1f75c3e559b7213887762d5229550c2b","152.106.99.150","Mozilla/5.0 (Windows NT 10.0; Win64; x64) AppleWebKit/537.36 (KHTML, like Gecko) Chrome/138.0.0.0 Safari/537.36","WebKit","Chrome","138.0.0.0","Windows","10.0","https://app.prolific.com/","en-US,en;q=0.9","666408427db5e38fe0ea1736","683db9eb0562dbf637994deb","6880b3fa3274d6c5f5b34f08","2","1","666408427db5e38fe0ea1736","2","1","2025-07-23T10:29:32.599Z","","","","","","","","","","","AttribQ","","50","","","","","","","","","","","","","","","","","","","","","","","","","","","","",""
"2139","","<div style=""width:500px;"">
  <p>How much control did you have over the ball?</p>
  </div>","35","html-slider-response","41","419652","0.0-5.0-2.6","207","1","2025-07-23 10:22:30","1f75c3e559b7213887762d5229550c2b","152.106.99.150","Mozilla/5.0 (Windows NT 10.0; Win64; x64) AppleWebKit/537.36 (KHTML, like Gecko) Chrome/138.0.0.0 Safari/537.36","WebKit","Chrome","138.0.0.0","Windows","10.0","https://app.prolific.com/","en-US,en;q=0.9","666408427db5e38fe0ea1736","683db9eb0562dbf637994deb","6880b3fa3274d6c5f5b34f08","2","1","666408427db5e38fe0ea1736","2","1","2025-07-23T10:29:34.739Z","","","","","","","","","","","ControlQ","","50","","","","","","","","","","","","","","","","","","","","","","","","","","","","",""
"3462","","<div style=""width:500px;"">
  <p>How would you describe your current emotional state?</p>
  </div>","20","html-slider-response","42","423116","0.0-5.0-3.6","207","1","2025-07-23 10:22:30","1f75c3e559b7213887762d5229550c2b","152.106.99.150","Mozilla/5.0 (Windows NT 10.0; Win64; x64) AppleWebKit/537.36 (KHTML, like Gecko) Chrome/138.0.0.0 Safari/537.36","WebKit","Chrome","138.0.0.0","Windows","10.0","https://app.prolific.com/","en-US,en;q=0.9","666408427db5e38fe0ea1736","683db9eb0562dbf637994deb","6880b3fa3274d6c5f5b34f08","2","1","666408427db5e38fe0ea1736","2","1","2025-07-23T10:29:38.204Z","","","","","","","","","","","StressQ","","50","","","","","","","","","","","","","","","","","","","","","","","","","","","","",""
"2956","","<div style=""width:500px;"">
  <p>What best describes how you currently feel?</p>
  </div>","67","html-slider-response","43","426077","0.0-5.0-4.6","207","1","2025-07-23 10:22:30","1f75c3e559b7213887762d5229550c2b","152.106.99.150","Mozilla/5.0 (Windows NT 10.0; Win64; x64) AppleWebKit/537.36 (KHTML, like Gecko) Chrome/138.0.0.0 Safari/537.36","WebKit","Chrome","138.0.0.0","Windows","10.0","https://app.prolific.com/","en-US,en;q=0.9","666408427db5e38fe0ea1736","683db9eb0562dbf637994deb","6880b3fa3274d6c5f5b34f08","2","1","666408427db5e38fe0ea1736","2","1","2025-07-23T10:29:41.165Z","","","","","","","","","","","MotivationQ","","50","","","","","","","","","","","","","","","","","","","","","","","","","","","","",""
"","","","","ctl-task-cpt","44","468730","0.0-5.0-0.7","207","1","2025-07-23 10:22:30","1f75c3e559b7213887762d5229550c2b","152.106.99.150","Mozilla/5.0 (Windows NT 10.0; Win64; x64) AppleWebKit/537.36 (KHTML, like Gecko) Chrome/138.0.0.0 Safari/537.36","WebKit","Chrome","138.0.0.0","Windows","10.0","https://app.prolific.com/","en-US,en;q=0.9","666408427db5e38fe0ea1736","683db9eb0562dbf637994deb","6880b3fa3274d6c5f5b34f08","2","1","666408427db5e38fe0ea1736","2","1","2025-07-23T10:30:23.817Z","","","","","","","","","","","","","","win-only","0","g1:NW,g2:SE","0.3","8","0","433801.7","862.7","5865.1","39626.1","1","4","4","6","2","-4","-4","0","0","0","1449.1","3000","-2100","[""down"",""right""]","{""num_key_presses"":8,""num_perfect"":3,""num_errors"":0,""num_randdir"":5,""num_randdir_good_moves"":2,""num_whilered"":0,""num_whileblue"":0,""num_blue"":2,""num_good_moves"":5}","[405.57142857142856,408.47767857142856,0,405.57142857142856,408.47767857142856,114.8,405.57142857142856,408.47767857142856,215.2,405.57142857142856,408.47767857142856,327.3,405.57142857142856,414.47767857142856,427.5,404.57142857142856,426.47767857142856,527.5,400.57142857142856,442.47767857142856,628.1,399.57142857142856,444.47767857142856,728.5,391.57142857142856,472.47767857142856,829,660.5714285714286,651.4776785714286,932.9,789.5714285714286,756.4776785714286,1033.9,790.5714285714286,757.4776785714286,1141.6,790.5714285714286,757.4776785714286,1243.6,790.5714285714286,757.4776785714286,1357.7,790.5714285714286,757.4776785714286,1466.7,790.5714285714286,757.4776785714286,1574.5,790.5714285714286,757.4776785714286,1677.8,790.5714285714286,757.4776785714286,1778.5,790.5714285714286,757.4776785714286,1885.2,790.5714285714286,757.4776785714286,1989.1,790.5714285714286,757.4776785714286,2093.8,790.5714285714286,757.4776785714286,2198.1,790.5714285714286,757.4776785714286,2299.5,790.5714285714286,757.4776785714286,2404.2,790.5714285714286,757.4776785714286,2506.8,790.5714285714286,757.4776785714286,2607.6,790.5714285714286,757.4776785714286,2707.9,790.5714285714286,757.4776785714286,2820.8,790.5714285714286,757.4776785714286,2922.9,790.5714285714286,757.4776785714286,3028.8,790.5714285714286,757.4776785714286,3134.5,790.5714285714286,757.4776785714286,3240.1,790.5714285714286,757.4776785714286,3343.2,790.5714285714286,757.4776785714286,3447.3,790.5714285714286,757.4776785714286,3551.5,790.5714285714286,757.4776785714286,3652.8,790.5714285714286,757.4776785714286,3755.5,790.5714285714286,757.4776785714286,3865.5,790.5714285714286,757.4776785714286,3966.2,790.5714285714286,757.4776785714286,4069.2,790.5714285714286,757.4776785714286,4180.8,790.5714285714286,757.4776785714286,4282.5,790.5714285714286,757.4776785714286,4383.2,790.5714285714286,757.4776785714286,4484.4,790.5714285714286,757.4776785714286,4584.6,790.5714285714286,757.4776785714286,4697.6,790.5714285714286,757.4776785714286,4800.9,790.5714285714286,757.4776785714286,4902.6]","[1509.9,1509.9,1000,0,509.9,""smooth"",""right"",""right"",""good_move"",11349.5,9839,2491.8,8427.3,430.4,""oops"",""down"",""right"",""good_move"",15350.2,4000.2,3533.3,11350,466.9,""oops"",""right"",""left"",""bad_move"",18710,3359.3,2956.2,15350.7,403.1,""smooth"",""down"",""down"",""good_move"",21509.8,2799.4,2368.8,18710.4,430.7,""oops"",""right"",""right"",""good_move"",24647.6,3137.2,2746.8,21510.5,390.3,""oops"",""down"",""left"",""bad_move"",27908.9,3260.6,2390.8,24648.3,869.8,""smooth"",""right"",""right"",""good_move"",31062.8,3153.8,2684,27909,469.8,""oops"",""right"",""up"",""bad_move""]","",""
"3881","","<div style=""width:500px;"">
  <p>What determined the result of this run?</p>
  </div>","82","html-slider-response","45","472612","0.0-5.0-1.7","207","1","2025-07-23 10:22:30","1f75c3e559b7213887762d5229550c2b","152.106.99.150","Mozilla/5.0 (Windows NT 10.0; Win64; x64) AppleWebKit/537.36 (KHTML, like Gecko) Chrome/138.0.0.0 Safari/537.36","WebKit","Chrome","138.0.0.0","Windows","10.0","https://app.prolific.com/","en-US,en;q=0.9","666408427db5e38fe0ea1736","683db9eb0562dbf637994deb","6880b3fa3274d6c5f5b34f08","2","1","666408427db5e38fe0ea1736","2","1","2025-07-23T10:30:27.699Z","","","","","","","","","","","AttribQ","","50","","","","","","","","","","","","","","","","","","","","","","","","","","","","",""
"3068","","<div style=""width:500px;"">
  <p>How much control did you have over the ball?</p>
  </div>","26","html-slider-response","46","475681","0.0-5.0-2.7","207","1","2025-07-23 10:22:30","1f75c3e559b7213887762d5229550c2b","152.106.99.150","Mozilla/5.0 (Windows NT 10.0; Win64; x64) AppleWebKit/537.36 (KHTML, like Gecko) Chrome/138.0.0.0 Safari/537.36","WebKit","Chrome","138.0.0.0","Windows","10.0","https://app.prolific.com/","en-US,en;q=0.9","666408427db5e38fe0ea1736","683db9eb0562dbf637994deb","6880b3fa3274d6c5f5b34f08","2","1","666408427db5e38fe0ea1736","2","1","2025-07-23T10:30:30.768Z","","","","","","","","","","","ControlQ","","50","","","","","","","","","","","","","","","","","","","","","","","","","","","","",""
"5314","","<div style=""width:500px;"">
  <p>How would you describe your current emotional state?</p>
  </div>","81","html-slider-response","47","480996","0.0-5.0-3.7","207","1","2025-07-23 10:22:30","1f75c3e559b7213887762d5229550c2b","152.106.99.150","Mozilla/5.0 (Windows NT 10.0; Win64; x64) AppleWebKit/537.36 (KHTML, like Gecko) Chrome/138.0.0.0 Safari/537.36","WebKit","Chrome","138.0.0.0","Windows","10.0","https://app.prolific.com/","en-US,en;q=0.9","666408427db5e38fe0ea1736","683db9eb0562dbf637994deb","6880b3fa3274d6c5f5b34f08","2","1","666408427db5e38fe0ea1736","2","1","2025-07-23T10:30:36.084Z","","","","","","","","","","","StressQ","","50","","","","","","","","","","","","","","","","","","","","","","","","","","","","",""
"3611","","<div style=""width:500px;"">
  <p>What best describes how you currently feel?</p>
  </div>","62","html-slider-response","48","484610","0.0-5.0-4.7","207","1","2025-07-23 10:22:30","1f75c3e559b7213887762d5229550c2b","152.106.99.150","Mozilla/5.0 (Windows NT 10.0; Win64; x64) AppleWebKit/537.36 (KHTML, like Gecko) Chrome/138.0.0.0 Safari/537.36","WebKit","Chrome","138.0.0.0","Windows","10.0","https://app.prolific.com/","en-US,en;q=0.9","666408427db5e38fe0ea1736","683db9eb0562dbf637994deb","6880b3fa3274d6c5f5b34f08","2","1","666408427db5e38fe0ea1736","2","1","2025-07-23T10:30:39.697Z","","","","","","","","","","","MotivationQ","","50","","","","","","","","","","","","","","","","","","","","","","","","","","","","",""
"","","","","ctl-task-cpt","49","529420","0.0-5.0-0.8","207","1","2025-07-23 10:22:30","1f75c3e559b7213887762d5229550c2b","152.106.99.150","Mozilla/5.0 (Windows NT 10.0; Win64; x64) AppleWebKit/537.36 (KHTML, like Gecko) Chrome/138.0.0.0 Safari/537.36","WebKit","Chrome","138.0.0.0","Windows","10.0","https://app.prolific.com/","en-US,en;q=0.9","666408427db5e38fe0ea1736","683db9eb0562dbf637994deb","6880b3fa3274d6c5f5b34f08","2","1","666408427db5e38fe0ea1736","2","1","2025-07-23T10:31:24.507Z","","","","","","","","","","","","","","win-only","0","g1:NW,g2:SE","0.2","9","0","492330.9","1687.6","6692.4","41799.9","1","4","8","6","2","-8","-8","0","0","0","1496.9","3000","-2040","[""down"",""right""]","{""num_key_presses"":8,""num_perfect"":2,""num_errors"":0,""num_randdir"":6,""num_randdir_good_moves"":3,""num_whilered"":0,""num_whileblue"":0,""num_blue"":2,""num_good_moves"":5}","[410.57142857142856,411.47767857142856,0.2,411.57142857142856,411.47767857142856,101,411.57142857142856,411.47767857142856,201.4,411.57142857142856,411.47767857142856,318.2,411.57142857142856,411.47767857142856,418.6,411.57142857142856,411.47767857142856,522.8,397.57142857142856,401.47767857142856,623.4,394.57142857142856,394.47767857142856,723.6,551.5714285714286,434.47767857142856,832.6,642.5714285714286,539.4776785714286,932.7,688.5714285714286,641.4776785714286,1050.9,706.5714285714286,666.4776785714286,1151.1,739.5714285714286,714.4776785714286,1253.2,775.5714285714286,765.4776785714286,1365.7,776.5714285714286,766.4776785714286,1465.8,776.5714285714286,766.4776785714286,1566.7,776.5714285714286,766.4776785714286,1681.1,776.5714285714286,766.4776785714286,1781.2,775.5714285714286,762.4776785714286,1881.4,775.5714285714286,762.4776785714286,1984.4,775.5714285714286,762.4776785714286,2090.8,775.5714285714286,762.4776785714286,2192.9,775.5714285714286,762.4776785714286,2293.8,775.5714285714286,762.4776785714286,2394.1,775.5714285714286,762.4776785714286,2511.8,775.5714285714286,762.4776785714286,2612.7,775.5714285714286,762.4776785714286,2714.5,775.5714285714286,762.4776785714286,2818.5,775.5714285714286,762.4776785714286,2923.4,775.5714285714286,762.4776785714286,3025,775.5714285714286,762.4776785714286,3144.2,775.5714285714286,762.4776785714286,3259.3,775.5714285714286,762.4776785714286,3360.4,775.5714285714286,762.4776785714286,3460.5,775.5714285714286,762.4776785714286,3564.5,775.5714285714286,762.4776785714286,3668,775.5714285714286,762.4776785714286,3768.6,775.5714285714286,762.4776785714286,3871.6,775.5714285714286,762.4776785714286,3972.7,775.5714285714286,762.4776785714286,4078.6,775.5714285714286,762.4776785714286,4184.6,775.5714285714286,762.4776785714286,4287.9,775.5714285714286,762.4776785714286,4388.3,775.5714285714286,762.4776785714286,4490,775.5714285714286,762.4776785714286,4591,775.5714285714286,762.4776785714286,4692.9,775.5714285714286,762.4776785714286,4799.9,775.5714285714286,762.4776785714286,4904]","[5336.5,5336.5,2950.5,2029.5,356.5,""oops"",""right"",""left"",""bad_move"",8975.1,3638.3,3218.4,5336.8,419.9,""oops"",""down"",""up"",""bad_move"",11778.8,2802.9,2266.2,8975.9,536.7,""smooth"",""down"",""down"",""good_move"",14393.7,2613.7,2144.1,11780,469.6,""oops"",""down"",""right"",""good_move"",21785.5,7391.4,3106.3,18224.6,454.6,""oops"",""down"",""down"",""good_move"",24632.6,2846.1,2329.9,21786.5,516.2,""oops"",""down"",""right"",""good_move"",28088.3,3455,3002.5,24633.3,452.5,""smooth"",""down"",""down"",""good_move"",31779.1,3690.5,3232.3,28088.6,458.2,""oops"",""down"",""up"",""bad_move""]","",""
"4844","","<div style=""width:500px;"">
  <p>What determined the result of this run?</p>
  </div>","8","html-slider-response","50","534266","0.0-5.0-1.8","207","1","2025-07-23 10:22:30","1f75c3e559b7213887762d5229550c2b","152.106.99.150","Mozilla/5.0 (Windows NT 10.0; Win64; x64) AppleWebKit/537.36 (KHTML, like Gecko) Chrome/138.0.0.0 Safari/537.36","WebKit","Chrome","138.0.0.0","Windows","10.0","https://app.prolific.com/","en-US,en;q=0.9","666408427db5e38fe0ea1736","683db9eb0562dbf637994deb","6880b3fa3274d6c5f5b34f08","2","1","666408427db5e38fe0ea1736","2","1","2025-07-23T10:31:29.353Z","","","","","","","","","","","AttribQ","","50","","","","","","","","","","","","","","","","","","","","","","","","","","","","",""
"3262","","<div style=""width:500px;"">
  <p>How much control did you have over the ball?</p>
  </div>","3","html-slider-response","51","537529","0.0-5.0-2.8","207","1","2025-07-23 10:22:30","1f75c3e559b7213887762d5229550c2b","152.106.99.150","Mozilla/5.0 (Windows NT 10.0; Win64; x64) AppleWebKit/537.36 (KHTML, like Gecko) Chrome/138.0.0.0 Safari/537.36","WebKit","Chrome","138.0.0.0","Windows","10.0","https://app.prolific.com/","en-US,en;q=0.9","666408427db5e38fe0ea1736","683db9eb0562dbf637994deb","6880b3fa3274d6c5f5b34f08","2","1","666408427db5e38fe0ea1736","2","1","2025-07-23T10:31:32.616Z","","","","","","","","","","","ControlQ","","50","","","","","","","","","","","","","","","","","","","","","","","","","","","","",""
"3063","","<div style=""width:500px;"">
  <p>How would you describe your current emotional state?</p>
  </div>","62","html-slider-response","52","540593","0.0-5.0-3.8","207","1","2025-07-23 10:22:30","1f75c3e559b7213887762d5229550c2b","152.106.99.150","Mozilla/5.0 (Windows NT 10.0; Win64; x64) AppleWebKit/537.36 (KHTML, like Gecko) Chrome/138.0.0.0 Safari/537.36","WebKit","Chrome","138.0.0.0","Windows","10.0","https://app.prolific.com/","en-US,en;q=0.9","666408427db5e38fe0ea1736","683db9eb0562dbf637994deb","6880b3fa3274d6c5f5b34f08","2","1","666408427db5e38fe0ea1736","2","1","2025-07-23T10:31:35.681Z","","","","","","","","","","","StressQ","","50","","","","","","","","","","","","","","","","","","","","","","","","","","","","",""
"4394","","<div style=""width:500px;"">
  <p>What best describes how you currently feel?</p>
  </div>","60","html-slider-response","53","544990","0.0-5.0-4.8","207","1","2025-07-23 10:22:30","1f75c3e559b7213887762d5229550c2b","152.106.99.150","Mozilla/5.0 (Windows NT 10.0; Win64; x64) AppleWebKit/537.36 (KHTML, like Gecko) Chrome/138.0.0.0 Safari/537.36","WebKit","Chrome","138.0.0.0","Windows","10.0","https://app.prolific.com/","en-US,en;q=0.9","666408427db5e38fe0ea1736","683db9eb0562dbf637994deb","6880b3fa3274d6c5f5b34f08","2","1","666408427db5e38fe0ea1736","2","1","2025-07-23T10:31:40.077Z","","","","","","","","","","","MotivationQ","","50","","","","","","","","","","","","","","","","","","","","","","","","","","","","",""
"","","","","ctl-task-cpt","54","590755","0.0-5.0-0.9","207","1","2025-07-23 10:22:30","1f75c3e559b7213887762d5229550c2b","152.106.99.150","Mozilla/5.0 (Windows NT 10.0; Win64; x64) AppleWebKit/537.36 (KHTML, like Gecko) Chrome/138.0.0.0 Safari/537.36","WebKit","Chrome","138.0.0.0","Windows","10.0","https://app.prolific.com/","en-US,en;q=0.9","666408427db5e38fe0ea1736","683db9eb0562dbf637994deb","6880b3fa3274d6c5f5b34f08","2","1","666408427db5e38fe0ea1736","2","1","2025-07-23T10:32:25.842Z","","","","","","","","","","","","","","win-only","1","g1:NE,g2:SW","0.4","10","0","552711.7","2076.8","7081.4","42734.3","1","4","4","6","2","-4","-4","0","0","0","1353","3000","-1950","[""down"",""left""]","{""num_key_presses"":8,""num_perfect"":4,""num_errors"":0,""num_randdir"":4,""num_randdir_good_moves"":0,""num_whilered"":0,""num_whileblue"":0,""num_blue"":3,""num_good_moves"":4}","[423.57142857142856,414.47767857142856,0.3,423.57142857142856,414.47767857142856,103.4,423.57142857142856,414.47767857142856,204.2,423.57142857142856,414.47767857142856,317.1,423.57142857142856,414.47767857142856,422.9,423.57142857142856,414.47767857142856,527.6,425.57142857142856,418.47767857142856,635,76.57142857142857,683.4776785714286,739.5,-71.42857142857143,822.4776785714286,853.1,-81.42857142857143,834.4776785714286,955.5,-60.42857142857143,826.4776785714286,1056.4,-0.4285714285714306,803.4776785714286,1160.3,24.57142857142857,794.4776785714286,1260.9,26.57142857142857,792.4776785714286,1361.7,26.57142857142857,792.4776785714286,1462.4,26.57142857142857,792.4776785714286,1571.4,26.57142857142857,792.4776785714286,1680.1,26.57142857142857,792.4776785714286,1785.5,27.57142857142857,789.4776785714286,1891.6,27.57142857142857,788.4776785714286,1992.6,27.57142857142857,788.4776785714286,2093.9,27.57142857142857,788.4776785714286,2199.9,27.57142857142857,788.4776785714286,2314.1,27.57142857142857,788.4776785714286,2415.4,27.57142857142857,788.4776785714286,2531.8,27.57142857142857,788.4776785714286,2634,27.57142857142857,788.4776785714286,2741.9,27.57142857142857,788.4776785714286,2844.2,27.57142857142857,788.4776785714286,2956.9,27.57142857142857,788.4776785714286,3058.5,27.57142857142857,788.4776785714286,3158.8,27.57142857142857,788.4776785714286,3260.7,27.57142857142857,788.4776785714286,3364.1,27.57142857142857,788.4776785714286,3466.4,27.57142857142857,788.4776785714286,3573,27.57142857142857,788.4776785714286,3677.4,27.57142857142857,788.4776785714286,3786.6,27.57142857142857,788.4776785714286,3888.7,27.57142857142857,788.4776785714286,3991,27.57142857142857,788.4776785714286,4094.9,27.57142857142857,788.4776785714286,4205.2,27.57142857142857,788.4776785714286,4310.2,27.57142857142857,788.4776785714286,4420.2,33.57142857142857,783.4776785714286,4526.2,38.57142857142857,780.4776785714286,4634.4,42.57142857142857,778.4776785714286,4736.4,74.57142857142857,767.4776785714286,4846.9,154.57142857142856,754.4776785714286,4955.1]","[1592,1592,1000,0,592,""smooth"",""down"",""down"",""good_move"",7913.6,6321.2,2912.8,4522.7,478.1,""oops"",""down"",""up"",""bad_move"",11354.7,3440.7,3036,7914,404.7,""oops"",""down"",""up"",""bad_move"",18567.2,7212.2,2454.9,15568.1,544.2,""smooth"",""down"",""down"",""good_move"",21227.3,2659.8,2151.4,18567.6,508.3,""smooth"",""down"",""down"",""good_move"",27307.2,6078.9,2016.5,24815.2,475.5,""oops"",""down"",""up"",""bad_move"",30200.2,2892,2314.2,27308.3,577.8,""oops"",""down"",""up"",""bad_move"",33064.7,2863.5,2178,30201.2,685.6,""smooth"",""down"",""down"",""good_move""]","",""
"4192","","<div style=""width:500px;"">
  <p>What determined the result of this run?</p>
  </div>","92","html-slider-response","55","594948","0.0-5.0-1.9","207","1","2025-07-23 10:22:30","1f75c3e559b7213887762d5229550c2b","152.106.99.150","Mozilla/5.0 (Windows NT 10.0; Win64; x64) AppleWebKit/537.36 (KHTML, like Gecko) Chrome/138.0.0.0 Safari/537.36","WebKit","Chrome","138.0.0.0","Windows","10.0","https://app.prolific.com/","en-US,en;q=0.9","666408427db5e38fe0ea1736","683db9eb0562dbf637994deb","6880b3fa3274d6c5f5b34f08","2","1","666408427db5e38fe0ea1736","2","1","2025-07-23T10:32:30.035Z","","","","","","","","","","","AttribQ","","50","","","","","","","","","","","","","","","","","","","","","","","","","","","","",""
"5091","","<div style=""width:500px;"">
  <p>How much control did you have over the ball?</p>
  </div>","81","html-slider-response","56","600041","0.0-5.0-2.9","207","1","2025-07-23 10:22:30","1f75c3e559b7213887762d5229550c2b","152.106.99.150","Mozilla/5.0 (Windows NT 10.0; Win64; x64) AppleWebKit/537.36 (KHTML, like Gecko) Chrome/138.0.0.0 Safari/537.36","WebKit","Chrome","138.0.0.0","Windows","10.0","https://app.prolific.com/","en-US,en;q=0.9","666408427db5e38fe0ea1736","683db9eb0562dbf637994deb","6880b3fa3274d6c5f5b34f08","2","1","666408427db5e38fe0ea1736","2","1","2025-07-23T10:32:35.128Z","","","","","","","","","","","ControlQ","","50","","","","","","","","","","","","","","","","","","","","","","","","","","","","",""
"3226","","<div style=""width:500px;"">
  <p>How would you describe your current emotional state?</p>
  </div>","9","html-slider-response","57","603267","0.0-5.0-3.9","207","1","2025-07-23 10:22:30","1f75c3e559b7213887762d5229550c2b","152.106.99.150","Mozilla/5.0 (Windows NT 10.0; Win64; x64) AppleWebKit/537.36 (KHTML, like Gecko) Chrome/138.0.0.0 Safari/537.36","WebKit","Chrome","138.0.0.0","Windows","10.0","https://app.prolific.com/","en-US,en;q=0.9","666408427db5e38fe0ea1736","683db9eb0562dbf637994deb","6880b3fa3274d6c5f5b34f08","2","1","666408427db5e38fe0ea1736","2","1","2025-07-23T10:32:38.355Z","","","","","","","","","","","StressQ","","50","","","","","","","","","","","","","","","","","","","","","","","","","","","","",""
"2945","","<div style=""width:500px;"">
  <p>What best describes how you currently feel?</p>
  </div>","91","html-slider-response","58","606214","0.0-5.0-4.9","207","1","2025-07-23 10:22:30","1f75c3e559b7213887762d5229550c2b","152.106.99.150","Mozilla/5.0 (Windows NT 10.0; Win64; x64) AppleWebKit/537.36 (KHTML, like Gecko) Chrome/138.0.0.0 Safari/537.36","WebKit","Chrome","138.0.0.0","Windows","10.0","https://app.prolific.com/","en-US,en;q=0.9","666408427db5e38fe0ea1736","683db9eb0562dbf637994deb","6880b3fa3274d6c5f5b34f08","2","1","666408427db5e38fe0ea1736","2","1","2025-07-23T10:32:41.301Z","","","","","","","","","","","MotivationQ","","50","","","","","","","","","","","","","","","","","","","","","","","","","","","","",""
"","","","","ctl-task-cpt","59","646372","0.0-5.0-0.10","207","1","2025-07-23 10:22:30","1f75c3e559b7213887762d5229550c2b","152.106.99.150","Mozilla/5.0 (Windows NT 10.0; Win64; x64) AppleWebKit/537.36 (KHTML, like Gecko) Chrome/138.0.0.0 Safari/537.36","WebKit","Chrome","138.0.0.0","Windows","10.0","https://app.prolific.com/","en-US,en;q=0.9","666408427db5e38fe0ea1736","683db9eb0562dbf637994deb","6880b3fa3274d6c5f5b34f08","2","1","666408427db5e38fe0ea1736","2","1","2025-07-23T10:33:21.460Z","","","","","","","","","","","","","","win-only","0","g1:NW,g2:SE","0.5","11","0","613935.2","1306.4","6309","37145.3","1","4","8","6","2","-8","-8","0","0","0","1345.6","3000","-1945","[""down"",""right""]","{""num_key_presses"":9,""num_perfect"":5,""num_errors"":0,""num_randdir"":4,""num_randdir_good_moves"":1,""num_whilered"":0,""num_whileblue"":0,""num_blue"":1,""num_good_moves"":6}","[417.57142857142856,413.47767857142856,0.9,417.57142857142856,413.47767857142856,101.8,417.57142857142856,413.47767857142856,203.7,417.57142857142856,413.47767857142856,307.2,417.57142857142856,413.47767857142856,425.3,399.57142857142856,452.47767857142856,530.8,412.57142857142856,474.47767857142856,637.1,548.5714285714286,544.4776785714286,740.2,618.5714285714286,650.4776785714286,853.6,655.5714285714286,710.4776785714286,953.8,675.5714285714286,731.4776785714286,1060.8,721.5714285714286,761.4776785714286,1167.3,742.5714285714286,771.4776785714286,1275.2,743.5714285714286,771.4776785714286,1376.1,743.5714285714286,771.4776785714286,1480.5,743.5714285714286,771.4776785714286,1580.9,743.5714285714286,771.4776785714286,1685.1,743.5714285714286,771.4776785714286,1799.8,743.5714285714286,771.4776785714286,1904.2,743.5714285714286,771.4776785714286,2004.3,743.5714285714286,771.4776785714286,2119.8,743.5714285714286,771.4776785714286,2220.1,743.5714285714286,771.4776785714286,2326.1,743.5714285714286,771.4776785714286,2430.7,743.5714285714286,771.4776785714286,2544.7,743.5714285714286,771.4776785714286,2647.8,743.5714285714286,771.4776785714286,2750.8,743.5714285714286,771.4776785714286,2864.9,743.5714285714286,771.4776785714286,2973.8,743.5714285714286,771.4776785714286,3075.7,743.5714285714286,771.4776785714286,3179,743.5714285714286,771.4776785714286,3280.7,743.5714285714286,771.4776785714286,3389.6,743.5714285714286,771.4776785714286,3489.7,743.5714285714286,771.4776785714286,3594.5,743.5714285714286,771.4776785714286,3697.7,743.5714285714286,771.4776785714286,3800.6,743.5714285714286,771.4776785714286,3901.2,743.5714285714286,771.4776785714286,4003.1,743.5714285714286,771.4776785714286,4106.7,743.5714285714286,771.4776785714286,4209.8,743.5714285714286,771.4776785714286,4310.6,743.5714285714286,771.4776785714286,4415.8,743.5714285714286,771.4776785714286,4525.6,743.5714285714286,771.4776785714286,4631.7,743.5714285714286,771.4776785714286,4738.5,743.5714285714286,771.4776785714286,4840,743.5714285714286,771.4776785714286,4951.3]","[5270.5,5270.6,2717.5,2003.9,549.2,""oops"",""right"",""left"",""bad_move"",7925.1,2653.1,2163.3,5272,489.8,""smooth"",""down"",""down"",""good_move"",11094.4,3168.4,2702.1,7926,466.3,""smooth"",""down"",""down"",""good_move"",13398,2303.2,1886.9,11094.8,416.3,""oops"",""right"",""left"",""bad_move"",15780.3,2381,1852.5,13399.3,528.5,""smooth"",""right"",""right"",""good_move"",18566.1,2785.3,2412,15780.8,373.3,""smooth"",""right"",""right"",""good_move"",21691,3124.8,2650.3,18566.3,474.5,""oops"",""right"",""down"",""good_move"",24756,3064.1,2592.8,21692,471.2,""oops"",""right"",""left"",""bad_move"",28280.2,3523.7,2945.7,24756.5,578,""smooth"",""right"",""right"",""good_move""]","",""
"3541","","<div style=""width:500px;"">
  <p>What determined the result of this run?</p>
  </div>","22","html-slider-response","60","649915","0.0-5.0-1.10","207","1","2025-07-23 10:22:30","1f75c3e559b7213887762d5229550c2b","152.106.99.150","Mozilla/5.0 (Windows NT 10.0; Win64; x64) AppleWebKit/537.36 (KHTML, like Gecko) Chrome/138.0.0.0 Safari/537.36","WebKit","Chrome","138.0.0.0","Windows","10.0","https://app.prolific.com/","en-US,en;q=0.9","666408427db5e38fe0ea1736","683db9eb0562dbf637994deb","6880b3fa3274d6c5f5b34f08","2","1","666408427db5e38fe0ea1736","2","1","2025-07-23T10:33:25.002Z","","","","","","","","","","","AttribQ","","50","","","","","","","","","","","","","","","","","","","","","","","","","","","","",""
"3957","","<div style=""width:500px;"">
  <p>How much control did you have over the ball?</p>
  </div>","42","html-slider-response","61","653873","0.0-5.0-2.10","207","1","2025-07-23 10:22:30","1f75c3e559b7213887762d5229550c2b","152.106.99.150","Mozilla/5.0 (Windows NT 10.0; Win64; x64) AppleWebKit/537.36 (KHTML, like Gecko) Chrome/138.0.0.0 Safari/537.36","WebKit","Chrome","138.0.0.0","Windows","10.0","https://app.prolific.com/","en-US,en;q=0.9","666408427db5e38fe0ea1736","683db9eb0562dbf637994deb","6880b3fa3274d6c5f5b34f08","2","1","666408427db5e38fe0ea1736","2","1","2025-07-23T10:33:28.961Z","","","","","","","","","","","ControlQ","","50","","","","","","","","","","","","","","","","","","","","","","","","","","","","",""
"3356","","<div style=""width:500px;"">
  <p>How would you describe your current emotional state?</p>
  </div>","32","html-slider-response","62","657233","0.0-5.0-3.10","207","1","2025-07-23 10:22:30","1f75c3e559b7213887762d5229550c2b","152.106.99.150","Mozilla/5.0 (Windows NT 10.0; Win64; x64) AppleWebKit/537.36 (KHTML, like Gecko) Chrome/138.0.0.0 Safari/537.36","WebKit","Chrome","138.0.0.0","Windows","10.0","https://app.prolific.com/","en-US,en;q=0.9","666408427db5e38fe0ea1736","683db9eb0562dbf637994deb","6880b3fa3274d6c5f5b34f08","2","1","666408427db5e38fe0ea1736","2","1","2025-07-23T10:33:32.321Z","","","","","","","","","","","StressQ","","50","","","","","","","","","","","","","","","","","","","","","","","","","","","","",""
"2452","","<div style=""width:500px;"">
  <p>What best describes how you currently feel?</p>
  </div>","74","html-slider-response","63","659689","0.0-5.0-4.10","207","1","2025-07-23 10:22:30","1f75c3e559b7213887762d5229550c2b","152.106.99.150","Mozilla/5.0 (Windows NT 10.0; Win64; x64) AppleWebKit/537.36 (KHTML, like Gecko) Chrome/138.0.0.0 Safari/537.36","WebKit","Chrome","138.0.0.0","Windows","10.0","https://app.prolific.com/","en-US,en;q=0.9","666408427db5e38fe0ea1736","683db9eb0562dbf637994deb","6880b3fa3274d6c5f5b34f08","2","1","666408427db5e38fe0ea1736","2","1","2025-07-23T10:33:34.776Z","","","","","","","","","","","MotivationQ","","50","","","","","","","","","","","","","","","","","","","","","","","","","","","","",""
"","","","","ctl-task-cpt","64","705895","0.0-5.0-0.11","207","1","2025-07-23 10:22:30","1f75c3e559b7213887762d5229550c2b","152.106.99.150","Mozilla/5.0 (Windows NT 10.0; Win64; x64) AppleWebKit/537.36 (KHTML, like Gecko) Chrome/138.0.0.0 Safari/537.36","WebKit","Chrome","138.0.0.0","Windows","10.0","https://app.prolific.com/","en-US,en;q=0.9","666408427db5e38fe0ea1736","683db9eb0562dbf637994deb","6880b3fa3274d6c5f5b34f08","2","1","666408427db5e38fe0ea1736","2","1","2025-07-23T10:34:20.983Z","","","","","","","","","","","","","","win-only","0","g1:NW,g2:SE","0.6","12","0","667415.7","1010.6","6012.7","43191.6","1","4","4","6","2","-4","-5","0","0","0","1244.1","3000","-1925","[""down"",""right""]","{""num_key_presses"":8,""num_perfect"":4,""num_errors"":1,""num_randdir"":3,""num_randdir_good_moves"":1,""num_whilered"":0,""num_whileblue"":1,""num_blue"":4,""num_good_moves"":6}","[426.57142857142856,414.47767857142856,0.5,426.57142857142856,414.47767857142856,111.7,426.57142857142856,414.47767857142856,212.5,426.57142857142856,414.47767857142856,317.7,430.57142857142856,427.47767857142856,425.4,446.57142857142856,447.47767857142856,532.1,619.5714285714286,486.47767857142856,642.9,717.5714285714286,569.4776785714286,743.8,779.5714285714286,690.4776785714286,847.5,781.5714285714286,735.4776785714286,948.9,783.5714285714286,768.4776785714286,1054.5,783.5714285714286,769.4776785714286,1154.6,783.5714285714286,769.4776785714286,1260.8,783.5714285714286,769.4776785714286,1368.2,783.5714285714286,769.4776785714286,1475,783.5714285714286,769.4776785714286,1584.8,783.5714285714286,769.4776785714286,1694,783.5714285714286,769.4776785714286,1796.1,783.5714285714286,769.4776785714286,1907.4,783.5714285714286,769.4776785714286,2027.9,783.5714285714286,769.4776785714286,2131.2,783.5714285714286,769.4776785714286,2233.1,783.5714285714286,769.4776785714286,2339.9,783.5714285714286,769.4776785714286,2450.9,703.5714285714286,758.4776785714286,2551.2,681.5714285714286,758.4776785714286,2652,681.5714285714286,758.4776785714286,2752.8,681.5714285714286,758.4776785714286,2856.6,681.5714285714286,758.4776785714286,2962.4,681.5714285714286,758.4776785714286,3069.4,681.5714285714286,758.4776785714286,3171.4,681.5714285714286,758.4776785714286,3287.7,681.5714285714286,758.4776785714286,3390.3,681.5714285714286,758.4776785714286,3493.9,681.5714285714286,758.4776785714286,3604.8,681.5714285714286,758.4776785714286,3713.1,681.5714285714286,758.4776785714286,3816.9,681.5714285714286,758.4776785714286,3918.5,681.5714285714286,758.4776785714286,4028.5,681.5714285714286,758.4776785714286,4131.5,681.5714285714286,758.4776785714286,4235.6,681.5714285714286,758.4776785714286,4340.6,681.5714285714286,758.4776785714286,4440.7,681.5714285714286,758.4776785714286,4553.9,681.5714285714286,758.4776785714286,4673.9,681.5714285714286,758.4776785714286,4786,681.5714285714286,758.4776785714286,4886.7,681.5714285714286,758.4776785714286,4999.1]","[1495.9,1495.9,1000,0,495.9,""smooth"",""down"",""down"",""good_move"",4387.9,2891.5,2272.8,1496.4,618.7,""smooth"",""right"",""right"",""good_move"",8423.9,4035.7,3278,4388.2,757.7,""oops"",""right"",""up"",""bad_move"",11860.9,3435.6,2636.3,8425.3,799.3,""oops"",""down"",""down"",""good_move"",14711.1,2848.5,2166.9,11862.7,681.5,""oops"",""down"",""left"",""bad_move"",17509.8,2797.7,2049.3,14712.1,748.4,""smooth"",""down"",""down"",""good_move"",27370.1,9860.1,2528.1,24455.9,386.1,""smooth"",""right"",""right"",""good_move"",30724,3353.4,2517.9,27370.7,835.4,""while_blue"",""right"",""down"",""good_move""]","",""
"3860","","<div style=""width:500px;"">
  <p>What determined the result of this run?</p>
  </div>","98","html-slider-response","65","709758","0.0-5.0-1.11","207","1","2025-07-23 10:22:30","1f75c3e559b7213887762d5229550c2b","152.106.99.150","Mozilla/5.0 (Windows NT 10.0; Win64; x64) AppleWebKit/537.36 (KHTML, like Gecko) Chrome/138.0.0.0 Safari/537.36","WebKit","Chrome","138.0.0.0","Windows","10.0","https://app.prolific.com/","en-US,en;q=0.9","666408427db5e38fe0ea1736","683db9eb0562dbf637994deb","6880b3fa3274d6c5f5b34f08","2","1","666408427db5e38fe0ea1736","2","1","2025-07-23T10:34:24.845Z","","","","","","","","","","","AttribQ","","50","","","","","","","","","","","","","","","","","","","","","","","","","","","","",""
"4276","","<div style=""width:500px;"">
  <p>How much control did you have over the ball?</p>
  </div>","27","html-slider-response","66","714035","0.0-5.0-2.11","207","1","2025-07-23 10:22:30","1f75c3e559b7213887762d5229550c2b","152.106.99.150","Mozilla/5.0 (Windows NT 10.0; Win64; x64) AppleWebKit/537.36 (KHTML, like Gecko) Chrome/138.0.0.0 Safari/537.36","WebKit","Chrome","138.0.0.0","Windows","10.0","https://app.prolific.com/","en-US,en;q=0.9","666408427db5e38fe0ea1736","683db9eb0562dbf637994deb","6880b3fa3274d6c5f5b34f08","2","1","666408427db5e38fe0ea1736","2","1","2025-07-23T10:34:29.122Z","","","","","","","","","","","ControlQ","","50","","","","","","","","","","","","","","","","","","","","","","","","","","","","",""
"3382","","<div style=""width:500px;"">
  <p>How would you describe your current emotional state?</p>
  </div>","26","html-slider-response","67","717418","0.0-5.0-3.11","207","1","2025-07-23 10:22:30","1f75c3e559b7213887762d5229550c2b","152.106.99.150","Mozilla/5.0 (Windows NT 10.0; Win64; x64) AppleWebKit/537.36 (KHTML, like Gecko) Chrome/138.0.0.0 Safari/537.36","WebKit","Chrome","138.0.0.0","Windows","10.0","https://app.prolific.com/","en-US,en;q=0.9","666408427db5e38fe0ea1736","683db9eb0562dbf637994deb","6880b3fa3274d6c5f5b34f08","2","1","666408427db5e38fe0ea1736","2","1","2025-07-23T10:34:32.505Z","","","","","","","","","","","StressQ","","50","","","","","","","","","","","","","","","","","","","","","","","","","","","","",""
"5286","","<div style=""width:500px;"">
  <p>What best describes how you currently feel?</p>
  </div>","66","html-slider-response","68","722706","0.0-5.0-4.11","207","1","2025-07-23 10:22:30","1f75c3e559b7213887762d5229550c2b","152.106.99.150","Mozilla/5.0 (Windows NT 10.0; Win64; x64) AppleWebKit/537.36 (KHTML, like Gecko) Chrome/138.0.0.0 Safari/537.36","WebKit","Chrome","138.0.0.0","Windows","10.0","https://app.prolific.com/","en-US,en;q=0.9","666408427db5e38fe0ea1736","683db9eb0562dbf637994deb","6880b3fa3274d6c5f5b34f08","2","1","666408427db5e38fe0ea1736","2","1","2025-07-23T10:34:37.793Z","","","","","","","","","","","MotivationQ","","50","","","","","","","","","","","","","","","","","","","","","","","","","","","","",""
"","","","","ctl-task-cpt","69","751192","0.0-5.0-0.12","207","1","2025-07-23 10:22:30","1f75c3e559b7213887762d5229550c2b","152.106.99.150","Mozilla/5.0 (Windows NT 10.0; Win64; x64) AppleWebKit/537.36 (KHTML, like Gecko) Chrome/138.0.0.0 Safari/537.36","WebKit","Chrome","138.0.0.0","Windows","10.0","https://app.prolific.com/","en-US,en;q=0.9","666408427db5e38fe0ea1736","683db9eb0562dbf637994deb","6880b3fa3274d6c5f5b34f08","2","1","666408427db5e38fe0ea1736","2","1","2025-07-23T10:35:06.279Z","","","","","","","","","","","","","","win-only","2","g1:SE,g2:NW","0.7","13","0","730430.9","1485.9","6495.1","25457.6","1","4","4","6","2","4","4","4","0","0.030303030303030304","2328.2","3000","1135","[""left"",""up""]","{""num_key_presses"":6,""num_perfect"":5,""num_errors"":0,""num_randdir"":1,""num_randdir_good_moves"":1,""num_whilered"":0,""num_whileblue"":0,""num_blue"":1,""num_good_moves"":6}","[410.57142857142856,422.47767857142856,0.4,410.57142857142856,422.47767857142856,105.7,410.57142857142856,422.47767857142856,206.2,410.57142857142856,422.47767857142856,320.5,410.57142857142856,423.47767857142856,439.1,422.57142857142856,445.47767857142856,539.6,480.57142857142856,533.4776785714286,647.9,652.5714285714286,713.4776785714286,751.9,715.5714285714286,741.4776785714286,855.1,715.5714285714286,741.4776785714286,957.3,715.5714285714286,741.4776785714286,1068.9,657.5714285714286,654.4776785714286,1174.5,641.5714285714286,639.4776785714286,1280.4,659.5714285714286,680.4776785714286,1385.8,692.5714285714286,720.4776785714286,1488.5,700.5714285714286,718.4776785714286,1598.7,336.57142857142856,319.47767857142856,1703.6,69.57142857142857,59.47767857142857,1804.9,45.57142857142857,26.47767857142857,1914.4,44.57142857142857,25.47767857142857,2016.8,72.57142857142857,55.47767857142857,2119.3,73.57142857142857,57.47767857142857,2220.2,73.57142857142857,57.47767857142857,2331.1,73.57142857142857,57.47767857142857,2440.6,73.57142857142857,57.47767857142857,2546.2,73.57142857142857,57.47767857142857,2646.4,73.57142857142857,57.47767857142857,2755.4,73.57142857142857,57.47767857142857,2857.5,73.57142857142857,57.47767857142857,2964.5,73.57142857142857,57.47767857142857,3079.3,73.57142857142857,57.47767857142857,3181.4,73.57142857142857,57.47767857142857,3290.6,73.57142857142857,57.47767857142857,3395.1,73.57142857142857,57.47767857142857,3497.5,73.57142857142857,57.47767857142857,3601.1,73.57142857142857,57.47767857142857,3711.9,73.57142857142857,57.47767857142857,3819.6,73.57142857142857,57.47767857142857,3927.9,73.57142857142857,57.47767857142857,4036.1,73.57142857142857,57.47767857142857,4142.5,73.57142857142857,57.47767857142857,4244.1,73.57142857142857,57.47767857142857,4350.4,73.57142857142857,57.47767857142857,4463,73.57142857142857,57.47767857142857,4567.4,73.57142857142857,57.47767857142857,4681.2,73.57142857142857,57.47767857142857,4782.3,73.57142857142857,57.47767857142857,4888.1]","[1819.3,1819.3,1000,0,819.3,""oops"",""left"",""left"",""good_move"",4508.7,2689,2234.8,1819.8,454.1,""smooth"",""up"",""up"",""good_move"",7289.6,2779.9,2329.1,4509.8,450.7,""smooth"",""left"",""left"",""good_move"",13541.3,6251.5,2537.6,10518.4,485.3,""smooth"",""up"",""up"",""good_move"",16396.4,2854.4,2233.8,13542.2,620.4,""smooth"",""left"",""left"",""good_move"",18827.8,2430.3,1999.3,16397.5,431,""smooth"",""up"",""up"",""good_move""]","",""
"5994","","<div style=""width:500px;"">
  <p>What determined the result of this run?</p>
  </div>","81","html-slider-response","70","757189","0.0-5.0-1.12","207","1","2025-07-23 10:22:30","1f75c3e559b7213887762d5229550c2b","152.106.99.150","Mozilla/5.0 (Windows NT 10.0; Win64; x64) AppleWebKit/537.36 (KHTML, like Gecko) Chrome/138.0.0.0 Safari/537.36","WebKit","Chrome","138.0.0.0","Windows","10.0","https://app.prolific.com/","en-US,en;q=0.9","666408427db5e38fe0ea1736","683db9eb0562dbf637994deb","6880b3fa3274d6c5f5b34f08","2","1","666408427db5e38fe0ea1736","2","1","2025-07-23T10:35:12.277Z","","","","","","","","","","","AttribQ","","50","","","","","","","","","","","","","","","","","","","","","","","","","","","","",""
"3026","","<div style=""width:500px;"">
  <p>How much control did you have over the ball?</p>
  </div>","24","html-slider-response","71","760217","0.0-5.0-2.12","207","1","2025-07-23 10:22:30","1f75c3e559b7213887762d5229550c2b","152.106.99.150","Mozilla/5.0 (Windows NT 10.0; Win64; x64) AppleWebKit/537.36 (KHTML, like Gecko) Chrome/138.0.0.0 Safari/537.36","WebKit","Chrome","138.0.0.0","Windows","10.0","https://app.prolific.com/","en-US,en;q=0.9","666408427db5e38fe0ea1736","683db9eb0562dbf637994deb","6880b3fa3274d6c5f5b34f08","2","1","666408427db5e38fe0ea1736","2","1","2025-07-23T10:35:15.304Z","","","","","","","","","","","ControlQ","","50","","","","","","","","","","","","","","","","","","","","","","","","","","","","",""
"3024","","<div style=""width:500px;"">
  <p>How would you describe your current emotional state?</p>
  </div>","16","html-slider-response","72","763242","0.0-5.0-3.12","207","1","2025-07-23 10:22:30","1f75c3e559b7213887762d5229550c2b","152.106.99.150","Mozilla/5.0 (Windows NT 10.0; Win64; x64) AppleWebKit/537.36 (KHTML, like Gecko) Chrome/138.0.0.0 Safari/537.36","WebKit","Chrome","138.0.0.0","Windows","10.0","https://app.prolific.com/","en-US,en;q=0.9","666408427db5e38fe0ea1736","683db9eb0562dbf637994deb","6880b3fa3274d6c5f5b34f08","2","1","666408427db5e38fe0ea1736","2","1","2025-07-23T10:35:18.330Z","","","","","","","","","","","StressQ","","50","","","","","","","","","","","","","","","","","","","","","","","","","","","","",""
"4490","","<div style=""width:500px;"">
  <p>What best describes how you currently feel?</p>
  </div>","87","html-slider-response","73","767736","0.0-5.0-4.12","207","1","2025-07-23 10:22:30","1f75c3e559b7213887762d5229550c2b","152.106.99.150","Mozilla/5.0 (Windows NT 10.0; Win64; x64) AppleWebKit/537.36 (KHTML, like Gecko) Chrome/138.0.0.0 Safari/537.36","WebKit","Chrome","138.0.0.0","Windows","10.0","https://app.prolific.com/","en-US,en;q=0.9","666408427db5e38fe0ea1736","683db9eb0562dbf637994deb","6880b3fa3274d6c5f5b34f08","2","1","666408427db5e38fe0ea1736","2","1","2025-07-23T10:35:22.823Z","","","","","","","","","","","MotivationQ","","50","","","","","","","","","","","","","","","","","","","","","","","","","","","","",""
"","","","","ctl-task-cpt","74","798554","0.0-5.0-0.13","207","1","2025-07-23 10:22:30","1f75c3e559b7213887762d5229550c2b","152.106.99.150","Mozilla/5.0 (Windows NT 10.0; Win64; x64) AppleWebKit/537.36 (KHTML, like Gecko) Chrome/138.0.0.0 Safari/537.36","WebKit","Chrome","138.0.0.0","Windows","10.0","https://app.prolific.com/","en-US,en;q=0.9","666408427db5e38fe0ea1736","683db9eb0562dbf637994deb","6880b3fa3274d6c5f5b34f08","2","1","666408427db5e38fe0ea1736","2","1","2025-07-23T10:35:53.641Z","","","","","","","","","","","","","","win-only","2","g1:SE,g2:NW","0.8","14","0","775459.5","2040.9","7055.5","27793.3","1","4","8","6","2","8","8","12","4","0.09090909090909091","1239.7","3000","1460","[""left"",""up""]","{""num_key_presses"":6,""num_perfect"":4,""num_errors"":0,""num_randdir"":2,""num_randdir_good_moves"":2,""num_whilered"":0,""num_whileblue"":0,""num_blue"":1,""num_good_moves"":6}","[415.57142857142856,421.47767857142856,0.4,415.57142857142856,421.47767857142856,100.2,415.57142857142856,421.47767857142856,200.5,415.57142857142856,421.47767857142856,313.8,415.57142857142856,421.47767857142856,428.8,411.57142857142856,447.47767857142856,532.9,413.57142857142856,463.47767857142856,635,409.57142857142856,466.47767857142856,735.3,184.57142857142856,231.47767857142856,838.5,126.57142857142857,151.47767857142856,939.6,114.57142857142857,139.47767857142856,1044,104.57142857142857,129.47767857142856,1146.2,104.57142857142857,128.47767857142856,1248.7,104.57142857142857,128.47767857142856,1350.5,104.57142857142857,128.47767857142856,1453.4,104.57142857142857,128.47767857142856,1554.9,104.57142857142857,128.47767857142856,1657.1,104.57142857142857,128.47767857142856,1759.1,104.57142857142857,128.47767857142856,1863.8,104.57142857142857,128.47767857142856,1965.6,104.57142857142857,128.47767857142856,2068.2,104.57142857142857,128.47767857142856,2171.1,104.57142857142857,128.47767857142856,2273.6,104.57142857142857,128.47767857142856,2391.8,104.57142857142857,128.47767857142856,2494.5,104.57142857142857,128.47767857142856,2594.9,104.57142857142857,128.47767857142856,2710.8,104.57142857142857,128.47767857142856,2814.8,104.57142857142857,128.47767857142856,2915.9,104.57142857142857,128.47767857142856,3021.7,104.57142857142857,128.47767857142856,3122,104.57142857142857,128.47767857142856,3226.3,104.57142857142857,128.47767857142856,3332.9,104.57142857142857,128.47767857142856,3440.3,104.57142857142857,128.47767857142856,3551.8,104.57142857142857,128.47767857142856,3660.1,104.57142857142857,128.47767857142856,3762.6,104.57142857142857,128.47767857142856,3864.5,104.57142857142857,128.47767857142856,3968.7,104.57142857142857,128.47767857142856,4072.6,104.57142857142857,128.47767857142856,4173,104.57142857142857,128.47767857142856,4288.2,104.57142857142857,128.47767857142856,4389.2,104.57142857142857,128.47767857142856,4491.7,104.57142857142857,128.47767857142856,4596.4,104.57142857142857,128.47767857142856,4711,104.57142857142857,128.47767857142856,4813.8,104.57142857142857,128.47767857142856,4915.7]","[1481.3,1481.3,1000,0,481.3,""smooth"",""left"",""left"",""good_move"",4909.3,3427.4,2944.1,1482,483.3,""smooth"",""up"",""up"",""good_move"",7914.7,3004.9,2528.7,4909.8,476.2,""oops"",""up"",""left"",""good_move"",11120.8,3205.9,2728.1,7914.9,477.8,""smooth"",""left"",""left"",""good_move"",14090.1,2968.9,2562,11121.3,406.8,""oops"",""up"",""up"",""good_move"",20582.2,6491.4,2917.5,17209.5,455.3,""smooth"",""up"",""up"",""good_move""]","",""
"4740","","<div style=""width:500px;"">
  <p>What determined the result of this run?</p>
  </div>","89","html-slider-response","75","803297","0.0-5.0-1.13","207","1","2025-07-23 10:22:30","1f75c3e559b7213887762d5229550c2b","152.106.99.150","Mozilla/5.0 (Windows NT 10.0; Win64; x64) AppleWebKit/537.36 (KHTML, like Gecko) Chrome/138.0.0.0 Safari/537.36","WebKit","Chrome","138.0.0.0","Windows","10.0","https://app.prolific.com/","en-US,en;q=0.9","666408427db5e38fe0ea1736","683db9eb0562dbf637994deb","6880b3fa3274d6c5f5b34f08","2","1","666408427db5e38fe0ea1736","2","1","2025-07-23T10:35:58.384Z","","","","","","","","","","","AttribQ","","50","","","","","","","","","","","","","","","","","","","","","","","","","","","","",""
"4812","","<div style=""width:500px;"">
  <p>How much control did you have over the ball?</p>
  </div>","94","html-slider-response","76","808110","0.0-5.0-2.13","207","1","2025-07-23 10:22:30","1f75c3e559b7213887762d5229550c2b","152.106.99.150","Mozilla/5.0 (Windows NT 10.0; Win64; x64) AppleWebKit/537.36 (KHTML, like Gecko) Chrome/138.0.0.0 Safari/537.36","WebKit","Chrome","138.0.0.0","Windows","10.0","https://app.prolific.com/","en-US,en;q=0.9","666408427db5e38fe0ea1736","683db9eb0562dbf637994deb","6880b3fa3274d6c5f5b34f08","2","1","666408427db5e38fe0ea1736","2","1","2025-07-23T10:36:03.197Z","","","","","","","","","","","ControlQ","","50","","","","","","","","","","","","","","","","","","","","","","","","","","","","",""
"3292","","<div style=""width:500px;"">
  <p>How would you describe your current emotional state?</p>
  </div>","34","html-slider-response","77","811403","0.0-5.0-3.13","207","1","2025-07-23 10:22:30","1f75c3e559b7213887762d5229550c2b","152.106.99.150","Mozilla/5.0 (Windows NT 10.0; Win64; x64) AppleWebKit/537.36 (KHTML, like Gecko) Chrome/138.0.0.0 Safari/537.36","WebKit","Chrome","138.0.0.0","Windows","10.0","https://app.prolific.com/","en-US,en;q=0.9","666408427db5e38fe0ea1736","683db9eb0562dbf637994deb","6880b3fa3274d6c5f5b34f08","2","1","666408427db5e38fe0ea1736","2","1","2025-07-23T10:36:06.490Z","","","","","","","","","","","StressQ","","50","","","","","","","","","","","","","","","","","","","","","","","","","","","","",""
"3917","","<div style=""width:500px;"">
  <p>What best describes how you currently feel?</p>
  </div>","70","html-slider-response","78","815321","0.0-5.0-4.13","207","1","2025-07-23 10:22:30","1f75c3e559b7213887762d5229550c2b","152.106.99.150","Mozilla/5.0 (Windows NT 10.0; Win64; x64) AppleWebKit/537.36 (KHTML, like Gecko) Chrome/138.0.0.0 Safari/537.36","WebKit","Chrome","138.0.0.0","Windows","10.0","https://app.prolific.com/","en-US,en;q=0.9","666408427db5e38fe0ea1736","683db9eb0562dbf637994deb","6880b3fa3274d6c5f5b34f08","2","1","666408427db5e38fe0ea1736","2","1","2025-07-23T10:36:10.409Z","","","","","","","","","","","MotivationQ","","50","","","","","","","","","","","","","","","","","","","","","","","","","","","","",""
