"rt","response_timestamp","stimulus","response","trial_type","trial_index","time_elapsed","internal_node_id","run_id","condition","recorded_at","source_code_version","ip","user_agent","device","browser","browser_version","platform","platform_version","referer","accept_language","PROLIFIC_PID","STUDY_ID","SESSION_ID","WEEK","BATCH","prolific_id","week","batch","realtime","success","responses","item_order","radio_event_ids","radio_event_times","key_event_times","mouse_event_times","straightlining","zigzagging","honeypot","eventType","view_history","slider_start","which_type","canvas_config","goals_layout","control_level","trial_number","tutorial_trial_number","trial_start_time","phase1_start_time","phase2_start_time","phase3_start_time","goal_1_value","goal_1_distance","goal_2_value","goal_2_distance","goal_selected","outcome","outcome_total","participant_final_score","participant_initial_score","participant_final_score_prop","goal_choice_rt","allocated_time","allocated_time_remaining","goal_direction","counts","mouse_movements","key_presses","question_order","question_id"
"9921","1753877762664","<p style='font-size:40px;line-height:1.25'><strong>Welcome to the experiment!</strong></p><p style='font-size:1.1em;line-height:1.25'>Thank you for participanting in our experiment again! You will be asked to play the Dysfunctional Ball Game again. We will briefly recap the rules before we start.</p><p style='font-size:1.1em;line-height:1.25'>Press <strong>Next</strong> to continue.</p>","0","custom-html-button-response","0","9924","0.0-0.0","290","1","2025-07-30 12:15:50","1f75c3e559b7213887762d5229550c2b","154.117.143.238","Mozilla/5.0 (Windows NT 10.0; Win64; x64) AppleWebKit/537.36 (KHTML, like Gecko) Chrome/138.0.0.0 Safari/537.36","WebKit","Chrome","138.0.0.0","Windows","10.0","https://app.prolific.com/","en-US,en;q=0.9","60ad28c6d838565067ab1b6c","6877631c9844ddd5501205fc","688a0cea7636f4dc3c651097","3","1","60ad28c6d838565067ab1b6c","3","1","2025-07-30T12:16:02.666Z","","","","","","","","","","","","","","","","","","","","","","","","","","","","","","","","","","","","","","","","","",""
"1223","","","","fullscreen","1","12171","0.0-1.0","290","1","2025-07-30 12:15:50","1f75c3e559b7213887762d5229550c2b","154.117.143.238","Mozilla/5.0 (Windows NT 10.0; Win64; x64) AppleWebKit/537.36 (KHTML, like Gecko) Chrome/138.0.0.0 Safari/537.36","WebKit","Chrome","138.0.0.0","Windows","10.0","https://app.prolific.com/","en-US,en;q=0.9","60ad28c6d838565067ab1b6c","6877631c9844ddd5501205fc","688a0cea7636f4dc3c651097","3","1","60ad28c6d838565067ab1b6c","3","1","","true","","","","","","","","","","","","","","","","","","","","","","","","","","","","","","","","","","","","","","","","",""
"2473","1753877767387","<p style='font-size:1.1em;line-height:1.25'>In the following, we will ask you a few questions relating to your feelings in the last 24 hours.<br></p><p style='font-size:1.1em;line-height:1.25'>Press the <strong>Next</strong> button to continue.</p>","0","custom-html-button-response","2","14646","0.0-2.0-0.0","290","1","2025-07-30 12:15:50","1f75c3e559b7213887762d5229550c2b","154.117.143.238","Mozilla/5.0 (Windows NT 10.0; Win64; x64) AppleWebKit/537.36 (KHTML, like Gecko) Chrome/138.0.0.0 Safari/537.36","WebKit","Chrome","138.0.0.0","Windows","10.0","https://app.prolific.com/","en-US,en;q=0.9","60ad28c6d838565067ab1b6c","6877631c9844ddd5501205fc","688a0cea7636f4dc3c651097","3","1","60ad28c6d838565067ab1b6c","3","1","2025-07-30T12:16:07.388Z","","","","","","","","","","","","","","","","","","","","","","","","","","","","","","","","","","","","","","","","","",""
"93146.39999999944","","","","survey-template","3","107826","0.0-2.0-1.0","290","1","2025-07-30 12:15:50","1f75c3e559b7213887762d5229550c2b","154.117.143.238","Mozilla/5.0 (Windows NT 10.0; Win64; x64) AppleWebKit/537.36 (KHTML, like Gecko) Chrome/138.0.0.0 Safari/537.36","WebKit","Chrome","138.0.0.0","Windows","10.0","https://app.prolific.com/","en-US,en;q=0.9","60ad28c6d838565067ab1b6c","6877631c9844ddd5501205fc","688a0cea7636f4dc3c651097","3","1","60ad28c6d838565067ab1b6c","3","1","2025-07-30T12:17:40.568Z","","{""Q01"":""2"",""Q02"":""2"",""Q03"":""2"",""Q04"":""2"",""Q05"":""1"",""Q06"":""3"",""Q07"":""1"",""Q08"":""2"",""Q09"":""2"",""Q10"":""2"",""Q11"":""2"",""Q12"":""3"",""Q13"":""5"",""Q14"":""2"",""Q15"":""3"",""Q16"":""3"",""Q17"":""3"",""Q18"":""2"",""Q19"":""2"",""Q20"":""2"",""Q21"":""2"",""Q22"":""2""}","[0,1,2,3,4,5,6,7,8,9,10,11,12,13,14,15,16,17,18,19,20,21]","[""Q01"",""Q02"",""Q03"",""Q04"",""Q05"",""Q06"",""Q07"",""Q08"",""Q09"",""Q10"",""Q11"",""Q12"",""Q13"",""Q14"",""Q15"",""Q16"",""Q17"",""Q18"",""Q19"",""Q20"",""Q21"",""Q22""]","[2660.899999999441,3688.399999999441,7053.0999999996275,8084.5,21776.89999999944,49484.39999999944,52366.39999999944,53693.700000000186,60045.89999999944,64097.5,68635.59999999963,71381.70000000019,73772.89999999944,76626.79999999981,79116.5,82481.70000000019,83920.79999999981,85044.70000000019,87941.89999999944,89377.70000000019,90531.39999999944,91798.39999999944]","[]","[0.20000000018626451,2660.899999999441,3688.399999999441,4613.299999999814,5645.299999999814,7053.0999999996275,8084.5,21776.89999999944,49484.39999999944,51105.200000000186,52366.39999999944,53693.700000000186,57122.799999999814,60045.89999999944,64097.5,68635.59999999963,71381.70000000019,73772.89999999944,76626.79999999981,78044.79999999981,79116.5,82481.70000000019,83920.79999999981,85044.70000000019,87001,87115.29999999981,87941.89999999944,89377.70000000019,90531.39999999944,91798.39999999944,93135.79999999981]","0.6363636363636364","0.23809523809523808","0","drsp","","","","","","","","","","","","","","","","","","","","","","","","","","","","","","",""
"10212.700000000186","","","","survey-template","4","118041","0.0-2.0-2.0","290","1","2025-07-30 12:15:50","1f75c3e559b7213887762d5229550c2b","154.117.143.238","Mozilla/5.0 (Windows NT 10.0; Win64; x64) AppleWebKit/537.36 (KHTML, like Gecko) Chrome/138.0.0.0 Safari/537.36","WebKit","Chrome","138.0.0.0","Windows","10.0","https://app.prolific.com/","en-US,en;q=0.9","60ad28c6d838565067ab1b6c","6877631c9844ddd5501205fc","688a0cea7636f4dc3c651097","3","1","60ad28c6d838565067ab1b6c","3","1","2025-07-30T12:17:50.783Z","","{""Q01"":""3"",""Q02"":""4"",""Q03"":""2""}","[0,1,2]","[""Q01"",""Q02"",""Q03""]","[3190.0999999996275,5116.299999999814,8033.0999999996275]","[]","[3190.0999999996275,5116.299999999814,7292.899999999441,8033.0999999996275,10210.799999999814]","0.3333333333333333","0.5","0","stress","","","","","","","","","","","","","","","","","","","","","","","","","","","","","","",""
"4848","","","","instructions","5","122891","0.0-3.0-0.0","290","1","2025-07-30 12:15:50","1f75c3e559b7213887762d5229550c2b","154.117.143.238","Mozilla/5.0 (Windows NT 10.0; Win64; x64) AppleWebKit/537.36 (KHTML, like Gecko) Chrome/138.0.0.0 Safari/537.36","WebKit","Chrome","138.0.0.0","Windows","10.0","https://app.prolific.com/","en-US,en;q=0.9","60ad28c6d838565067ab1b6c","6877631c9844ddd5501205fc","688a0cea7636f4dc3c651097","3","1","60ad28c6d838565067ab1b6c","3","1","","","","","","","","","","","","","[{""page_index"":0,""viewing_time"":4847}]","","","","","","","","","","","","","","","","","","","","","","","","","","","","","",""
"13878","","<p>Before you start with this game please answer the following three questions yourself. </p>
  <p>Through this game, we measure several aspects of your cognitive performance, such as reaction times, multi-tasking capabilities </p>
  <p>and the ability to assess the situation you are in.</p>
  <p></p>
  <p><b>How good do you usually are in such tasks?</b></p>","89","html-slider-response","6","136771","0.0-4.0-0.0","290","1","2025-07-30 12:15:50","1f75c3e559b7213887762d5229550c2b","154.117.143.238","Mozilla/5.0 (Windows NT 10.0; Win64; x64) AppleWebKit/537.36 (KHTML, like Gecko) Chrome/138.0.0.0 Safari/537.36","WebKit","Chrome","138.0.0.0","Windows","10.0","https://app.prolific.com/","en-US,en;q=0.9","60ad28c6d838565067ab1b6c","6877631c9844ddd5501205fc","688a0cea7636f4dc3c651097","3","1","60ad28c6d838565067ab1b6c","3","1","2025-07-30T12:18:09.513Z","","","","","","","","","","","PreSkillQ","","50","","","","","","","","","","","","","","","","","","","","","","","","","","","","",""
"7423","","<div style=""width:500px;"">
  <p>How well do you think you will perform in this task compared to other participants?</p>
  </div>","82","html-slider-response","7","144196","0.0-4.0-1.0","290","1","2025-07-30 12:15:50","1f75c3e559b7213887762d5229550c2b","154.117.143.238","Mozilla/5.0 (Windows NT 10.0; Win64; x64) AppleWebKit/537.36 (KHTML, like Gecko) Chrome/138.0.0.0 Safari/537.36","WebKit","Chrome","138.0.0.0","Windows","10.0","https://app.prolific.com/","en-US,en;q=0.9","60ad28c6d838565067ab1b6c","6877631c9844ddd5501205fc","688a0cea7636f4dc3c651097","3","1","60ad28c6d838565067ab1b6c","3","1","2025-07-30T12:18:16.938Z","","","","","","","","","","","PrePerfQ","","50","","","","","","","","","","","","","","","","","","","","","","","","","","","","",""
"8098","","<div style=""width:500px;"">
  <p>What best describes how you currently feel?</p>
  </div>","18","html-slider-response","8","152296","0.0-4.0-2.0","290","1","2025-07-30 12:15:50","1f75c3e559b7213887762d5229550c2b","154.117.143.238","Mozilla/5.0 (Windows NT 10.0; Win64; x64) AppleWebKit/537.36 (KHTML, like Gecko) Chrome/138.0.0.0 Safari/537.36","WebKit","Chrome","138.0.0.0","Windows","10.0","https://app.prolific.com/","en-US,en;q=0.9","60ad28c6d838565067ab1b6c","6877631c9844ddd5501205fc","688a0cea7636f4dc3c651097","3","1","60ad28c6d838565067ab1b6c","3","1","2025-07-30T12:18:25.038Z","","","","","","","","","","","PreMotivationQ","","50","","","","","","","","","","","","","","","","","","","","","","","","","","","","",""
"","","","","ctl-task-cpt","9","187482","0.0-5.0-0.0","290","1","2025-07-30 12:15:50","1f75c3e559b7213887762d5229550c2b","154.117.143.238","Mozilla/5.0 (Windows NT 10.0; Win64; x64) AppleWebKit/537.36 (KHTML, like Gecko) Chrome/138.0.0.0 Safari/537.36","WebKit","Chrome","138.0.0.0","Windows","10.0","https://app.prolific.com/","en-US,en;q=0.9","60ad28c6d838565067ab1b6c","6877631c9844ddd5501205fc","688a0cea7636f4dc3c651097","3","1","60ad28c6d838565067ab1b6c","3","1","2025-07-30T12:19:00.224Z","","","","","","","","","","","","","","win-only","3","g1:SW,g2:NE","1","1","0","156013","1345.3","6351.9","32173.7","1","4","4","6","2","4","4","4","0","0.030303030303030304","3950.2","3000","630","[""up"",""right""]","{""num_key_presses"":6,""num_perfect"":6,""num_errors"":0,""num_randdir"":0,""num_randdir_good_moves"":0,""num_whilered"":0,""num_whileblue"":0,""num_blue"":3,""num_good_moves"":6}","[354.4642857142857,350.96428666796004,0.2,354.4642857142857,350.96428666796004,100.2,354.4642857142857,350.96428666796004,200.5,354.4642857142857,350.96428666796004,300.5,354.4642857142857,350.96428666796004,400.8,354.4642857142857,350.96428666796004,506.3,354.4642857142857,350.96428666796004,610.7,354.4642857142857,350.96428666796004,717.1,354.4642857142857,350.96428666796004,820.6,354.4642857142857,350.96428666796004,926.4,354.4642857142857,350.96428666796004,1026.6,354.4642857142857,350.96428666796004,1133.9,354.4642857142857,350.96428666796004,1237.1,354.4642857142857,350.96428666796004,1340.4,354.4642857142857,350.96428666796004,1442.1,354.4642857142857,350.96428666796004,1546.2,354.4642857142857,350.96428666796004,1667.2,354.4642857142857,350.96428666796004,1767.4,354.4642857142857,350.96428666796004,1869,354.4642857142857,350.96428666796004,1971.2,354.4642857142857,350.96428666796004,2077.1,354.4642857142857,350.96428666796004,2182.7,354.4642857142857,350.96428666796004,2285.6,354.4642857142857,350.96428666796004,2385.9,354.4642857142857,350.96428666796004,2486.9,354.4642857142857,350.96428666796004,2590.3,354.4642857142857,350.96428666796004,2701.8,354.4642857142857,350.96428666796004,2805.6,354.4642857142857,350.96428666796004,2906.6,354.4642857142857,350.96428666796004,3017.1,354.4642857142857,350.96428666796004,3121.1,354.4642857142857,350.96428666796004,3227,336.9642857142857,384.71428666796004,3335.1,326.9642857142857,390.96428666796004,3435.8,338.2142857142857,362.21428666796004,3540.8,591.9642857142857,82.21428666796004,3641.6,619.4642857142857,47.21428666796003,3746.7,628.2142857142857,47.21428666796003,3851,628.2142857142857,47.21428666796003,3954.8,628.2142857142857,47.21428666796003,4056.4,628.2142857142857,47.21428666796003,4160.9,628.2142857142857,47.21428666796003,4267.1,628.2142857142857,47.21428666796003,4370.9,600.7142857142857,148.46428666796004,4471,563.2142857142857,312.21428666796004,4571,563.2142857142857,312.21428666796004,4676.1,563.2142857142857,312.21428666796004,4776.1,563.2142857142857,312.21428666796004,4883.7,563.2142857142857,312.21428666796004,4986.1]","[1453.4,1453.3,1000,0.1,453.3,""smooth"",""up"",""up"",""good_move"",4360.1,2905.9,2469.1,1454.2,436.8,""smooth"",""right"",""right"",""good_move"",15126.6,10765.6,2621,12054.5,451.1,""smooth"",""up"",""up"",""good_move"",18244.8,3117.8,2641.4,15127,476.4,""smooth"",""right"",""right"",""good_move"",23512,5266.9,1514.3,21519.4,478.3,""smooth"",""up"",""up"",""good_move"",25726.1,2213.9,1795.8,23512.2,418.1,""smooth"",""right"",""right"",""good_move""]","",""
"3492","","<div style=""width:500px;"">
  <p>What determined the result of this run?</p>
  </div>","80","html-slider-response","10","190976","0.0-5.0-1.0","290","1","2025-07-30 12:15:50","1f75c3e559b7213887762d5229550c2b","154.117.143.238","Mozilla/5.0 (Windows NT 10.0; Win64; x64) AppleWebKit/537.36 (KHTML, like Gecko) Chrome/138.0.0.0 Safari/537.36","WebKit","Chrome","138.0.0.0","Windows","10.0","https://app.prolific.com/","en-US,en;q=0.9","60ad28c6d838565067ab1b6c","6877631c9844ddd5501205fc","688a0cea7636f4dc3c651097","3","1","60ad28c6d838565067ab1b6c","3","1","2025-07-30T12:19:03.719Z","","","","","","","","","","","AttribQ","","50","","","","","","","","","","","","","","","","","","","","","","","","","","","","",""
"5990","","<div style=""width:500px;"">
  <p>How much control did you have over the ball?</p>
  </div>","81","html-slider-response","11","196968","0.0-5.0-2.0","290","1","2025-07-30 12:15:50","1f75c3e559b7213887762d5229550c2b","154.117.143.238","Mozilla/5.0 (Windows NT 10.0; Win64; x64) AppleWebKit/537.36 (KHTML, like Gecko) Chrome/138.0.0.0 Safari/537.36","WebKit","Chrome","138.0.0.0","Windows","10.0","https://app.prolific.com/","en-US,en;q=0.9","60ad28c6d838565067ab1b6c","6877631c9844ddd5501205fc","688a0cea7636f4dc3c651097","3","1","60ad28c6d838565067ab1b6c","3","1","2025-07-30T12:19:09.711Z","","","","","","","","","","","ControlQ","","50","","","","","","","","","","","","","","","","","","","","","","","","","","","","",""
"1970","","<div style=""width:500px;"">
  <p>How would you describe your current emotional state?</p>
  </div>","14","html-slider-response","12","198940","0.0-5.0-3.0","290","1","2025-07-30 12:15:50","1f75c3e559b7213887762d5229550c2b","154.117.143.238","Mozilla/5.0 (Windows NT 10.0; Win64; x64) AppleWebKit/537.36 (KHTML, like Gecko) Chrome/138.0.0.0 Safari/537.36","WebKit","Chrome","138.0.0.0","Windows","10.0","https://app.prolific.com/","en-US,en;q=0.9","60ad28c6d838565067ab1b6c","6877631c9844ddd5501205fc","688a0cea7636f4dc3c651097","3","1","60ad28c6d838565067ab1b6c","3","1","2025-07-30T12:19:11.682Z","","","","","","","","","","","StressQ","","50","","","","","","","","","","","","","","","","","","","","","","","","","","","","",""
"2158","","<div style=""width:500px;"">
  <p>What best describes how you currently feel?</p>
  </div>","81","html-slider-response","13","201100","0.0-5.0-4.0","290","1","2025-07-30 12:15:50","1f75c3e559b7213887762d5229550c2b","154.117.143.238","Mozilla/5.0 (Windows NT 10.0; Win64; x64) AppleWebKit/537.36 (KHTML, like Gecko) Chrome/138.0.0.0 Safari/537.36","WebKit","Chrome","138.0.0.0","Windows","10.0","https://app.prolific.com/","en-US,en;q=0.9","60ad28c6d838565067ab1b6c","6877631c9844ddd5501205fc","688a0cea7636f4dc3c651097","3","1","60ad28c6d838565067ab1b6c","3","1","2025-07-30T12:19:13.842Z","","","","","","","","","","","MotivationQ","","50","","","","","","","","","","","","","","","","","","","","","","","","","","","","",""
"","","","","ctl-task-cpt","14","239081","0.0-5.0-0.1","290","1","2025-07-30 12:15:50","1f75c3e559b7213887762d5229550c2b","154.117.143.238","Mozilla/5.0 (Windows NT 10.0; Win64; x64) AppleWebKit/537.36 (KHTML, like Gecko) Chrome/138.0.0.0 Safari/537.36","WebKit","Chrome","138.0.0.0","Windows","10.0","https://app.prolific.com/","en-US,en;q=0.9","60ad28c6d838565067ab1b6c","6877631c9844ddd5501205fc","688a0cea7636f4dc3c651097","3","1","60ad28c6d838565067ab1b6c","3","1","2025-07-30T12:19:51.823Z","","","","","","","","","","","","","","win-only","0","g1:NW,g2:SE","0.9","2","0","204813.8","1149.9","6151.4","34976.2","1","4","8","6","2","8","8","12","4","0.09090909090909091","1544.6","3000","275","[""down"",""right""]","{""num_key_presses"":8,""num_perfect"":7,""num_errors"":0,""num_randdir"":1,""num_randdir_good_moves"":0,""num_whilered"":0,""num_whileblue"":0,""num_blue"":2,""num_good_moves"":7}","[351.9642857142857,354.71428666796004,0.2,351.9642857142857,354.71428666796004,100.5,351.9642857142857,354.71428666796004,201,351.9642857142857,354.71428666796004,308.4,351.9642857142857,354.71428666796004,415.4,351.9642857142857,354.71428666796004,516.6,351.9642857142857,354.71428666796004,616.6,371.9642857142857,375.96428666796004,722,266.9642857142857,182.21428666796004,827.9,276.9642857142857,183.46428666796004,928.2,581.9642857142857,493.46428666796004,1028.7,629.4642857142857,612.21428666796,1129.2,633.2142857142857,632.21428666796,1230.8,671.9642857142857,643.46428666796,1336.6,688.2142857142857,648.46428666796,1437.5,688.2142857142857,648.46428666796,1546.3,688.2142857142857,648.46428666796,1650.6,688.2142857142857,648.46428666796,1750.7,688.2142857142857,648.46428666796,1850.7,688.2142857142857,648.46428666796,1951,813.2142857142857,559.71428666796,2051.4,973.2142857142857,447.21428666796004,2157.1,973.2142857142857,447.21428666796004,2262.2,973.2142857142857,447.21428666796004,2362.7,973.2142857142857,447.21428666796004,2465.6,973.2142857142857,447.21428666796004,2567.3,973.2142857142857,447.21428666796004,2671.3,973.2142857142857,447.21428666796004,2778.7,973.2142857142857,447.21428666796004,2878.7,973.2142857142857,447.21428666796004,2980.3,973.2142857142857,447.21428666796004,3080.9,973.2142857142857,447.21428666796004,3181,973.2142857142857,447.21428666796004,3286,973.2142857142857,447.21428666796004,3387,973.2142857142857,447.21428666796004,3487,973.2142857142857,447.21428666796004,3595.3,973.2142857142857,447.21428666796004,3695.4,973.2142857142857,447.21428666796004,3795.7,973.2142857142857,447.21428666796004,3900.7,973.2142857142857,447.21428666796004,4000.7,973.2142857142857,447.21428666796004,4101,973.2142857142857,447.21428666796004,4207.2,973.2142857142857,447.21428666796004,4311.8,973.2142857142857,447.21428666796004,4415.4,973.2142857142857,447.21428666796004,4515.4,973.2142857142857,447.21428666796004,4616.6,973.2142857142857,447.21428666796004,4720.5,973.2142857142857,447.21428666796004,4821.6,973.2142857142857,447.21428666796004,4928.3]","[1459.8,1459.8,1000,0,459.8,""smooth"",""down"",""down"",""good_move"",12176.4,10716.3,2467.5,9300,408.9,""smooth"",""right"",""right"",""good_move"",14826.4,2649.4,2257.9,12177,391.5,""oops"",""down"",""up"",""bad_move"",18562.9,3736.1,3377.5,14826.8,358.6,""smooth"",""right"",""right"",""good_move"",20963.6,2400.3,1922.9,18563.3,477.4,""smooth"",""down"",""down"",""good_move"",23499.5,2535.8,2201.4,20963.7,334.4,""smooth"",""right"",""right"",""good_move"",25830.5,2330.9,2017.7,23499.6,313.2,""smooth"",""down"",""down"",""good_move"",28726.6,2895.7,2554.4,25830.9,341.3,""smooth"",""down"",""down"",""good_move""]","",""
"4368","","<div style=""width:500px;"">
  <p>What determined the result of this run?</p>
  </div>","84","html-slider-response","15","243450","0.0-5.0-1.1","290","1","2025-07-30 12:15:50","1f75c3e559b7213887762d5229550c2b","154.117.143.238","Mozilla/5.0 (Windows NT 10.0; Win64; x64) AppleWebKit/537.36 (KHTML, like Gecko) Chrome/138.0.0.0 Safari/537.36","WebKit","Chrome","138.0.0.0","Windows","10.0","https://app.prolific.com/","en-US,en;q=0.9","60ad28c6d838565067ab1b6c","6877631c9844ddd5501205fc","688a0cea7636f4dc3c651097","3","1","60ad28c6d838565067ab1b6c","3","1","2025-07-30T12:19:56.193Z","","","","","","","","","","","AttribQ","","50","","","","","","","","","","","","","","","","","","","","","","","","","","","","",""
"2813","","<div style=""width:500px;"">
  <p>How much control did you have over the ball?</p>
  </div>","88","html-slider-response","16","246265","0.0-5.0-2.1","290","1","2025-07-30 12:15:50","1f75c3e559b7213887762d5229550c2b","154.117.143.238","Mozilla/5.0 (Windows NT 10.0; Win64; x64) AppleWebKit/537.36 (KHTML, like Gecko) Chrome/138.0.0.0 Safari/537.36","WebKit","Chrome","138.0.0.0","Windows","10.0","https://app.prolific.com/","en-US,en;q=0.9","60ad28c6d838565067ab1b6c","6877631c9844ddd5501205fc","688a0cea7636f4dc3c651097","3","1","60ad28c6d838565067ab1b6c","3","1","2025-07-30T12:19:59.007Z","","","","","","","","","","","ControlQ","","50","","","","","","","","","","","","","","","","","","","","","","","","","","","","",""
"3052","","<div style=""width:500px;"">
  <p>How would you describe your current emotional state?</p>
  </div>","17","html-slider-response","17","249319","0.0-5.0-3.1","290","1","2025-07-30 12:15:50","1f75c3e559b7213887762d5229550c2b","154.117.143.238","Mozilla/5.0 (Windows NT 10.0; Win64; x64) AppleWebKit/537.36 (KHTML, like Gecko) Chrome/138.0.0.0 Safari/537.36","WebKit","Chrome","138.0.0.0","Windows","10.0","https://app.prolific.com/","en-US,en;q=0.9","60ad28c6d838565067ab1b6c","6877631c9844ddd5501205fc","688a0cea7636f4dc3c651097","3","1","60ad28c6d838565067ab1b6c","3","1","2025-07-30T12:20:02.061Z","","","","","","","","","","","StressQ","","50","","","","","","","","","","","","","","","","","","","","","","","","","","","","",""
"5292","","<div style=""width:500px;"">
  <p>What best describes how you currently feel?</p>
  </div>","57","html-slider-response","18","254613","0.0-5.0-4.1","290","1","2025-07-30 12:15:50","1f75c3e559b7213887762d5229550c2b","154.117.143.238","Mozilla/5.0 (Windows NT 10.0; Win64; x64) AppleWebKit/537.36 (KHTML, like Gecko) Chrome/138.0.0.0 Safari/537.36","WebKit","Chrome","138.0.0.0","Windows","10.0","https://app.prolific.com/","en-US,en;q=0.9","60ad28c6d838565067ab1b6c","6877631c9844ddd5501205fc","688a0cea7636f4dc3c651097","3","1","60ad28c6d838565067ab1b6c","3","1","2025-07-30T12:20:07.355Z","","","","","","","","","","","MotivationQ","","50","","","","","","","","","","","","","","","","","","","","","","","","","","","","",""
"","","","","ctl-task-cpt","19","304915","0.0-5.0-0.2","290","1","2025-07-30 12:15:50","1f75c3e559b7213887762d5229550c2b","154.117.143.238","Mozilla/5.0 (Windows NT 10.0; Win64; x64) AppleWebKit/537.36 (KHTML, like Gecko) Chrome/138.0.0.0 Safari/537.36","WebKit","Chrome","138.0.0.0","Windows","10.0","https://app.prolific.com/","en-US,en;q=0.9","60ad28c6d838565067ab1b6c","6877631c9844ddd5501205fc","688a0cea7636f4dc3c651097","3","1","60ad28c6d838565067ab1b6c","3","1","2025-07-30T12:20:57.657Z","","","","","","","","","","","","","","win-only","1","g1:NE,g2:SW","0.8","3","0","258328.4","2187.3","7191.4","47280.5","1","4","8","6","2","8","7","19","12","0.14393939393939395","1325.2","3000","55","[""down"",""left""]","{""num_key_presses"":10,""num_perfect"":8,""num_errors"":1,""num_randdir"":1,""num_randdir_good_moves"":0,""num_whilered"":0,""num_whileblue"":1,""num_blue"":5,""num_good_moves"":8}","[355.7142857142857,352.21428666796004,0.2,355.7142857142857,352.21428666796004,103.6,355.7142857142857,352.21428666796004,210,355.7142857142857,352.21428666796004,310.5,355.7142857142857,352.21428666796004,413.8,355.7142857142857,352.21428666796004,514,355.7142857142857,352.21428666796004,618.5,355.7142857142857,352.21428666796004,718.7,205.71428571428572,569.71428666796,826.8,134.46428571428572,633.46428666796,928.8,108.21428571428572,657.21428666796,1033.5,70.71428571428572,678.46428666796,1133.8,61.964285714285715,677.21428666796,1234.9,61.964285714285715,677.21428666796,1343.1,61.964285714285715,677.21428666796,1443.3,61.964285714285715,677.21428666796,1548.7,61.964285714285715,677.21428666796,1653.9,61.964285714285715,677.21428666796,1759.5,61.964285714285715,677.21428666796,1863.8,61.964285714285715,677.21428666796,1968.8,61.964285714285715,677.21428666796,2068.8,61.964285714285715,677.21428666796,2176.5,61.964285714285715,677.21428666796,2278.2,61.964285714285715,677.21428666796,2378.2,61.964285714285715,677.21428666796,2478.9,61.964285714285715,677.21428666796,2583.5,61.964285714285715,677.21428666796,2693.5,61.964285714285715,677.21428666796,2798.7,61.964285714285715,677.21428666796,2898.7,61.964285714285715,677.21428666796,3010.2,61.964285714285715,677.21428666796,3113.7,61.964285714285715,677.21428666796,3218.6,61.964285714285715,677.21428666796,3319.3,61.964285714285715,677.21428666796,3426.3,61.964285714285715,677.21428666796,3526.4,61.964285714285715,677.21428666796,3626.5,61.964285714285715,677.21428666796,3728.6,61.964285714285715,677.21428666796,3828.6,61.964285714285715,677.21428666796,3933.2,61.964285714285715,677.21428666796,4033.2,61.964285714285715,677.21428666796,4133.8,61.964285714285715,677.21428666796,4233.9,61.964285714285715,677.21428666796,4342.6,61.964285714285715,677.21428666796,4443,61.964285714285715,677.21428666796,4543,61.964285714285715,677.21428666796,4643.7,61.964285714285715,677.21428666796,4743.9,61.964285714285715,677.21428666796,4848.2,61.964285714285715,677.21428666796,4948.2]","[4725.1,4725.1,2283.8,2009.9,431.4,""smooth"",""down"",""down"",""good_move"",6971.5,2246,1886.5,4725.5,359.5,""smooth"",""left"",""left"",""good_move"",9627.9,2656,2296.6,6972,359.4,""smooth"",""down"",""down"",""good_move"",16460.5,6832.2,2522.9,13494.7,442.9,""oops"",""left"",""up"",""bad_move"",18546,2085,1689,16461,396,""smooth"",""left"",""left"",""good_move"",21713,3166.8,2876.5,18546.2,290.3,""while_blue"",""left"",""right"",""bad_move"",24610.4,2896.9,2504.1,21713.6,392.8,""smooth"",""left"",""left"",""good_move"",34423.7,9812.9,2852.7,31221.5,349.5,""smooth"",""left"",""left"",""good_move"",37338.1,2914.3,2628.6,34423.8,285.7,""smooth"",""down"",""down"",""good_move"",39988,2649.6,2330,37338.4,319.6,""smooth"",""down"",""down"",""good_move""]","",""
"3060","","<div style=""width:500px;"">
  <p>What determined the result of this run?</p>
  </div>","81","html-slider-response","20","307977","0.0-5.0-1.2","290","1","2025-07-30 12:15:50","1f75c3e559b7213887762d5229550c2b","154.117.143.238","Mozilla/5.0 (Windows NT 10.0; Win64; x64) AppleWebKit/537.36 (KHTML, like Gecko) Chrome/138.0.0.0 Safari/537.36","WebKit","Chrome","138.0.0.0","Windows","10.0","https://app.prolific.com/","en-US,en;q=0.9","60ad28c6d838565067ab1b6c","6877631c9844ddd5501205fc","688a0cea7636f4dc3c651097","3","1","60ad28c6d838565067ab1b6c","3","1","2025-07-30T12:21:00.719Z","","","","","","","","","","","AttribQ","","50","","","","","","","","","","","","","","","","","","","","","","","","","","","","",""
"1581","","<div style=""width:500px;"">
  <p>How much control did you have over the ball?</p>
  </div>","82","html-slider-response","21","309559","0.0-5.0-2.2","290","1","2025-07-30 12:15:50","1f75c3e559b7213887762d5229550c2b","154.117.143.238","Mozilla/5.0 (Windows NT 10.0; Win64; x64) AppleWebKit/537.36 (KHTML, like Gecko) Chrome/138.0.0.0 Safari/537.36","WebKit","Chrome","138.0.0.0","Windows","10.0","https://app.prolific.com/","en-US,en;q=0.9","60ad28c6d838565067ab1b6c","6877631c9844ddd5501205fc","688a0cea7636f4dc3c651097","3","1","60ad28c6d838565067ab1b6c","3","1","2025-07-30T12:21:02.301Z","","","","","","","","","","","ControlQ","","50","","","","","","","","","","","","","","","","","","","","","","","","","","","","",""
"2380","","<div style=""width:500px;"">
  <p>How would you describe your current emotional state?</p>
  </div>","12","html-slider-response","22","311941","0.0-5.0-3.2","290","1","2025-07-30 12:15:50","1f75c3e559b7213887762d5229550c2b","154.117.143.238","Mozilla/5.0 (Windows NT 10.0; Win64; x64) AppleWebKit/537.36 (KHTML, like Gecko) Chrome/138.0.0.0 Safari/537.36","WebKit","Chrome","138.0.0.0","Windows","10.0","https://app.prolific.com/","en-US,en;q=0.9","60ad28c6d838565067ab1b6c","6877631c9844ddd5501205fc","688a0cea7636f4dc3c651097","3","1","60ad28c6d838565067ab1b6c","3","1","2025-07-30T12:21:04.683Z","","","","","","","","","","","StressQ","","50","","","","","","","","","","","","","","","","","","","","","","","","","","","","",""
"2132","","<div style=""width:500px;"">
  <p>What best describes how you currently feel?</p>
  </div>","83","html-slider-response","23","314075","0.0-5.0-4.2","290","1","2025-07-30 12:15:50","1f75c3e559b7213887762d5229550c2b","154.117.143.238","Mozilla/5.0 (Windows NT 10.0; Win64; x64) AppleWebKit/537.36 (KHTML, like Gecko) Chrome/138.0.0.0 Safari/537.36","WebKit","Chrome","138.0.0.0","Windows","10.0","https://app.prolific.com/","en-US,en;q=0.9","60ad28c6d838565067ab1b6c","6877631c9844ddd5501205fc","688a0cea7636f4dc3c651097","3","1","60ad28c6d838565067ab1b6c","3","1","2025-07-30T12:21:06.817Z","","","","","","","","","","","MotivationQ","","50","","","","","","","","","","","","","","","","","","","","","","","","","","","","",""
"","","","","ctl-task-cpt","24","353844","0.0-5.0-0.3","290","1","2025-07-30 12:15:50","1f75c3e559b7213887762d5229550c2b","154.117.143.238","Mozilla/5.0 (Windows NT 10.0; Win64; x64) AppleWebKit/537.36 (KHTML, like Gecko) Chrome/138.0.0.0 Safari/537.36","WebKit","Chrome","138.0.0.0","Windows","10.0","https://app.prolific.com/","en-US,en;q=0.9","60ad28c6d838565067ab1b6c","6877631c9844ddd5501205fc","688a0cea7636f4dc3c651097","3","1","60ad28c6d838565067ab1b6c","3","1","2025-07-30T12:21:46.586Z","","","","","","","","","","","","","","win-only","0","g1:NW,g2:SE","0.7","4","0","317789","6610.3","11612.3","36751.4","1","4","4","6","2","4","4","23","19","0.17424242424242425","1190.9","3000","115","[""down"",""right""]","{""num_key_presses"":8,""num_perfect"":5,""num_errors"":0,""num_randdir"":3,""num_randdir_good_moves"":2,""num_whilered"":0,""num_whileblue"":0,""num_blue"":1,""num_good_moves"":7}","[346.9642857142857,355.96428666796004,0.3,346.9642857142857,355.96428666796004,101,346.9642857142857,355.96428666796004,207.4,346.9642857142857,355.96428666796004,310.8,346.9642857142857,355.96428666796004,411.2,673.2142857142857,570.96428666796,516.3,720.7142857142857,592.21428666796,616.8,720.7142857142857,592.21428666796,721.3,681.9642857142857,612.21428666796,825.1,626.9642857142857,605.96428666796,925.6,619.4642857142857,608.46428666796,1025.9,619.4642857142857,608.46428666796,1126.1,619.4642857142857,608.46428666796,1231,619.4642857142857,608.46428666796,1331.1,619.4642857142857,608.46428666796,1431.1,619.4642857142857,608.46428666796,1535.9,619.4642857142857,608.46428666796,1641.2,619.4642857142857,608.46428666796,1741.4,619.4642857142857,608.46428666796,1845.3,619.4642857142857,608.46428666796,1946,619.4642857142857,608.46428666796,2050.7,619.4642857142857,608.46428666796,2156.3,619.4642857142857,608.46428666796,2260.6,619.4642857142857,608.46428666796,2361,619.4642857142857,608.46428666796,2466.1,619.4642857142857,608.46428666796,2570.9,619.4642857142857,608.46428666796,2675,619.4642857142857,608.46428666796,2775.5,619.4642857142857,608.46428666796,2875.7,619.4642857142857,608.46428666796,2975.7,619.4642857142857,608.46428666796,3081.3,619.4642857142857,608.46428666796,3185.9,619.4642857142857,608.46428666796,3286.4,619.4642857142857,608.46428666796,3391.4,619.4642857142857,608.46428666796,3495.5,619.4642857142857,608.46428666796,3601.6,619.4642857142857,608.46428666796,3710,619.4642857142857,608.46428666796,3811,619.4642857142857,608.46428666796,3916.9,619.4642857142857,608.46428666796,4020.6,619.4642857142857,608.46428666796,4120.9,619.4642857142857,608.46428666796,4222.2,619.4642857142857,608.46428666796,4325.2,619.4642857142857,608.46428666796,4426.7,619.4642857142857,608.46428666796,4531.1,619.4642857142857,608.46428666796,4631.3,619.4642857142857,608.46428666796,4736.2,619.4642857142857,608.46428666796,4841.5,619.4642857142857,608.46428666796,4948]","[1431.9,1431.9,1000,0,431.9,""oops"",""right"",""down"",""good_move"",4491.6,3059.4,2704.2,1432.2,355.2,""smooth"",""right"",""right"",""good_move"",6735.3,2243,1808.6,4492.4,434.4,""smooth"",""down"",""down"",""good_move"",9410.6,2674.9,2278.9,6735.7,396,""oops"",""right"",""up"",""bad_move"",12231.6,2820.6,2397.3,9411,423.3,""smooth"",""right"",""right"",""good_move"",15443.1,3211.1,2877.3,12232,333.8,""oops"",""right"",""down"",""good_move"",18960.5,3517.1,3148.6,15443.4,368.5,""smooth"",""right"",""right"",""good_move"",25043.6,6082.9,2301.7,22413.7,328.2,""smooth"",""down"",""down"",""good_move""]","",""
"22334","","<div style=""width:500px;"">
  <p>What determined the result of this run?</p>
  </div>","85","html-slider-response","25","376179","0.0-5.0-1.3","290","1","2025-07-30 12:15:50","1f75c3e559b7213887762d5229550c2b","154.117.143.238","Mozilla/5.0 (Windows NT 10.0; Win64; x64) AppleWebKit/537.36 (KHTML, like Gecko) Chrome/138.0.0.0 Safari/537.36","WebKit","Chrome","138.0.0.0","Windows","10.0","https://app.prolific.com/","en-US,en;q=0.9","60ad28c6d838565067ab1b6c","6877631c9844ddd5501205fc","688a0cea7636f4dc3c651097","3","1","60ad28c6d838565067ab1b6c","3","1","2025-07-30T12:22:08.921Z","","","","","","","","","","","AttribQ","","50","","","","","","","","","","","","","","","","","","","","","","","","","","","","",""
"3076","","<div style=""width:500px;"">
  <p>How much control did you have over the ball?</p>
  </div>","80","html-slider-response","26","379257","0.0-5.0-2.3","290","1","2025-07-30 12:15:50","1f75c3e559b7213887762d5229550c2b","154.117.143.238","Mozilla/5.0 (Windows NT 10.0; Win64; x64) AppleWebKit/537.36 (KHTML, like Gecko) Chrome/138.0.0.0 Safari/537.36","WebKit","Chrome","138.0.0.0","Windows","10.0","https://app.prolific.com/","en-US,en;q=0.9","60ad28c6d838565067ab1b6c","6877631c9844ddd5501205fc","688a0cea7636f4dc3c651097","3","1","60ad28c6d838565067ab1b6c","3","1","2025-07-30T12:22:11.999Z","","","","","","","","","","","ControlQ","","50","","","","","","","","","","","","","","","","","","","","","","","","","","","","",""
"2094","","<div style=""width:500px;"">
  <p>How would you describe your current emotional state?</p>
  </div>","15","html-slider-response","27","381352","0.0-5.0-3.3","290","1","2025-07-30 12:15:50","1f75c3e559b7213887762d5229550c2b","154.117.143.238","Mozilla/5.0 (Windows NT 10.0; Win64; x64) AppleWebKit/537.36 (KHTML, like Gecko) Chrome/138.0.0.0 Safari/537.36","WebKit","Chrome","138.0.0.0","Windows","10.0","https://app.prolific.com/","en-US,en;q=0.9","60ad28c6d838565067ab1b6c","6877631c9844ddd5501205fc","688a0cea7636f4dc3c651097","3","1","60ad28c6d838565067ab1b6c","3","1","2025-07-30T12:22:14.094Z","","","","","","","","","","","StressQ","","50","","","","","","","","","","","","","","","","","","","","","","","","","","","","",""
"2374","","<div style=""width:500px;"">
  <p>What best describes how you currently feel?</p>
  </div>","83","html-slider-response","28","383727","0.0-5.0-4.3","290","1","2025-07-30 12:15:50","1f75c3e559b7213887762d5229550c2b","154.117.143.238","Mozilla/5.0 (Windows NT 10.0; Win64; x64) AppleWebKit/537.36 (KHTML, like Gecko) Chrome/138.0.0.0 Safari/537.36","WebKit","Chrome","138.0.0.0","Windows","10.0","https://app.prolific.com/","en-US,en;q=0.9","60ad28c6d838565067ab1b6c","6877631c9844ddd5501205fc","688a0cea7636f4dc3c651097","3","1","60ad28c6d838565067ab1b6c","3","1","2025-07-30T12:22:16.469Z","","","","","","","","","","","MotivationQ","","50","","","","","","","","","","","","","","","","","","","","","","","","","","","","",""
"","","","","ctl-task-cpt","29","445294","0.0-5.0-0.4","290","1","2025-07-30 12:15:50","1f75c3e559b7213887762d5229550c2b","154.117.143.238","Mozilla/5.0 (Windows NT 10.0; Win64; x64) AppleWebKit/537.36 (KHTML, like Gecko) Chrome/138.0.0.0 Safari/537.36","WebKit","Chrome","138.0.0.0","Windows","10.0","https://app.prolific.com/","en-US,en;q=0.9","60ad28c6d838565067ab1b6c","6877631c9844ddd5501205fc","688a0cea7636f4dc3c651097","3","1","60ad28c6d838565067ab1b6c","3","1","2025-07-30T12:23:18.036Z","","","","","","","","","","","","","","win-only","3","g1:SW,g2:NE","0.6","5","0","387441.5","19221.8","24225.5","58551.5","1","4","4","6","2","-4","-4","19","23","0.14393939393939395","1279.2","3000","-2675","[""up"",""right""]","{""num_key_presses"":6,""num_perfect"":5,""num_errors"":0,""num_randdir"":1,""num_randdir_good_moves"":0,""num_whilered"":0,""num_whileblue"":0,""num_blue"":5,""num_good_moves"":5}","[350.7142857142857,354.71428666796004,0.3,350.7142857142857,354.71428666796004,110.6,350.7142857142857,354.71428666796004,211.5,350.7142857142857,354.71428666796004,314.2,350.7142857142857,354.71428666796004,414.4,350.7142857142857,354.71428666796004,514.4,521.9642857142857,170.96428666796004,619.1,681.9642857142857,22.21428666796003,719.7,685.7142857142857,22.21428666796003,828.7,716.9642857142857,13.464286667960032,929,706.9642857142857,20.96428666796003,1034.4,678.2142857142857,42.21428666796003,1138.8,678.2142857142857,42.21428666796003,1239.6,678.2142857142857,42.21428666796003,1344.4,678.2142857142857,42.21428666796003,1449.4,678.2142857142857,42.21428666796003,1551.3,678.2142857142857,42.21428666796003,1654.2,678.2142857142857,42.21428666796003,1761.4,678.2142857142857,42.21428666796003,1861.9,678.2142857142857,42.21428666796003,1963.8,678.2142857142857,42.21428666796003,2065.9,678.2142857142857,42.21428666796003,2169.4,678.2142857142857,42.21428666796003,2278.6,678.2142857142857,42.21428666796003,2379.5,678.2142857142857,42.21428666796003,2484.2,678.2142857142857,42.21428666796003,2588.9,678.2142857142857,42.21428666796003,2694.2,678.2142857142857,42.21428666796003,2794.2,678.2142857142857,42.21428666796003,2894.5,678.2142857142857,42.21428666796003,2995.2,678.2142857142857,42.21428666796003,3098.5,678.2142857142857,42.21428666796003,3199.3,678.2142857142857,42.21428666796003,3299.5,678.2142857142857,42.21428666796003,3404,678.2142857142857,42.21428666796003,3504.3,678.2142857142857,42.21428666796003,3610.2,678.2142857142857,42.21428666796003,3711.6,678.2142857142857,42.21428666796003,3814,678.2142857142857,42.21428666796003,3914.5,678.2142857142857,42.21428666796003,4019.8,678.2142857142857,42.21428666796003,4127.9,678.2142857142857,42.21428666796003,4229,678.2142857142857,42.21428666796003,4333.9,678.2142857142857,42.21428666796003,4434.4,678.2142857142857,42.21428666796003,4544.1,678.2142857142857,42.21428666796003,4644.2,678.2142857142857,42.21428666796003,4745.1,678.2142857142857,42.21428666796003,4849,678.2142857142857,42.21428666796003,4949]","[7838.9,7838.9,1944.6,5415.5,478.8,""smooth"",""up"",""up"",""good_move"",17679.3,9840,2389.9,14757.4,532,""smooth"",""up"",""up"",""good_move"",20756.7,3077.2,2200.4,17679.6,876.7,""oops"",""right"",""down"",""bad_move"",23477.1,2719.6,1814.1,20757.5,905.5,""smooth"",""right"",""right"",""good_move"",29640.3,6163,2400,26860.7,379.6,""smooth"",""up"",""up"",""good_move"",32188.6,2548.1,2246.1,29640.5,302,""smooth"",""right"",""right"",""good_move""]","",""
"83788","","<div style=""width:500px;"">
  <p>What determined the result of this run?</p>
  </div>","81","html-slider-response","30","529083","0.0-5.0-1.4","290","1","2025-07-30 12:15:50","1f75c3e559b7213887762d5229550c2b","154.117.143.238","Mozilla/5.0 (Windows NT 10.0; Win64; x64) AppleWebKit/537.36 (KHTML, like Gecko) Chrome/138.0.0.0 Safari/537.36","WebKit","Chrome","138.0.0.0","Windows","10.0","https://app.prolific.com/","en-US,en;q=0.9","60ad28c6d838565067ab1b6c","6877631c9844ddd5501205fc","688a0cea7636f4dc3c651097","3","1","60ad28c6d838565067ab1b6c","3","1","2025-07-30T12:24:41.825Z","","","","","","","","","","","AttribQ","","50","","","","","","","","","","","","","","","","","","","","","","","","","","","","",""
"19916","","<div style=""width:500px;"">
  <p>How much control did you have over the ball?</p>
  </div>","86","html-slider-response","31","549000","0.0-5.0-2.4","290","1","2025-07-30 12:15:50","1f75c3e559b7213887762d5229550c2b","154.117.143.238","Mozilla/5.0 (Windows NT 10.0; Win64; x64) AppleWebKit/537.36 (KHTML, like Gecko) Chrome/138.0.0.0 Safari/537.36","WebKit","Chrome","138.0.0.0","Windows","10.0","https://app.prolific.com/","en-US,en;q=0.9","60ad28c6d838565067ab1b6c","6877631c9844ddd5501205fc","688a0cea7636f4dc3c651097","3","1","60ad28c6d838565067ab1b6c","3","1","2025-07-30T12:25:01.743Z","","","","","","","","","","","ControlQ","","50","","","","","","","","","","","","","","","","","","","","","","","","","","","","",""
"2956","","<div style=""width:500px;"">
  <p>How would you describe your current emotional state?</p>
  </div>","17","html-slider-response","32","551958","0.0-5.0-3.4","290","1","2025-07-30 12:15:50","1f75c3e559b7213887762d5229550c2b","154.117.143.238","Mozilla/5.0 (Windows NT 10.0; Win64; x64) AppleWebKit/537.36 (KHTML, like Gecko) Chrome/138.0.0.0 Safari/537.36","WebKit","Chrome","138.0.0.0","Windows","10.0","https://app.prolific.com/","en-US,en;q=0.9","60ad28c6d838565067ab1b6c","6877631c9844ddd5501205fc","688a0cea7636f4dc3c651097","3","1","60ad28c6d838565067ab1b6c","3","1","2025-07-30T12:25:04.701Z","","","","","","","","","","","StressQ","","50","","","","","","","","","","","","","","","","","","","","","","","","","","","","",""
"6191","","<div style=""width:500px;"">
  <p>What best describes how you currently feel?</p>
  </div>","83","html-slider-response","33","558151","0.0-5.0-4.4","290","1","2025-07-30 12:15:50","1f75c3e559b7213887762d5229550c2b","154.117.143.238","Mozilla/5.0 (Windows NT 10.0; Win64; x64) AppleWebKit/537.36 (KHTML, like Gecko) Chrome/138.0.0.0 Safari/537.36","WebKit","Chrome","138.0.0.0","Windows","10.0","https://app.prolific.com/","en-US,en;q=0.9","60ad28c6d838565067ab1b6c","6877631c9844ddd5501205fc","688a0cea7636f4dc3c651097","3","1","60ad28c6d838565067ab1b6c","3","1","2025-07-30T12:25:10.893Z","","","","","","","","","","","MotivationQ","","50","","","","","","","","","","","","","","","","","","","","","","","","","","","","",""
"","","","","ctl-task-cpt","34","598344","0.0-5.0-0.5","290","1","2025-07-30 12:15:50","1f75c3e559b7213887762d5229550c2b","154.117.143.238","Mozilla/5.0 (Windows NT 10.0; Win64; x64) AppleWebKit/537.36 (KHTML, like Gecko) Chrome/138.0.0.0 Safari/537.36","WebKit","Chrome","138.0.0.0","Windows","10.0","https://app.prolific.com/","en-US,en;q=0.9","60ad28c6d838565067ab1b6c","6877631c9844ddd5501205fc","688a0cea7636f4dc3c651097","3","1","60ad28c6d838565067ab1b6c","3","1","2025-07-30T12:25:51.086Z","","","","","","","","","","","","","","win-only","0","g1:NW,g2:SE","0.5","6","0","561866.9","1271.8","6273.3","37174.1","1","4","8","6","2","8","8","27","19","0.20454545454545456","991.3","3000","550","[""down"",""right""]","{""num_key_presses"":8,""num_perfect"":5,""num_errors"":0,""num_randdir"":3,""num_randdir_good_moves"":2,""num_whilered"":0,""num_whileblue"":0,""num_blue"":3,""num_good_moves"":7}","[350.7142857142857,352.21428666796004,0.1,350.7142857142857,352.21428666796004,100.1,350.7142857142857,352.21428666796004,201.9,350.7142857142857,352.21428666796004,302.5,350.7142857142857,352.21428666796004,404.2,484.4642857142857,489.71428666796004,509,619.4642857142857,642.21428666796,614.9,619.4642857142857,642.21428666796,717.4,619.4642857142857,642.21428666796,817.4,619.4642857142857,642.21428666796,918.6,619.4642857142857,642.21428666796,1019.1,619.4642857142857,642.21428666796,1119.4,619.4642857142857,642.21428666796,1223.9,619.4642857142857,642.21428666796,1323.9,619.4642857142857,642.21428666796,1433.7,619.4642857142857,642.21428666796,1539.1,619.4642857142857,642.21428666796,1639.2,619.4642857142857,642.21428666796,1739.2,619.4642857142857,642.21428666796,1851.4,619.4642857142857,642.21428666796,1954,619.4642857142857,642.21428666796,2054.4,590.7142857142857,649.71428666796,2159,275.7142857142857,698.46428666796,2259.2,275.7142857142857,698.46428666796,2368,275.7142857142857,698.46428666796,2469.6,223.21428571428572,754.71428666796,2573.8,208.21428571428572,772.21428666796,2674.5,243.21428571428572,807.21428666796,2779.4,243.21428571428572,807.21428666796,2885.2,243.21428571428572,807.21428666796,2989.1,243.21428571428572,807.21428666796,3090.1,243.21428571428572,807.21428666796,3194.9,243.21428571428572,807.21428666796,3300.6,243.21428571428572,807.21428666796,3401,243.21428571428572,807.21428666796,3503.6,243.21428571428572,807.21428666796,3604.3,243.21428571428572,807.21428666796,3709.5,243.21428571428572,807.21428666796,3814,393.2142857142857,492.21428666796004,3918.5,393.2142857142857,489.71428666796004,4018.8,393.2142857142857,489.71428666796004,4120.1,498.2142857142857,502.21428666796004,4220.4,1065.7142857142858,502.21428666796004,4323.7,1136.9642857142858,443.46428666796004,4429,1146.9642857142858,430.96428666796004,4534.1,1146.9642857142858,430.96428666796004,4634.2,1146.9642857142858,430.96428666796004,4734.5,1146.9642857142858,430.96428666796004,4839.6,1146.9642857142858,430.96428666796004,4939.9]","[4906.4,4906.4,2431,2002.6,472.8,""smooth"",""down"",""down"",""good_move"",7907.5,3000.8,2600.3,4906.7,400.5,""smooth"",""right"",""right"",""good_move"",10238,2330.3,1921.9,7907.7,408.4,""oops"",""right"",""left"",""bad_move"",12599.6,2361.3,1950.7,10238.3,410.6,""smooth"",""down"",""down"",""good_move"",15205.3,2605.6,2171.6,12599.7,434,""oops"",""right"",""right"",""good_move"",24150.4,8944.9,2227.1,21571.1,352.2,""smooth"",""right"",""right"",""good_move"",27685.5,3534.8,3230.8,24150.7,304.1,""oops"",""down"",""down"",""good_move"",30798.4,3111.9,2662.7,27686.5,449.2,""smooth"",""right"",""right"",""good_move""]","",""
"3628","","<div style=""width:500px;"">
  <p>What determined the result of this run?</p>
  </div>","85","html-slider-response","35","601973","0.0-5.0-1.5","290","1","2025-07-30 12:15:50","1f75c3e559b7213887762d5229550c2b","154.117.143.238","Mozilla/5.0 (Windows NT 10.0; Win64; x64) AppleWebKit/537.36 (KHTML, like Gecko) Chrome/138.0.0.0 Safari/537.36","WebKit","Chrome","138.0.0.0","Windows","10.0","https://app.prolific.com/","en-US,en;q=0.9","60ad28c6d838565067ab1b6c","6877631c9844ddd5501205fc","688a0cea7636f4dc3c651097","3","1","60ad28c6d838565067ab1b6c","3","1","2025-07-30T12:25:54.715Z","","","","","","","","","","","AttribQ","","50","","","","","","","","","","","","","","","","","","","","","","","","","","","","",""
"6233","","<div style=""width:500px;"">
  <p>How much control did you have over the ball?</p>
  </div>","85","html-slider-response","36","608207","0.0-5.0-2.5","290","1","2025-07-30 12:15:50","1f75c3e559b7213887762d5229550c2b","154.117.143.238","Mozilla/5.0 (Windows NT 10.0; Win64; x64) AppleWebKit/537.36 (KHTML, like Gecko) Chrome/138.0.0.0 Safari/537.36","WebKit","Chrome","138.0.0.0","Windows","10.0","https://app.prolific.com/","en-US,en;q=0.9","60ad28c6d838565067ab1b6c","6877631c9844ddd5501205fc","688a0cea7636f4dc3c651097","3","1","60ad28c6d838565067ab1b6c","3","1","2025-07-30T12:26:00.949Z","","","","","","","","","","","ControlQ","","50","","","","","","","","","","","","","","","","","","","","","","","","","","","","",""
"6774","","<div style=""width:500px;"">
  <p>How would you describe your current emotional state?</p>
  </div>","19","html-slider-response","37","614982","0.0-5.0-3.5","290","1","2025-07-30 12:15:50","1f75c3e559b7213887762d5229550c2b","154.117.143.238","Mozilla/5.0 (Windows NT 10.0; Win64; x64) AppleWebKit/537.36 (KHTML, like Gecko) Chrome/138.0.0.0 Safari/537.36","WebKit","Chrome","138.0.0.0","Windows","10.0","https://app.prolific.com/","en-US,en;q=0.9","60ad28c6d838565067ab1b6c","6877631c9844ddd5501205fc","688a0cea7636f4dc3c651097","3","1","60ad28c6d838565067ab1b6c","3","1","2025-07-30T12:26:07.724Z","","","","","","","","","","","StressQ","","50","","","","","","","","","","","","","","","","","","","","","","","","","","","","",""
"2551","","<div style=""width:500px;"">
  <p>What best describes how you currently feel?</p>
  </div>","86","html-slider-response","38","617534","0.0-5.0-4.5","290","1","2025-07-30 12:15:50","1f75c3e559b7213887762d5229550c2b","154.117.143.238","Mozilla/5.0 (Windows NT 10.0; Win64; x64) AppleWebKit/537.36 (KHTML, like Gecko) Chrome/138.0.0.0 Safari/537.36","WebKit","Chrome","138.0.0.0","Windows","10.0","https://app.prolific.com/","en-US,en;q=0.9","60ad28c6d838565067ab1b6c","6877631c9844ddd5501205fc","688a0cea7636f4dc3c651097","3","1","60ad28c6d838565067ab1b6c","3","1","2025-07-30T12:26:10.276Z","","","","","","","","","","","MotivationQ","","50","","","","","","","","","","","","","","","","","","","","","","","","","","","","",""
"","","","","ctl-task-cpt","39","663344","0.0-5.0-0.6","290","1","2025-07-30 12:15:50","1f75c3e559b7213887762d5229550c2b","154.117.143.238","Mozilla/5.0 (Windows NT 10.0; Win64; x64) AppleWebKit/537.36 (KHTML, like Gecko) Chrome/138.0.0.0 Safari/537.36","WebKit","Chrome","138.0.0.0","Windows","10.0","https://app.prolific.com/","en-US,en;q=0.9","60ad28c6d838565067ab1b6c","6877631c9844ddd5501205fc","688a0cea7636f4dc3c651097","3","1","60ad28c6d838565067ab1b6c","3","1","2025-07-30T12:26:56.086Z","","","","","","","","","","","","","","win-only","1","g1:NE,g2:SW","0.4","7","0","621248.6","1122.6","6125.8","42801.2","1","4","8","6","2","-8","-9","18","27","0.13636363636363635","1127.2","3000","-2450","[""down"",""left""]","{""num_key_presses"":10,""num_perfect"":4,""num_errors"":1,""num_randdir"":5,""num_randdir_good_moves"":2,""num_whilered"":0,""num_whileblue"":1,""num_blue"":3,""num_good_moves"":7}","[353.2142857142857,353.46428666796004,0.1,353.2142857142857,353.46428666796004,102.9,353.2142857142857,353.46428666796004,203,353.2142857142857,353.46428666796004,304.3,353.2142857142857,353.46428666796004,408.1,346.9642857142857,359.71428666796004,520.3,176.96428571428572,542.21428666796,622.8,118.21428571428572,580.96428666796,724,115.71428571428572,582.21428666796,824,106.96428571428572,589.71428666796,928.2,76.96428571428572,627.21428666796,1035.8,76.96428571428572,627.21428666796,1138.3,76.96428571428572,627.21428666796,1251.7,76.96428571428572,627.21428666796,1352.7,76.96428571428572,627.21428666796,1452.8,76.96428571428572,627.21428666796,1558.1,76.96428571428572,627.21428666796,1668.3,76.96428571428572,627.21428666796,1768.4,76.96428571428572,627.21428666796,1873.2,-83.03571428571428,557.21428666796,1973.3,-111.78571428571428,562.21428666796,2085.5,-111.78571428571428,563.46428666796,2185.6,-111.78571428571428,563.46428666796,2288,-111.78571428571428,563.46428666796,2388.1,-111.78571428571428,563.46428666796,2492.9,-111.78571428571428,563.46428666796,2601.6,-111.78571428571428,563.46428666796,2703,-111.78571428571428,563.46428666796,2803.1,-111.78571428571428,563.46428666796,2904.2,-111.78571428571428,563.46428666796,3004.3,-111.78571428571428,563.46428666796,3108.5,-111.78571428571428,563.46428666796,3208.5,-111.78571428571428,563.46428666796,3308.6,-111.78571428571428,563.46428666796,3418.1,-111.78571428571428,563.46428666796,3523.2,-111.78571428571428,563.46428666796,3623.2,-111.78571428571428,563.46428666796,3724.2,-111.78571428571428,563.46428666796,3824.4,-111.78571428571428,563.46428666796,3928.1,-111.78571428571428,563.46428666796,4028.4,-111.78571428571428,563.46428666796,4129.9,-111.78571428571428,563.46428666796,4236.1,-111.78571428571428,563.46428666796,4338.2,-111.78571428571428,563.46428666796,4438.4,-111.78571428571428,563.46428666796,4538.6,-111.78571428571428,563.46428666796,4651.7,-111.78571428571428,563.46428666796,4752.6,-111.78571428571428,563.46428666796,4853.9,-111.78571428571428,563.46428666796,4958.3]","[1433.5,1433.5,1000,0,433.6,""smooth"",""down"",""down"",""good_move"",4447,3013.1,2618.4,1433.9,394.7,""smooth"",""left"",""left"",""good_move"",11039.6,6592.5,2850.7,7819.8,369.2,""smooth"",""down"",""down"",""good_move"",14496.3,3456.4,3108.4,11040,348,""while_blue"",""left"",""left"",""good_move"",17482.1,2985.4,2544.5,14496.7,440.9,""oops"",""down"",""up"",""bad_move"",19798.5,2316.1,1928.3,17482.4,387.8,""oops"",""left"",""up"",""bad_move"",22534.7,2736.1,2349.6,19798.6,386.5,""smooth"",""left"",""left"",""good_move"",25847.6,3312.8,3014.3,22534.8,298.5,""oops"",""down"",""down"",""good_move"",28282.8,2434.9,2090.2,25847.9,344.7,""oops"",""down"",""up"",""bad_move"",34416.3,6133.3,2164.1,31884.9,367.3,""oops"",""down"",""down"",""good_move""]","",""
"3914","","<div style=""width:500px;"">
  <p>What determined the result of this run?</p>
  </div>","80","html-slider-response","40","667259","0.0-5.0-1.6","290","1","2025-07-30 12:15:50","1f75c3e559b7213887762d5229550c2b","154.117.143.238","Mozilla/5.0 (Windows NT 10.0; Win64; x64) AppleWebKit/537.36 (KHTML, like Gecko) Chrome/138.0.0.0 Safari/537.36","WebKit","Chrome","138.0.0.0","Windows","10.0","https://app.prolific.com/","en-US,en;q=0.9","60ad28c6d838565067ab1b6c","6877631c9844ddd5501205fc","688a0cea7636f4dc3c651097","3","1","60ad28c6d838565067ab1b6c","3","1","2025-07-30T12:27:00.001Z","","","","","","","","","","","AttribQ","","50","","","","","","","","","","","","","","","","","","","","","","","","","","","","",""
"2878","","<div style=""width:500px;"">
  <p>How much control did you have over the ball?</p>
  </div>","83","html-slider-response","41","670138","0.0-5.0-2.6","290","1","2025-07-30 12:15:50","1f75c3e559b7213887762d5229550c2b","154.117.143.238","Mozilla/5.0 (Windows NT 10.0; Win64; x64) AppleWebKit/537.36 (KHTML, like Gecko) Chrome/138.0.0.0 Safari/537.36","WebKit","Chrome","138.0.0.0","Windows","10.0","https://app.prolific.com/","en-US,en;q=0.9","60ad28c6d838565067ab1b6c","6877631c9844ddd5501205fc","688a0cea7636f4dc3c651097","3","1","60ad28c6d838565067ab1b6c","3","1","2025-07-30T12:27:02.880Z","","","","","","","","","","","ControlQ","","50","","","","","","","","","","","","","","","","","","","","","","","","","","","","",""
"2343","","<div style=""width:500px;"">
  <p>How would you describe your current emotional state?</p>
  </div>","18","html-slider-response","42","672481","0.0-5.0-3.6","290","1","2025-07-30 12:15:50","1f75c3e559b7213887762d5229550c2b","154.117.143.238","Mozilla/5.0 (Windows NT 10.0; Win64; x64) AppleWebKit/537.36 (KHTML, like Gecko) Chrome/138.0.0.0 Safari/537.36","WebKit","Chrome","138.0.0.0","Windows","10.0","https://app.prolific.com/","en-US,en;q=0.9","60ad28c6d838565067ab1b6c","6877631c9844ddd5501205fc","688a0cea7636f4dc3c651097","3","1","60ad28c6d838565067ab1b6c","3","1","2025-07-30T12:27:05.223Z","","","","","","","","","","","StressQ","","50","","","","","","","","","","","","","","","","","","","","","","","","","","","","",""
"2289","","<div style=""width:500px;"">
  <p>What best describes how you currently feel?</p>
  </div>","81","html-slider-response","43","674772","0.0-5.0-4.6","290","1","2025-07-30 12:15:50","1f75c3e559b7213887762d5229550c2b","154.117.143.238","Mozilla/5.0 (Windows NT 10.0; Win64; x64) AppleWebKit/537.36 (KHTML, like Gecko) Chrome/138.0.0.0 Safari/537.36","WebKit","Chrome","138.0.0.0","Windows","10.0","https://app.prolific.com/","en-US,en;q=0.9","60ad28c6d838565067ab1b6c","6877631c9844ddd5501205fc","688a0cea7636f4dc3c651097","3","1","60ad28c6d838565067ab1b6c","3","1","2025-07-30T12:27:07.514Z","","","","","","","","","","","MotivationQ","","50","","","","","","","","","","","","","","","","","","","","","","","","","","","","",""
"","","","","ctl-task-cpt","44","709276","0.0-5.0-0.7","290","1","2025-07-30 12:15:50","1f75c3e559b7213887762d5229550c2b","154.117.143.238","Mozilla/5.0 (Windows NT 10.0; Win64; x64) AppleWebKit/537.36 (KHTML, like Gecko) Chrome/138.0.0.0 Safari/537.36","WebKit","Chrome","138.0.0.0","Windows","10.0","https://app.prolific.com/","en-US,en;q=0.9","60ad28c6d838565067ab1b6c","6877631c9844ddd5501205fc","688a0cea7636f4dc3c651097","3","1","60ad28c6d838565067ab1b6c","3","1","2025-07-30T12:27:42.018Z","","","","","","","","","","","","","","win-only","0","g1:NW,g2:SE","0.3","8","0","678485.2","1052.2","6054.2","31500.6","1","4","4","6","2","-4","-4","14","18","0.10606060606060606","1300.8","3000","-2720","[""down"",""right""]","{""num_key_presses"":7,""num_perfect"":3,""num_errors"":0,""num_randdir"":4,""num_randdir_good_moves"":0,""num_whilered"":0,""num_whileblue"":0,""num_blue"":1,""num_good_moves"":3}","[351.9642857142857,342.21428666796004,0.3,351.9642857142857,342.21428666796004,103.6,351.9642857142857,342.21428666796004,204.1,351.9642857142857,342.21428666796004,307.9,351.9642857142857,342.21428666796004,408.9,351.9642857142857,342.21428666796004,513.8,513.2142857142857,453.46428666796004,618.1,566.9642857142857,525.96428666796,719.5,631.9642857142857,587.21428666796,824.1,695.7142857142857,630.96428666796,934.2,681.9642857142857,627.21428666796,1039.2,661.9642857142857,637.21428666796,1151.8,661.9642857142857,637.21428666796,1253.3,661.9642857142857,637.21428666796,1358.3,661.9642857142857,637.21428666796,1469.9,661.9642857142857,637.21428666796,1573.2,661.9642857142857,637.21428666796,1673.2,661.9642857142857,637.21428666796,1774,868.2142857142857,634.71428666796,1874,925.7142857142857,614.71428666796,1979,925.7142857142857,614.71428666796,2084.2,925.7142857142857,614.71428666796,2188.2,925.7142857142857,614.71428666796,2288.8,925.7142857142857,614.71428666796,2393.5,925.7142857142857,614.71428666796,2501.8,925.7142857142857,614.71428666796,2603.1,925.7142857142857,614.71428666796,2703.3,925.7142857142857,614.71428666796,2803.6,925.7142857142857,614.71428666796,2904.1,925.7142857142857,614.71428666796,3008.2,925.7142857142857,614.71428666796,3108.6,925.7142857142857,614.71428666796,3209.1,925.7142857142857,614.71428666796,3314,925.7142857142857,614.71428666796,3418.6,925.7142857142857,614.71428666796,3519.1,925.7142857142857,614.71428666796,3623.9,925.7142857142857,614.71428666796,3728.6,925.7142857142857,614.71428666796,3829.5,925.7142857142857,614.71428666796,3937.6,925.7142857142857,614.71428666796,4039.2,925.7142857142857,614.71428666796,4152.9,925.7142857142857,614.71428666796,4253.4,925.7142857142857,614.71428666796,4353.6,925.7142857142857,614.71428666796,4458.1,925.7142857142857,614.71428666796,4558.2,925.7142857142857,614.71428666796,4659,925.7142857142857,614.71428666796,4769.4,925.7142857142857,614.71428666796,4874,925.7142857142857,614.71428666796,4978.9]","[1382.4,1382.4,1000,0,382.4,""smooth"",""down"",""down"",""good_move"",6911.4,5528.7,1994.8,4551.1,365.5,""oops"",""right"",""left"",""bad_move"",9666.1,2754.3,2361.9,6911.9,392.4,""smooth"",""down"",""down"",""good_move"",12328.6,2662.3,2190.8,9666.3,471.5,""oops"",""down"",""up"",""bad_move"",16435.5,4106.6,3276.5,12328.9,830.1,""oops"",""down"",""left"",""bad_move"",19749.3,3313.4,2705.8,16436,607.5,""oops"",""down"",""up"",""bad_move"",22439.2,2689.8,2062.1,19749.4,627.7,""smooth"",""down"",""down"",""good_move""]","",""
"2809","","<div style=""width:500px;"">
  <p>What determined the result of this run?</p>
  </div>","82","html-slider-response","45","712086","0.0-5.0-1.7","290","1","2025-07-30 12:15:50","1f75c3e559b7213887762d5229550c2b","154.117.143.238","Mozilla/5.0 (Windows NT 10.0; Win64; x64) AppleWebKit/537.36 (KHTML, like Gecko) Chrome/138.0.0.0 Safari/537.36","WebKit","Chrome","138.0.0.0","Windows","10.0","https://app.prolific.com/","en-US,en;q=0.9","60ad28c6d838565067ab1b6c","6877631c9844ddd5501205fc","688a0cea7636f4dc3c651097","3","1","60ad28c6d838565067ab1b6c","3","1","2025-07-30T12:27:44.828Z","","","","","","","","","","","AttribQ","","50","","","","","","","","","","","","","","","","","","","","","","","","","","","","",""
"2287","","<div style=""width:500px;"">
  <p>How much control did you have over the ball?</p>
  </div>","86","html-slider-response","46","714374","0.0-5.0-2.7","290","1","2025-07-30 12:15:50","1f75c3e559b7213887762d5229550c2b","154.117.143.238","Mozilla/5.0 (Windows NT 10.0; Win64; x64) AppleWebKit/537.36 (KHTML, like Gecko) Chrome/138.0.0.0 Safari/537.36","WebKit","Chrome","138.0.0.0","Windows","10.0","https://app.prolific.com/","en-US,en;q=0.9","60ad28c6d838565067ab1b6c","6877631c9844ddd5501205fc","688a0cea7636f4dc3c651097","3","1","60ad28c6d838565067ab1b6c","3","1","2025-07-30T12:27:47.116Z","","","","","","","","","","","ControlQ","","50","","","","","","","","","","","","","","","","","","","","","","","","","","","","",""
"2670","","<div style=""width:500px;"">
  <p>How would you describe your current emotional state?</p>
  </div>","15","html-slider-response","47","717045","0.0-5.0-3.7","290","1","2025-07-30 12:15:50","1f75c3e559b7213887762d5229550c2b","154.117.143.238","Mozilla/5.0 (Windows NT 10.0; Win64; x64) AppleWebKit/537.36 (KHTML, like Gecko) Chrome/138.0.0.0 Safari/537.36","WebKit","Chrome","138.0.0.0","Windows","10.0","https://app.prolific.com/","en-US,en;q=0.9","60ad28c6d838565067ab1b6c","6877631c9844ddd5501205fc","688a0cea7636f4dc3c651097","3","1","60ad28c6d838565067ab1b6c","3","1","2025-07-30T12:27:49.788Z","","","","","","","","","","","StressQ","","50","","","","","","","","","","","","","","","","","","","","","","","","","","","","",""
"12605","","<div style=""width:500px;"">
  <p>What best describes how you currently feel?</p>
  </div>","78","html-slider-response","48","729652","0.0-5.0-4.7","290","1","2025-07-30 12:15:50","1f75c3e559b7213887762d5229550c2b","154.117.143.238","Mozilla/5.0 (Windows NT 10.0; Win64; x64) AppleWebKit/537.36 (KHTML, like Gecko) Chrome/138.0.0.0 Safari/537.36","WebKit","Chrome","138.0.0.0","Windows","10.0","https://app.prolific.com/","en-US,en;q=0.9","60ad28c6d838565067ab1b6c","6877631c9844ddd5501205fc","688a0cea7636f4dc3c651097","3","1","60ad28c6d838565067ab1b6c","3","1","2025-07-30T12:28:02.394Z","","","","","","","","","","","MotivationQ","","50","","","","","","","","","","","","","","","","","","","","","","","","","","","","",""
"","","","","ctl-task-cpt","49","779827","0.0-5.0-0.8","290","1","2025-07-30 12:15:50","1f75c3e559b7213887762d5229550c2b","154.117.143.238","Mozilla/5.0 (Windows NT 10.0; Win64; x64) AppleWebKit/537.36 (KHTML, like Gecko) Chrome/138.0.0.0 Safari/537.36","WebKit","Chrome","138.0.0.0","Windows","10.0","https://app.prolific.com/","en-US,en;q=0.9","60ad28c6d838565067ab1b6c","6877631c9844ddd5501205fc","688a0cea7636f4dc3c651097","3","1","60ad28c6d838565067ab1b6c","3","1","2025-07-30T12:28:52.569Z","","","","","","","","","","","","","","win-only","1","g1:NE,g2:SW","0.2","9","0","733366.5","1154.7","6156.4","47156","1","4","8","6","2","-8","-8","6","14","0.045454545454545456","1746.8","3000","-2400","[""down"",""left""]","{""num_key_presses"":10,""num_perfect"":2,""num_errors"":0,""num_randdir"":8,""num_randdir_good_moves"":4,""num_whilered"":0,""num_whileblue"":0,""num_blue"":4,""num_good_moves"":6}","[354.4642857142857,350.96428666796004,0.3,354.4642857142857,350.96428666796004,100.8,354.4642857142857,350.96428666796004,201.4,354.4642857142857,350.96428666796004,306.4,354.4642857142857,350.96428666796004,406.5,354.4642857142857,350.96428666796004,507.2,354.4642857142857,350.96428666796004,615.8,354.4642857142857,350.96428666796004,716.3,354.4642857142857,350.96428666796004,817.5,354.4642857142857,350.96428666796004,920.5,354.4642857142857,350.96428666796004,1020.6,354.4642857142857,350.96428666796004,1120.6,206.96428571428572,533.46428666796,1220.6,141.96428571428572,602.21428666796,1320.7,141.96428571428572,602.21428666796,1421.4,126.96428571428572,609.71428666796,1521.6,94.46428571428572,622.21428666796,1632.3,94.46428571428572,622.21428666796,1734.7,94.46428571428572,622.21428666796,1836.4,94.46428571428572,622.21428666796,1936.5,94.46428571428572,622.21428666796,2040.7,94.46428571428572,622.21428666796,2140.9,94.46428571428572,622.21428666796,2241.2,94.46428571428572,622.21428666796,2350.1,94.46428571428572,622.21428666796,2450.8,94.46428571428572,622.21428666796,2551.7,94.46428571428572,622.21428666796,2656.6,94.46428571428572,622.21428666796,2766.8,94.46428571428572,622.21428666796,2870.7,94.46428571428572,622.21428666796,2971.9,94.46428571428572,622.21428666796,3076.2,94.46428571428572,622.21428666796,3176.5,94.46428571428572,622.21428666796,3284.2,94.46428571428572,622.21428666796,3386.2,94.46428571428572,622.21428666796,3491,94.46428571428572,622.21428666796,3600.8,94.46428571428572,622.21428666796,3701.1,94.46428571428572,622.21428666796,3806.2,94.46428571428572,622.21428666796,3917.9,94.46428571428572,622.21428666796,4018.6,94.46428571428572,622.21428666796,4120.8,94.46428571428572,622.21428666796,4221.5,94.46428571428572,622.21428666796,4334.8,94.46428571428572,622.21428666796,4436.5,94.46428571428572,622.21428666796,4540.4,94.46428571428572,622.21428666796,4641.1,94.46428571428572,622.21428666796,4751.1,94.46428571428572,622.21428666796,4856.4,94.46428571428572,622.21428666796,4965.7]","[5081,5081,2698.4,2003.8,378.8,""oops"",""left"",""up"",""bad_move"",12297.4,7216,2725.9,9154.3,417.2,""smooth"",""down"",""down"",""good_move"",15081.4,2783.8,2374.2,12297.6,409.6,""smooth"",""down"",""down"",""good_move"",17818.1,2736.5,2376.8,15081.6,359.7,""oops"",""left"",""down"",""good_move"",20648.9,2830.6,2506.6,17818.3,324,""oops"",""left"",""down"",""good_move"",29254,8604.8,1737.5,27134.9,381.6,""oops"",""left"",""right"",""bad_move"",31763.7,2509.3,2142.5,29254.4,366.8,""oops"",""left"",""up"",""bad_move"",34030.9,2266.9,1788.6,31764,478.3,""oops"",""left"",""right"",""bad_move"",36668.6,2637.4,2257.5,34031.2,379.9,""oops"",""down"",""down"",""good_move"",38996.6,2327.9,1988.1,36668.7,339.8,""oops"",""left"",""left"",""good_move""]","",""
"10785","","<div style=""width:500px;"">
  <p>What determined the result of this run?</p>
  </div>","11","html-slider-response","50","790613","0.0-5.0-1.8","290","1","2025-07-30 12:15:50","1f75c3e559b7213887762d5229550c2b","154.117.143.238","Mozilla/5.0 (Windows NT 10.0; Win64; x64) AppleWebKit/537.36 (KHTML, like Gecko) Chrome/138.0.0.0 Safari/537.36","WebKit","Chrome","138.0.0.0","Windows","10.0","https://app.prolific.com/","en-US,en;q=0.9","60ad28c6d838565067ab1b6c","6877631c9844ddd5501205fc","688a0cea7636f4dc3c651097","3","1","60ad28c6d838565067ab1b6c","3","1","2025-07-30T12:29:03.355Z","","","","","","","","","","","AttribQ","","50","","","","","","","","","","","","","","","","","","","","","","","","","","","","",""
"2539","","<div style=""width:500px;"">
  <p>How much control did you have over the ball?</p>
  </div>","42","html-slider-response","51","793153","0.0-5.0-2.8","290","1","2025-07-30 12:15:50","1f75c3e559b7213887762d5229550c2b","154.117.143.238","Mozilla/5.0 (Windows NT 10.0; Win64; x64) AppleWebKit/537.36 (KHTML, like Gecko) Chrome/138.0.0.0 Safari/537.36","WebKit","Chrome","138.0.0.0","Windows","10.0","https://app.prolific.com/","en-US,en;q=0.9","60ad28c6d838565067ab1b6c","6877631c9844ddd5501205fc","688a0cea7636f4dc3c651097","3","1","60ad28c6d838565067ab1b6c","3","1","2025-07-30T12:29:05.896Z","","","","","","","","","","","ControlQ","","50","","","","","","","","","","","","","","","","","","","","","","","","","","","","",""
"3337","","<div style=""width:500px;"">
  <p>How would you describe your current emotional state?</p>
  </div>","14","html-slider-response","52","796492","0.0-5.0-3.8","290","1","2025-07-30 12:15:50","1f75c3e559b7213887762d5229550c2b","154.117.143.238","Mozilla/5.0 (Windows NT 10.0; Win64; x64) AppleWebKit/537.36 (KHTML, like Gecko) Chrome/138.0.0.0 Safari/537.36","WebKit","Chrome","138.0.0.0","Windows","10.0","https://app.prolific.com/","en-US,en;q=0.9","60ad28c6d838565067ab1b6c","6877631c9844ddd5501205fc","688a0cea7636f4dc3c651097","3","1","60ad28c6d838565067ab1b6c","3","1","2025-07-30T12:29:09.234Z","","","","","","","","","","","StressQ","","50","","","","","","","","","","","","","","","","","","","","","","","","","","","","",""
"16458","","<div style=""width:500px;"">
  <p>What best describes how you currently feel?</p>
  </div>","80","html-slider-response","53","812951","0.0-5.0-4.8","290","1","2025-07-30 12:15:50","1f75c3e559b7213887762d5229550c2b","154.117.143.238","Mozilla/5.0 (Windows NT 10.0; Win64; x64) AppleWebKit/537.36 (KHTML, like Gecko) Chrome/138.0.0.0 Safari/537.36","WebKit","Chrome","138.0.0.0","Windows","10.0","https://app.prolific.com/","en-US,en;q=0.9","60ad28c6d838565067ab1b6c","6877631c9844ddd5501205fc","688a0cea7636f4dc3c651097","3","1","60ad28c6d838565067ab1b6c","3","1","2025-07-30T12:29:25.693Z","","","","","","","","","","","MotivationQ","","50","","","","","","","","","","","","","","","","","","","","","","","","","","","","",""
"","","","","ctl-task-cpt","54","852823","0.0-5.0-0.9","290","1","2025-07-30 12:15:50","1f75c3e559b7213887762d5229550c2b","154.117.143.238","Mozilla/5.0 (Windows NT 10.0; Win64; x64) AppleWebKit/537.36 (KHTML, like Gecko) Chrome/138.0.0.0 Safari/537.36","WebKit","Chrome","138.0.0.0","Windows","10.0","https://app.prolific.com/","en-US,en;q=0.9","60ad28c6d838565067ab1b6c","6877631c9844ddd5501205fc","688a0cea7636f4dc3c651097","3","1","60ad28c6d838565067ab1b6c","3","1","2025-07-30T12:30:05.565Z","","","","","","","","","","","","","","win-only","0","g1:NW,g2:SE","0.4","10","0","816665.3","1106.4","6111.4","36860.2","1","4","4","6","2","-4","-4","2","6","0.015151515151515152","1166.5","3000","-2920","[""down"",""right""]","{""num_key_presses"":8,""num_perfect"":4,""num_errors"":0,""num_randdir"":4,""num_randdir_good_moves"":0,""num_whilered"":0,""num_whileblue"":0,""num_blue"":2,""num_good_moves"":4}","[351.9642857142857,345.96428666796004,0.1,351.9642857142857,345.96428666796004,104.2,351.9642857142857,345.96428666796004,205,351.9642857142857,345.96428666796004,307.7,351.9642857142857,345.96428666796004,412.2,410.7142857142857,417.21428666796004,515.2,521.9642857142857,517.21428666796,618.8,559.4642857142857,537.21428666796,719.6,591.9642857142857,555.96428666796,826.1,630.7142857142857,602.21428666796,929.1,636.9642857142857,614.71428666796,1029.7,636.9642857142857,614.71428666796,1133.8,636.9642857142857,614.71428666796,1234.9,636.9642857142857,614.71428666796,1335.2,636.9642857142857,614.71428666796,1439.8,636.9642857142857,614.71428666796,1544.8,636.9642857142857,614.71428666796,1646.3,563.2142857142857,629.71428666796,1749.8,471.9642857142857,649.71428666796,1850.5,415.7142857142857,660.96428666796,1954.5,411.9642857142857,662.21428666796,2054.8,410.7142857142857,659.71428666796,2154.9,353.2142857142857,674.71428666796,2260.3,291.9642857142857,693.46428666796,2364.5,291.9642857142857,693.46428666796,2465,291.9642857142857,693.46428666796,2569.7,291.9642857142857,693.46428666796,2674.6,291.9642857142857,693.46428666796,2777.5,291.9642857142857,693.46428666796,2879.5,291.9642857142857,693.46428666796,2981.6,291.9642857142857,693.46428666796,3084.8,291.9642857142857,693.46428666796,3190,291.9642857142857,693.46428666796,3298.6,291.9642857142857,693.46428666796,3398.6,291.9642857142857,693.46428666796,3498.8,291.9642857142857,693.46428666796,3598.9,291.9642857142857,693.46428666796,3699.7,291.9642857142857,693.46428666796,3807.3,291.9642857142857,693.46428666796,3912.7,291.9642857142857,693.46428666796,4014.4,291.9642857142857,693.46428666796,4115.2,291.9642857142857,693.46428666796,4219.8,291.9642857142857,693.46428666796,4325.2,291.9642857142857,693.46428666796,4426.7,291.9642857142857,693.46428666796,4527.1,291.9642857142857,693.46428666796,4629.4,291.9642857142857,693.46428666796,4735.1,291.9642857142857,693.46428666796,4839.7,291.9642857142857,693.46428666796,4940.3]","[1393.2,1393.2,1000,0,393.2,""oops"",""down"",""up"",""bad_move"",4059.8,2666.2,2319.2,1393.6,347,""smooth"",""right"",""right"",""good_move"",6156.7,2096.5,1725,4060.2,371.5,""smooth"",""right"",""right"",""good_move"",15195.6,9038.7,2094.9,12720.4,380.3,""smooth"",""down"",""down"",""good_move"",18292,3096,2689.3,15196,406.7,""oops"",""down"",""up"",""bad_move"",21442,3149.4,2780.8,18292.6,368.6,""smooth"",""right"",""right"",""good_move"",24136.2,2693.9,2316,21442.3,377.9,""oops"",""down"",""up"",""bad_move"",27352,3215.4,2894.3,24136.6,321.1,""oops"",""down"",""up"",""bad_move""]","",""
"3088","","<div style=""width:500px;"">
  <p>What determined the result of this run?</p>
  </div>","11","html-slider-response","55","855912","0.0-5.0-1.9","290","1","2025-07-30 12:15:50","1f75c3e559b7213887762d5229550c2b","154.117.143.238","Mozilla/5.0 (Windows NT 10.0; Win64; x64) AppleWebKit/537.36 (KHTML, like Gecko) Chrome/138.0.0.0 Safari/537.36","WebKit","Chrome","138.0.0.0","Windows","10.0","https://app.prolific.com/","en-US,en;q=0.9","60ad28c6d838565067ab1b6c","6877631c9844ddd5501205fc","688a0cea7636f4dc3c651097","3","1","60ad28c6d838565067ab1b6c","3","1","2025-07-30T12:30:08.655Z","","","","","","","","","","","AttribQ","","50","","","","","","","","","","","","","","","","","","","","","","","","","","","","",""
"2890","","<div style=""width:500px;"">
  <p>How much control did you have over the ball?</p>
  </div>","24","html-slider-response","56","858804","0.0-5.0-2.9","290","1","2025-07-30 12:15:50","1f75c3e559b7213887762d5229550c2b","154.117.143.238","Mozilla/5.0 (Windows NT 10.0; Win64; x64) AppleWebKit/537.36 (KHTML, like Gecko) Chrome/138.0.0.0 Safari/537.36","WebKit","Chrome","138.0.0.0","Windows","10.0","https://app.prolific.com/","en-US,en;q=0.9","60ad28c6d838565067ab1b6c","6877631c9844ddd5501205fc","688a0cea7636f4dc3c651097","3","1","60ad28c6d838565067ab1b6c","3","1","2025-07-30T12:30:11.546Z","","","","","","","","","","","ControlQ","","50","","","","","","","","","","","","","","","","","","","","","","","","","","","","",""
"1878","","<div style=""width:500px;"">
  <p>How would you describe your current emotional state?</p>
  </div>","27","html-slider-response","57","860683","0.0-5.0-3.9","290","1","2025-07-30 12:15:50","1f75c3e559b7213887762d5229550c2b","154.117.143.238","Mozilla/5.0 (Windows NT 10.0; Win64; x64) AppleWebKit/537.36 (KHTML, like Gecko) Chrome/138.0.0.0 Safari/537.36","WebKit","Chrome","138.0.0.0","Windows","10.0","https://app.prolific.com/","en-US,en;q=0.9","60ad28c6d838565067ab1b6c","6877631c9844ddd5501205fc","688a0cea7636f4dc3c651097","3","1","60ad28c6d838565067ab1b6c","3","1","2025-07-30T12:30:13.425Z","","","","","","","","","","","StressQ","","50","","","","","","","","","","","","","","","","","","","","","","","","","","","","",""
"2551","","<div style=""width:500px;"">
  <p>What best describes how you currently feel?</p>
  </div>","67","html-slider-response","58","863237","0.0-5.0-4.9","290","1","2025-07-30 12:15:50","1f75c3e559b7213887762d5229550c2b","154.117.143.238","Mozilla/5.0 (Windows NT 10.0; Win64; x64) AppleWebKit/537.36 (KHTML, like Gecko) Chrome/138.0.0.0 Safari/537.36","WebKit","Chrome","138.0.0.0","Windows","10.0","https://app.prolific.com/","en-US,en;q=0.9","60ad28c6d838565067ab1b6c","6877631c9844ddd5501205fc","688a0cea7636f4dc3c651097","3","1","60ad28c6d838565067ab1b6c","3","1","2025-07-30T12:30:15.979Z","","","","","","","","","","","MotivationQ","","50","","","","","","","","","","","","","","","","","","","","","","","","","","","","",""
"","","","","ctl-task-cpt","59","915769","0.0-5.0-0.10","290","1","2025-07-30 12:15:50","1f75c3e559b7213887762d5229550c2b","154.117.143.238","Mozilla/5.0 (Windows NT 10.0; Win64; x64) AppleWebKit/537.36 (KHTML, like Gecko) Chrome/138.0.0.0 Safari/537.36","WebKit","Chrome","138.0.0.0","Windows","10.0","https://app.prolific.com/","en-US,en;q=0.9","60ad28c6d838565067ab1b6c","6877631c9844ddd5501205fc","688a0cea7636f4dc3c651097","3","1","60ad28c6d838565067ab1b6c","3","1","2025-07-30T12:31:08.512Z","","","","","","","","","","","","","","win-only","2","g1:SE,g2:NW","0.5","11","0","866951.7","1062.8","6067.2","49511.7","1","4","8","6","2","-8","-8","0","2","0","1855.2","3000","-2165","[""left"",""up""]","{""num_key_presses"":10,""num_perfect"":5,""num_errors"":0,""num_randdir"":5,""num_randdir_good_moves"":2,""num_whilered"":0,""num_whileblue"":0,""num_blue"":4,""num_good_moves"":7}","[354.4642857142857,350.96428666796004,0.4,354.4642857142857,350.96428666796004,103.2,354.4642857142857,350.96428666796004,203.7,354.4642857142857,350.96428666796004,307.4,354.4642857142857,350.96428666796004,407.9,354.4642857142857,352.21428666796004,526.2,366.9642857142857,375.96428666796004,628.3,94.46428571428572,82.21428666796004,728.4,59.464285714285715,33.46428666796003,834,46.964285714285715,27.21428666796003,938.2,0.7142857142857153,-2.7857133320399683,1038.8,-0.5357142857142847,-2.7857133320399683,1144.4,-0.5357142857142847,-2.7857133320399683,1257.8,-0.5357142857142847,-2.7857133320399683,1358.5,-0.5357142857142847,-2.7857133320399683,1458.6,33.214285714285715,37.21428666796003,1558.8,46.964285714285715,52.21428666796003,1663.3,46.964285714285715,52.21428666796003,1774.2,46.964285714285715,52.21428666796003,1889.4,46.964285714285715,52.21428666796003,1993.6,46.964285714285715,52.21428666796003,2107.5,46.964285714285715,52.21428666796003,2214.1,-24.285714285714285,250.96428666796004,2319.1,-103.03571428571428,447.21428666796004,2423.2,-106.78571428571428,457.21428666796004,2527.8,-106.78571428571428,457.21428666796004,2628.4,-106.78571428571428,457.21428666796004,2743.5,-106.78571428571428,457.21428666796004,2848.2,-106.78571428571428,457.21428666796004,2948.5,-106.78571428571428,457.21428666796004,3053.6,-106.78571428571428,457.21428666796004,3156.2,-106.78571428571428,457.21428666796004,3258,-106.78571428571428,457.21428666796004,3358.3,-106.78571428571428,457.21428666796004,3462.5,-106.78571428571428,457.21428666796004,3563.2,-106.78571428571428,457.21428666796004,3663.3,-106.78571428571428,457.21428666796004,3772.8,-106.78571428571428,457.21428666796004,3873,-106.78571428571428,457.21428666796004,3973.8,-106.78571428571428,457.21428666796004,4078.2,-106.78571428571428,457.21428666796004,4178.2,-106.78571428571428,457.21428666796004,4293.1,-106.78571428571428,457.21428666796004,4398.5,-106.78571428571428,457.21428666796004,4503.9,-106.78571428571428,457.21428666796004,4606.3,-106.78571428571428,457.21428666796004,4708,-106.78571428571428,457.21428666796004,4813.3,-106.78571428571428,457.21428666796004,4914.8]","[1435.6,1435.6,1000,0,435.6,""oops"",""up"",""right"",""bad_move"",7402,5965.7,2335.8,4663.6,402.6,""smooth"",""up"",""up"",""good_move"",10568.3,3166,2543.2,7402.3,622.8,""smooth"",""up"",""up"",""good_move"",13067.8,2499.1,2115.8,10568.7,383.3,""oops"",""left"",""down"",""bad_move"",15918,2849.4,2427.1,13068.6,422.3,""oops"",""left"",""left"",""good_move"",26202.2,10283.9,2742.3,23073.7,386.2,""smooth"",""left"",""left"",""good_move"",29293.9,3091.2,2731.1,26202.7,360.1,""oops"",""left"",""down"",""bad_move"",32035.6,2741.3,2411.3,29294.3,330,""smooth"",""up"",""up"",""good_move"",38073.4,6037.5,2712.6,35004.3,356.5,""smooth"",""up"",""up"",""good_move"",40535.3,2461.8,2159.5,38073.5,302.3,""oops"",""left"",""up"",""good_move""]","",""
"11671","","<div style=""width:500px;"">
  <p>What determined the result of this run?</p>
  </div>","9","html-slider-response","60","927442","0.0-5.0-1.10","290","1","2025-07-30 12:15:50","1f75c3e559b7213887762d5229550c2b","154.117.143.238","Mozilla/5.0 (Windows NT 10.0; Win64; x64) AppleWebKit/537.36 (KHTML, like Gecko) Chrome/138.0.0.0 Safari/537.36","WebKit","Chrome","138.0.0.0","Windows","10.0","https://app.prolific.com/","en-US,en;q=0.9","60ad28c6d838565067ab1b6c","6877631c9844ddd5501205fc","688a0cea7636f4dc3c651097","3","1","60ad28c6d838565067ab1b6c","3","1","2025-07-30T12:31:20.184Z","","","","","","","","","","","AttribQ","","50","","","","","","","","","","","","","","","","","","","","","","","","","","","","",""
"4852","","<div style=""width:500px;"">
  <p>How much control did you have over the ball?</p>
  </div>","20","html-slider-response","61","932296","0.0-5.0-2.10","290","1","2025-07-30 12:15:50","1f75c3e559b7213887762d5229550c2b","154.117.143.238","Mozilla/5.0 (Windows NT 10.0; Win64; x64) AppleWebKit/537.36 (KHTML, like Gecko) Chrome/138.0.0.0 Safari/537.36","WebKit","Chrome","138.0.0.0","Windows","10.0","https://app.prolific.com/","en-US,en;q=0.9","60ad28c6d838565067ab1b6c","6877631c9844ddd5501205fc","688a0cea7636f4dc3c651097","3","1","60ad28c6d838565067ab1b6c","3","1","2025-07-30T12:31:25.038Z","","","","","","","","","","","ControlQ","","50","","","","","","","","","","","","","","","","","","","","","","","","","","","","",""
"4671","","<div style=""width:500px;"">
  <p>How would you describe your current emotional state?</p>
  </div>","32","html-slider-response","62","936967","0.0-5.0-3.10","290","1","2025-07-30 12:15:50","1f75c3e559b7213887762d5229550c2b","154.117.143.238","Mozilla/5.0 (Windows NT 10.0; Win64; x64) AppleWebKit/537.36 (KHTML, like Gecko) Chrome/138.0.0.0 Safari/537.36","WebKit","Chrome","138.0.0.0","Windows","10.0","https://app.prolific.com/","en-US,en;q=0.9","60ad28c6d838565067ab1b6c","6877631c9844ddd5501205fc","688a0cea7636f4dc3c651097","3","1","60ad28c6d838565067ab1b6c","3","1","2025-07-30T12:31:29.709Z","","","","","","","","","","","StressQ","","50","","","","","","","","","","","","","","","","","","","","","","","","","","","","",""
"6355","","<div style=""width:500px;"">
  <p>What best describes how you currently feel?</p>
  </div>","72","html-slider-response","63","943323","0.0-5.0-4.10","290","1","2025-07-30 12:15:50","1f75c3e559b7213887762d5229550c2b","154.117.143.238","Mozilla/5.0 (Windows NT 10.0; Win64; x64) AppleWebKit/537.36 (KHTML, like Gecko) Chrome/138.0.0.0 Safari/537.36","WebKit","Chrome","138.0.0.0","Windows","10.0","https://app.prolific.com/","en-US,en;q=0.9","60ad28c6d838565067ab1b6c","6877631c9844ddd5501205fc","688a0cea7636f4dc3c651097","3","1","60ad28c6d838565067ab1b6c","3","1","2025-07-30T12:31:36.065Z","","","","","","","","","","","MotivationQ","","50","","","","","","","","","","","","","","","","","","","","","","","","","","","","",""
"","","","","ctl-task-cpt","64","977842","0.0-5.0-0.11","290","1","2025-07-30 12:15:50","1f75c3e559b7213887762d5229550c2b","154.117.143.238","Mozilla/5.0 (Windows NT 10.0; Win64; x64) AppleWebKit/537.36 (KHTML, like Gecko) Chrome/138.0.0.0 Safari/537.36","WebKit","Chrome","138.0.0.0","Windows","10.0","https://app.prolific.com/","en-US,en;q=0.9","60ad28c6d838565067ab1b6c","6877631c9844ddd5501205fc","688a0cea7636f4dc3c651097","3","1","60ad28c6d838565067ab1b6c","3","1","2025-07-30T12:32:10.584Z","","","","","","","","","","","","","","win-only","3","g1:SW,g2:NE","0.6","12","0","947037.4","1416.3","6418.4","31500","1","4","4","6","2","4","4","4","0","0.030303030303030304","1315.8","3000","1025","[""up"",""right""]","{""num_key_presses"":8,""num_perfect"":5,""num_errors"":0,""num_randdir"":3,""num_randdir_good_moves"":2,""num_whilered"":0,""num_whileblue"":0,""num_blue"":1,""num_good_moves"":7}","[352.46428762163436,343.46428666796004,0.1,352.46428762163436,343.46428666796004,103,352.46428762163436,343.46428666796004,203.8,352.46428762163436,343.46428666796004,303.9,352.46428762163436,343.46428666796004,404.5,348.71428762163436,363.46428666796004,504.8,453.71428762163436,225.96428666796004,605.6,562.4642876216343,85.96428666796004,710.4,568.7142876216343,78.46428666796004,815,577.4642876216343,72.21428666796004,919,598.7142876216343,64.71428666796004,1019.2,613.7142876216343,63.46428666796003,1120.8,616.2142876216343,63.46428666796003,1234.9,616.2142876216343,63.46428666796003,1351.1,616.2142876216343,63.46428666796003,1454.7,616.2142876216343,63.46428666796003,1559.5,627.4642876216343,45.96428666796003,1660.7,717.4642876216343,-82.78571333203996,1765,718.7142876216343,-87.78571333203996,1866,717.4642876216343,-97.78571333203996,1969,717.4642876216343,-99.03571333203996,2069.1,717.4642876216343,-99.03571333203996,2185.5,717.4642876216343,-99.03571333203996,2301.2,717.4642876216343,-99.03571333203996,2404.2,717.4642876216343,-99.03571333203996,2509.4,717.4642876216343,-99.03571333203996,2609.7,717.4642876216343,-99.03571333203996,2710.9,717.4642876216343,-99.03571333203996,2814,717.4642876216343,-99.03571333203996,2914.7,717.4642876216343,-99.03571333203996,3015.3,717.4642876216343,-99.03571333203996,3120,717.4642876216343,-99.03571333203996,3235.5,717.4642876216343,-99.03571333203996,3335.9,717.4642876216343,-99.03571333203996,3439.1,717.4642876216343,-99.03571333203996,3544.2,717.4642876216343,-99.03571333203996,3645.1,717.4642876216343,-99.03571333203996,3749.2,717.4642876216343,-99.03571333203996,3849.9,717.4642876216343,-99.03571333203996,3950,717.4642876216343,-99.03571333203996,4054.2,717.4642876216343,-99.03571333203996,4169.9,717.4642876216343,-99.03571333203996,4275.3,717.4642876216343,-99.03571333203996,4380.6,717.4642876216343,-99.03571333203996,4480.9,717.4642876216343,-99.03571333203996,4584,717.4642876216343,-99.03571333203996,4684.4,717.4642876216343,-99.03571333203996,4799.8,717.4642876216343,-99.03571333203996,4900.8]","[1396.3,1396.3,1000,0,396.3,""smooth"",""up"",""up"",""good_move"",3714.3,2317.7,1866.5,1396.7,451.2,""oops"",""up"",""right"",""good_move"",6830.7,3115.9,2806.9,3714.8,309,""oops"",""up"",""up"",""good_move"",12847.4,6016.4,2346.8,10087.6,413,""oops"",""up"",""left"",""bad_move"",15683.1,2835.4,2434.1,12847.7,401.3,""smooth"",""up"",""up"",""good_move"",19241.4,3557.8,3222.7,15683.6,335.1,""smooth"",""right"",""right"",""good_move"",22202.7,2960.9,2665.7,19241.8,295.2,""smooth"",""right"",""right"",""good_move"",24954.2,2751.2,2469.7,22203,281.5,""smooth"",""right"",""right"",""good_move""]","",""
"4401","","<div style=""width:500px;"">
  <p>What determined the result of this run?</p>
  </div>","63","html-slider-response","65","982244","0.0-5.0-1.11","290","1","2025-07-30 12:15:50","1f75c3e559b7213887762d5229550c2b","154.117.143.238","Mozilla/5.0 (Windows NT 10.0; Win64; x64) AppleWebKit/537.36 (KHTML, like Gecko) Chrome/138.0.0.0 Safari/537.36","WebKit","Chrome","138.0.0.0","Windows","10.0","https://app.prolific.com/","en-US,en;q=0.9","60ad28c6d838565067ab1b6c","6877631c9844ddd5501205fc","688a0cea7636f4dc3c651097","3","1","60ad28c6d838565067ab1b6c","3","1","2025-07-30T12:32:14.986Z","","","","","","","","","","","AttribQ","","50","","","","","","","","","","","","","","","","","","","","","","","","","","","","",""
"3247","","<div style=""width:500px;"">
  <p>How much control did you have over the ball?</p>
  </div>","61","html-slider-response","66","985492","0.0-5.0-2.11","290","1","2025-07-30 12:15:50","1f75c3e559b7213887762d5229550c2b","154.117.143.238","Mozilla/5.0 (Windows NT 10.0; Win64; x64) AppleWebKit/537.36 (KHTML, like Gecko) Chrome/138.0.0.0 Safari/537.36","WebKit","Chrome","138.0.0.0","Windows","10.0","https://app.prolific.com/","en-US,en;q=0.9","60ad28c6d838565067ab1b6c","6877631c9844ddd5501205fc","688a0cea7636f4dc3c651097","3","1","60ad28c6d838565067ab1b6c","3","1","2025-07-30T12:32:18.234Z","","","","","","","","","","","ControlQ","","50","","","","","","","","","","","","","","","","","","","","","","","","","","","","",""
"3079","","<div style=""width:500px;"">
  <p>How would you describe your current emotional state?</p>
  </div>","19","html-slider-response","67","988573","0.0-5.0-3.11","290","1","2025-07-30 12:15:50","1f75c3e559b7213887762d5229550c2b","154.117.143.238","Mozilla/5.0 (Windows NT 10.0; Win64; x64) AppleWebKit/537.36 (KHTML, like Gecko) Chrome/138.0.0.0 Safari/537.36","WebKit","Chrome","138.0.0.0","Windows","10.0","https://app.prolific.com/","en-US,en;q=0.9","60ad28c6d838565067ab1b6c","6877631c9844ddd5501205fc","688a0cea7636f4dc3c651097","3","1","60ad28c6d838565067ab1b6c","3","1","2025-07-30T12:32:21.315Z","","","","","","","","","","","StressQ","","50","","","","","","","","","","","","","","","","","","","","","","","","","","","","",""
"5031","","<div style=""width:500px;"">
  <p>What best describes how you currently feel?</p>
  </div>","71","html-slider-response","68","993605","0.0-5.0-4.11","290","1","2025-07-30 12:15:50","1f75c3e559b7213887762d5229550c2b","154.117.143.238","Mozilla/5.0 (Windows NT 10.0; Win64; x64) AppleWebKit/537.36 (KHTML, like Gecko) Chrome/138.0.0.0 Safari/537.36","WebKit","Chrome","138.0.0.0","Windows","10.0","https://app.prolific.com/","en-US,en;q=0.9","60ad28c6d838565067ab1b6c","6877631c9844ddd5501205fc","688a0cea7636f4dc3c651097","3","1","60ad28c6d838565067ab1b6c","3","1","2025-07-30T12:32:26.347Z","","","","","","","","","","","MotivationQ","","50","","","","","","","","","","","","","","","","","","","","","","","","","","","","",""
"","","","","ctl-task-cpt","69","1033879","0.0-5.0-0.12","290","1","2025-07-30 12:15:50","1f75c3e559b7213887762d5229550c2b","154.117.143.238","Mozilla/5.0 (Windows NT 10.0; Win64; x64) AppleWebKit/537.36 (KHTML, like Gecko) Chrome/138.0.0.0 Safari/537.36","WebKit","Chrome","138.0.0.0","Windows","10.0","https://app.prolific.com/","en-US,en;q=0.9","60ad28c6d838565067ab1b6c","6877631c9844ddd5501205fc","688a0cea7636f4dc3c651097","3","1","60ad28c6d838565067ab1b6c","3","1","2025-07-30T12:33:06.621Z","","","","","","","","","","","","","","win-only","0","g1:NW,g2:SE","0.7","13","0","997318.2","2700.6","7701.2","37250.2","1","4","8","6","2","8","8","12","4","0.09090909090909091","1066.8","3000","900","[""down"",""right""]","{""num_key_presses"":8,""num_perfect"":6,""num_errors"":0,""num_randdir"":2,""num_randdir_good_moves"":1,""num_whilered"":0,""num_whileblue"":0,""num_blue"":2,""num_good_moves"":7}","[346.21428762163436,349.71428666796004,0.2,346.21428762163436,349.71428666796004,102.8,346.21428762163436,349.71428666796004,205,346.21428762163436,349.71428666796004,321.6,332.46428762163436,355.96428666796004,436.5,334.96428762163436,388.46428666796004,539.9,617.4642876216343,590.96428666796,647.4,634.9642876216343,599.71428666796,750.5,647.4642876216343,600.96428666796,855.9,669.9642876216343,607.21428666796,970.9,669.9642876216343,607.21428666796,1076,669.9642876216343,607.21428666796,1176.2,669.9642876216343,607.21428666796,1280.4,669.9642876216343,607.21428666796,1384.8,687.4642876216343,142.21428666796004,1485.1,697.4642876216343,-47.78571333203997,1601.9,701.2142876216343,-79.03571333203996,1704.6,707.4642876216343,-99.03571333203996,1805,707.4642876216343,-99.03571333203996,1907.4,707.4642876216343,-99.03571333203996,2007.5,707.4642876216343,-99.03571333203996,2111.6,707.4642876216343,-99.03571333203996,2214.5,707.4642876216343,-99.03571333203996,2315,707.4642876216343,-99.03571333203996,2422.4,707.4642876216343,-99.03571333203996,2522.4,707.4642876216343,-99.03571333203996,2623.4,707.4642876216343,-99.03571333203996,2726,707.4642876216343,-99.03571333203996,2830.7,707.4642876216343,-99.03571333203996,2938.2,707.4642876216343,-99.03571333203996,3039.9,707.4642876216343,-99.03571333203996,3151.9,707.4642876216343,-99.03571333203996,3254.2,707.4642876216343,-99.03571333203996,3354.7,707.4642876216343,-99.03571333203996,3456,707.4642876216343,-99.03571333203996,3571.8,707.4642876216343,-99.03571333203996,3671.8,707.4642876216343,-99.03571333203996,3785.5,707.4642876216343,-99.03571333203996,3887.2,707.4642876216343,-99.03571333203996,3989.9,707.4642876216343,-99.03571333203996,4095.9,707.4642876216343,-99.03571333203996,4200,707.4642876216343,-99.03571333203996,4300,707.4642876216343,-99.03571333203996,4405.2,707.4642876216343,-99.03571333203996,4520.6,707.4642876216343,-99.03571333203996,4620.6,707.4642876216343,-99.03571333203996,4725.9,707.4642876216343,-99.03571333203996,4826.1,707.4642876216343,-99.03571333203996,4930.9]","[1417.4,1417.4,1000,0,417.4,""smooth"",""down"",""down"",""good_move"",4528.8,3111,2724.3,1417.8,386.7,""smooth"",""right"",""right"",""good_move"",7650.2,3121,2710,4529.2,411,""smooth"",""down"",""down"",""good_move"",10462.4,2811.9,2459.9,7650.5,352,""smooth"",""right"",""right"",""good_move"",16299.8,5837,1452.1,14360,487.7,""oops"",""down"",""left"",""bad_move"",22998.8,6698.6,2735.1,19851.7,412,""oops"",""down"",""down"",""good_move"",25730.1,2731.1,2407,22999,324.1,""smooth"",""right"",""right"",""good_move"",29433.9,3703.4,3360.1,25730.5,343.3,""smooth"",""right"",""right"",""good_move""]","",""
"98875","","<div style=""width:500px;"">
  <p>What determined the result of this run?</p>
  </div>","69","html-slider-response","70","1132755","0.0-5.0-1.12","290","1","2025-07-30 12:15:50","1f75c3e559b7213887762d5229550c2b","154.117.143.238","Mozilla/5.0 (Windows NT 10.0; Win64; x64) AppleWebKit/537.36 (KHTML, like Gecko) Chrome/138.0.0.0 Safari/537.36","WebKit","Chrome","138.0.0.0","Windows","10.0","https://app.prolific.com/","en-US,en;q=0.9","60ad28c6d838565067ab1b6c","6877631c9844ddd5501205fc","688a0cea7636f4dc3c651097","3","1","60ad28c6d838565067ab1b6c","3","1","2025-07-30T12:34:45.497Z","","","","","","","","","","","AttribQ","","50","","","","","","","","","","","","","","","","","","","","","","","","","","","","",""
"2823","","<div style=""width:500px;"">
  <p>How much control did you have over the ball?</p>
  </div>","70","html-slider-response","71","1135580","0.0-5.0-2.12","290","1","2025-07-30 12:15:50","1f75c3e559b7213887762d5229550c2b","154.117.143.238","Mozilla/5.0 (Windows NT 10.0; Win64; x64) AppleWebKit/537.36 (KHTML, like Gecko) Chrome/138.0.0.0 Safari/537.36","WebKit","Chrome","138.0.0.0","Windows","10.0","https://app.prolific.com/","en-US,en;q=0.9","60ad28c6d838565067ab1b6c","6877631c9844ddd5501205fc","688a0cea7636f4dc3c651097","3","1","60ad28c6d838565067ab1b6c","3","1","2025-07-30T12:34:48.322Z","","","","","","","","","","","ControlQ","","50","","","","","","","","","","","","","","","","","","","","","","","","","","","","",""
"2282","","<div style=""width:500px;"">
  <p>How would you describe your current emotional state?</p>
  </div>","17","html-slider-response","72","1137864","0.0-5.0-3.12","290","1","2025-07-30 12:15:50","1f75c3e559b7213887762d5229550c2b","154.117.143.238","Mozilla/5.0 (Windows NT 10.0; Win64; x64) AppleWebKit/537.36 (KHTML, like Gecko) Chrome/138.0.0.0 Safari/537.36","WebKit","Chrome","138.0.0.0","Windows","10.0","https://app.prolific.com/","en-US,en;q=0.9","60ad28c6d838565067ab1b6c","6877631c9844ddd5501205fc","688a0cea7636f4dc3c651097","3","1","60ad28c6d838565067ab1b6c","3","1","2025-07-30T12:34:50.606Z","","","","","","","","","","","StressQ","","50","","","","","","","","","","","","","","","","","","","","","","","","","","","","",""
"201720","","<div style=""width:500px;"">
  <p>What best describes how you currently feel?</p>
  </div>","79","html-slider-response","73","1339585","0.0-5.0-4.12","290","1","2025-07-30 12:15:50","1f75c3e559b7213887762d5229550c2b","154.117.143.238","Mozilla/5.0 (Windows NT 10.0; Win64; x64) AppleWebKit/537.36 (KHTML, like Gecko) Chrome/138.0.0.0 Safari/537.36","WebKit","Chrome","138.0.0.0","Windows","10.0","https://app.prolific.com/","en-US,en;q=0.9","60ad28c6d838565067ab1b6c","6877631c9844ddd5501205fc","688a0cea7636f4dc3c651097","3","1","60ad28c6d838565067ab1b6c","3","1","2025-07-30T12:38:12.328Z","","","","","","","","","","","MotivationQ","","50","","","","","","","","","","","","","","","","","","","","","","","","","","","","",""
"","","","","ctl-task-cpt","74","1372702","0.0-5.0-0.13","290","1","2025-07-30 12:15:50","1f75c3e559b7213887762d5229550c2b","154.117.143.238","Mozilla/5.0 (Windows NT 10.0; Win64; x64) AppleWebKit/537.36 (KHTML, like Gecko) Chrome/138.0.0.0 Safari/537.36","WebKit","Chrome","138.0.0.0","Windows","10.0","https://app.prolific.com/","en-US,en;q=0.9","60ad28c6d838565067ab1b6c","6877631c9844ddd5501205fc","688a0cea7636f4dc3c651097","3","1","60ad28c6d838565067ab1b6c","3","1","2025-07-30T12:38:45.444Z","","","","","","","","","","","","","","win-only","2","g1:SE,g2:NW","0.8","14","0","1343300.1","2114.3","7120.4","30096.2","1","4","4","6","2","4","4","16","12","0.12121212121212122","970.1","3000","1250","[""left"",""up""]","{""num_key_presses"":6,""num_perfect"":6,""num_errors"":0,""num_randdir"":0,""num_randdir_good_moves"":0,""num_whilered"":0,""num_whileblue"":0,""num_blue"":2,""num_good_moves"":6}","[351.21428762163436,350.96428666796004,0.2,351.21428762163436,350.96428666796004,103.8,351.21428762163436,350.96428666796004,205.9,351.21428762163436,350.96428666796004,306.1,351.21428762163436,350.96428666796004,406.4,288.71428762163436,302.21428666796004,511.7,69.96428762163436,55.96428666796003,611.9,67.46428762163436,47.21428666796003,712,67.46428762163436,47.21428666796003,812.7,67.46428762163436,47.21428666796003,916.2,67.46428762163436,47.21428666796003,1016.9,67.46428762163436,47.21428666796003,1121.4,67.46428762163436,47.21428666796003,1238.1,67.46428762163436,47.21428666796003,1339,67.46428762163436,47.21428666796003,1441.5,98.71428762163436,33.46428666796003,1542.4,271.21428762163436,37.21428666796003,1646.5,313.71428762163436,132.21428666796004,1747,311.21428762163436,148.46428666796004,1847.2,311.21428762163436,148.46428666796004,1947.7,311.21428762163436,148.46428666796004,2051.1,311.21428762163436,148.46428666796004,2151.5,311.21428762163436,148.46428666796004,2251.9,311.21428762163436,148.46428666796004,2369.1,311.21428762163436,148.46428666796004,2469.1,311.21428762163436,148.46428666796004,2571.5,311.21428762163436,148.46428666796004,2676.9,311.21428762163436,148.46428666796004,2776.9,311.21428762163436,148.46428666796004,2877.4,311.21428762163436,148.46428666796004,2981.5,311.21428762163436,148.46428666796004,3081.5,311.21428762163436,148.46428666796004,3182,311.21428762163436,148.46428666796004,3286.6,311.21428762163436,148.46428666796004,3404.1,311.21428762163436,148.46428666796004,3507.7,311.21428762163436,148.46428666796004,3613.1,311.21428762163436,148.46428666796004,3717.4,311.21428762163436,148.46428666796004,3822,321.21428762163436,140.96428666796004,3937,376.21428762163436,54.71428666796003,4037.9,557.4642876216343,-91.53571333203996,4138.7,557.4642876216343,-91.53571333203996,4241.5,557.4642876216343,-91.53571333203996,4343.1,557.4642876216343,-91.53571333203996,4447.3,557.4642876216343,-91.53571333203996,4551.1,557.4642876216343,-91.53571333203996,4651.5,557.4642876216343,-91.53571333203996,4762.2,557.4642876216343,-91.53571333203996,4874.5,557.4642876216343,-91.53571333203996,4974.6]","[1678.8,1678.8,1000,0,678.8,""smooth"",""up"",""up"",""good_move"",12310.1,10631,3002.7,8865.6,441.8,""smooth"",""left"",""left"",""good_move"",15346,3035.6,2680.6,12310.4,355.1,""smooth"",""left"",""left"",""good_move"",18475.5,3129.2,2764.8,15346.3,364.4,""smooth"",""up"",""up"",""good_move"",20737.5,2261.8,1783,18475.7,478.8,""smooth"",""left"",""left"",""good_move"",22860.3,2122.4,1748.8,20737.9,373.6,""smooth"",""up"",""up"",""good_move""]","",""
"40916","","<div style=""width:500px;"">
  <p>What determined the result of this run?</p>
  </div>","74","html-slider-response","75","1413619","0.0-5.0-1.13","290","1","2025-07-30 12:15:50","1f75c3e559b7213887762d5229550c2b","154.117.143.238","Mozilla/5.0 (Windows NT 10.0; Win64; x64) AppleWebKit/537.36 (KHTML, like Gecko) Chrome/138.0.0.0 Safari/537.36","WebKit","Chrome","138.0.0.0","Windows","10.0","https://app.prolific.com/","en-US,en;q=0.9","60ad28c6d838565067ab1b6c","6877631c9844ddd5501205fc","688a0cea7636f4dc3c651097","3","1","60ad28c6d838565067ab1b6c","3","1","2025-07-30T12:39:26.362Z","","","","","","","","","","","AttribQ","","50","","","","","","","","","","","","","","","","","","","","","","","","","","","","",""
"3388","","<div style=""width:500px;"">
  <p>How much control did you have over the ball?</p>
